trialsN,participant,trials.label,trials.cue,trials.thisRepN,trials.thisN,signalOpacity,trials.response,trialsStair
0,1,low_opac_i,Invalid,1.0,0.0,0.4,1.0,1
1,1,high_opac_v,Valid,1.0,1.0,0.0,1.0,1
2,1,low_opac_v,Valid,1.0,2.0,0.4,1.0,1
3,1,low_opac_v,Valid,2.0,3.0,0.01,0.0,2
4,1,low_opac_i,Invalid,2.0,4.0,0.0,1.0,2
5,1,high_opac_v,Valid,2.0,5.0,0.01,0.0,2
6,1,high_opac_v,Valid,3.0,6.0,0.0,1.0,3
7,1,low_opac_i,Invalid,3.0,7.0,0.0,1.0,3
8,1,low_opac_v,Valid,3.0,8.0,0.0,1.0,3
9,1,low_opac_v,Valid,4.0,9.0,0.2356115953941183,1.0,4
10,1,high_opac_v,Valid,4.0,10.0,0.0,1.0,4
11,1,low_opac_i,Invalid,4.0,11.0,0.01,0.0,4
12,1,low_opac_v,Valid,5.0,12.0,0.0,1.0,5
13,1,high_opac_v,Valid,5.0,13.0,0.0,1.0,5
14,1,low_opac_i,Invalid,5.0,14.0,0.0,1.0,5
15,1,low_opac_v,Valid,6.0,15.0,0.14081453445857,1.0,6
16,1,high_opac_v,Valid,6.0,16.0,0.0,1.0,6
17,1,low_opac_i,Invalid,6.0,17.0,0.0,1.0,6
18,1,high_opac_v,Valid,7.0,18.0,0.0,0.0,7
19,1,low_opac_i,Invalid,7.0,19.0,0.01,0.0,7
20,1,low_opac_v,Valid,7.0,20.0,0.0,1.0,7
21,1,low_opac_v,Valid,8.0,21.0,0.0693977005055356,0.0,8
22,1,high_opac_v,Valid,8.0,22.0,0.0,1.0,8
23,1,low_opac_i,Invalid,8.0,23.0,0.0655663431303109,0.0,8
24,1,low_opac_v,Valid,9.0,24.0,0.0,0.0,9
25,1,high_opac_v,Valid,9.0,25.0,0.0,1.0,9
26,1,low_opac_i,Invalid,9.0,26.0,0.0,0.0,9
27,1,high_opac_v,Valid,10.0,27.0,0.0341099414077045,0.0,10
28,1,low_opac_v,Valid,10.0,28.0,0.0,0.0,10
29,1,low_opac_i,Invalid,10.0,29.0,0.0,0.0,10
30,1,low_opac_v,Valid,11.0,30.0,0.0,1.0,11
31,1,high_opac_v,Valid,11.0,31.0,0.0718073717418539,1.0,11
32,1,low_opac_i,Invalid,11.0,32.0,0.2122725407483045,1.0,11
33,1,low_opac_i,Invalid,12.0,33.0,0.2001566132734334,1.0,12
34,1,high_opac_v,Valid,12.0,34.0,0.0,1.0,12
35,1,low_opac_v,Valid,12.0,35.0,0.2372601722363599,1.0,12
36,1,high_opac_v,Valid,13.0,36.0,0.0558473969156652,1.0,13
37,1,low_opac_i,Invalid,13.0,37.0,0.190012058624864,0.0,13
38,1,low_opac_v,Valid,13.0,38.0,0.0,1.0,13
39,1,high_opac_v,Valid,14.0,39.0,0.0492465609798236,1.0,14
40,1,low_opac_i,Invalid,14.0,40.0,0.0,0.0,14
41,1,low_opac_v,Valid,14.0,41.0,0.2195650362655215,1.0,14
42,1,low_opac_v,Valid,15.0,42.0,0.0,0.0,15
43,1,low_opac_i,Invalid,15.0,43.0,0.2550305806845781,0.0,15
44,1,high_opac_v,Valid,15.0,44.0,0.0,0.0,15
45,1,high_opac_v,Valid,16.0,45.0,0.0654081395482286,1.0,16
46,1,low_opac_i,Invalid,16.0,46.0,0.2870600962218925,1.0,16
47,1,low_opac_v,Valid,16.0,47.0,0.0,1.0,16
48,1,low_opac_i,Invalid,17.0,48.0,0.0,0.0,17
49,1,low_opac_v,Valid,17.0,49.0,0.0,1.0,17
50,1,high_opac_v,Valid,17.0,50.0,0.0,0.0,17
51,1,high_opac_v,Valid,18.0,51.0,0.0,1.0,18
52,1,low_opac_i,Invalid,18.0,52.0,0.3067097769751392,1.0,18
53,1,low_opac_v,Valid,18.0,53.0,0.0,1.0,18
54,1,low_opac_v,Valid,19.0,54.0,0.2207804336040392,1.0,19
55,1,high_opac_v,Valid,19.0,55.0,0.0751684741858354,0.0,19
56,1,low_opac_i,Invalid,19.0,56.0,0.3000939496259996,1.0,19
57,1,high_opac_v,Valid,20.0,57.0,0.0933905889006755,1.0,20
58,1,low_opac_i,Invalid,20.0,58.0,0.0,1.0,20
59,1,low_opac_v,Valid,20.0,59.0,0.0,0.0,20
60,1,low_opac_v,Valid,21.0,60.0,0.0,1.0,21
61,1,low_opac_i,Invalid,21.0,61.0,0.0,0.0,21
62,1,high_opac_v,Valid,21.0,62.0,0.0889787055430556,1.0,21
63,1,low_opac_v,Valid,22.0,63.0,0.2310006691721872,1.0,22
64,1,high_opac_v,Valid,22.0,64.0,0.0849961844635647,1.0,22
65,1,low_opac_i,Invalid,22.0,65.0,0.0,0.0,22
66,1,high_opac_v,Valid,23.0,66.0,0.0,1.0,23
67,1,low_opac_v,Valid,23.0,67.0,0.0,1.0,23
68,1,low_opac_i,Invalid,23.0,68.0,0.3290709601625183,1.0,23
69,1,high_opac_v,Valid,24.0,69.0,0.0773238980675746,1.0,24
70,1,low_opac_v,Valid,24.0,70.0,0.0,0.0,24
71,1,low_opac_i,Invalid,24.0,71.0,0.3242293569855843,1.0,24
72,1,low_opac_v,Valid,25.0,72.0,0.0,1.0,25
73,1,low_opac_i,Invalid,25.0,73.0,0.0,1.0,25
74,1,high_opac_v,Valid,25.0,74.0,0.0739431895454532,0.0,25
75,1,high_opac_v,Valid,26.0,75.0,0.0869123073179114,1.0,26
76,1,low_opac_i,Invalid,26.0,76.0,0.0,1.0,26
77,1,low_opac_v,Valid,26.0,77.0,0.2342939335837764,1.0,26
78,1,low_opac_v,Valid,27.0,78.0,0.2306199160668063,1.0,27
79,1,low_opac_i,Invalid,27.0,79.0,0.0,0.0,27
80,1,high_opac_v,Valid,27.0,80.0,0.0,1.0,27
81,1,low_opac_v,Valid,28.0,81.0,0.0,1.0,28
82,1,high_opac_v,Valid,28.0,82.0,0.0806407721570072,1.0,28
83,1,low_opac_i,Invalid,28.0,83.0,0.3265137164001327,1.0,28
84,1,low_opac_v,Valid,29.0,84.0,0.2240140604443391,1.0,29
85,1,low_opac_i,Invalid,29.0,85.0,0.0,1.0,29
86,1,high_opac_v,Valid,29.0,86.0,0.0776471311038382,1.0,29
87,1,low_opac_v,Valid,30.0,87.0,0.0,1.0,30
88,1,low_opac_i,Invalid,30.0,88.0,0.3192711939748725,1.0,30
89,1,high_opac_v,Valid,30.0,89.0,0.0748734349841763,1.0,30
90,1,high_opac_v,Valid,31.0,90.0,0.0,1.0,31
91,1,low_opac_v,Valid,31.0,91.0,0.2176750508887868,1.0,31
92,1,low_opac_i,Invalid,31.0,92.0,0.3159245370620051,1.0,31
93,1,high_opac_v,Valid,32.0,93.0,0.0,1.0,32
94,1,low_opac_v,Valid,32.0,94.0,0.0,1.0,32
95,1,low_opac_i,Invalid,32.0,95.0,0.3128222370502453,1.0,32
96,1,high_opac_v,Valid,33.0,96.0,0.0,1.0,33
97,1,low_opac_i,Invalid,33.0,97.0,0.3096227560094517,1.0,33
98,1,low_opac_v,Valid,33.0,98.0,0.2118629469629048,1.0,33
99,1,high_opac_v,Valid,34.0,99.0,0.0643046124886161,0.0,34
100,1,low_opac_v,Valid,34.0,100.0,0.0,1.0,34
101,1,low_opac_i,Invalid,34.0,101.0,0.3066480602061835,1.0,34
102,1,low_opac_i,Invalid,35.0,102.0,0.3038773747507529,1.0,35
103,1,high_opac_v,Valid,35.0,103.0,0.0,1.0,35
104,1,low_opac_v,Valid,35.0,104.0,0.2063607943797429,1.0,35
105,1,high_opac_v,Valid,36.0,105.0,0.0,1.0,36
106,1,low_opac_v,Valid,36.0,106.0,0.0,1.0,36
107,1,low_opac_i,Invalid,36.0,107.0,0.0,1.0,36
108,1,low_opac_v,Valid,37.0,108.0,0.0,1.0,37
109,1,high_opac_v,Valid,37.0,109.0,0.0,1.0,37
110,1,low_opac_i,Invalid,37.0,110.0,0.0,1.0,37
111,1,high_opac_v,Valid,38.0,111.0,0.0,1.0,38
112,1,low_opac_v,Valid,38.0,112.0,0.0,1.0,38
113,1,low_opac_i,Invalid,38.0,113.0,0.0,1.0,38
114,1,low_opac_i,Invalid,39.0,114.0,0.2933137999533073,1.0,39
115,1,high_opac_v,Valid,39.0,115.0,0.0648327067708386,0.0,39
116,1,low_opac_v,Valid,39.0,116.0,0.0,1.0,39
117,1,low_opac_i,Invalid,40.0,117.0,0.2907901744261023,1.0,40
118,1,high_opac_v,Valid,40.0,118.0,0.0,1.0,40
119,1,low_opac_v,Valid,40.0,119.0,0.0,1.0,40
120,1,low_opac_v,Valid,41.0,120.0,0.1916227264118186,1.0,41
121,1,high_opac_v,Valid,41.0,121.0,0.0710287787386639,0.0,41
122,1,low_opac_i,Invalid,41.0,122.0,0.2883558420817252,1.0,41
123,1,low_opac_v,Valid,42.0,123.0,0.1892851029221998,1.0,42
124,1,low_opac_i,Invalid,42.0,124.0,0.0,1.0,42
125,1,high_opac_v,Valid,42.0,125.0,0.0790156199072564,1.0,42
126,1,high_opac_v,Valid,43.0,126.0,0.0,1.0,43
127,1,low_opac_v,Valid,43.0,127.0,0.1870530362444256,1.0,43
128,1,low_opac_i,Invalid,43.0,128.0,0.0,1.0,43
129,1,low_opac_v,Valid,44.0,129.0,0.18493576244899,1.0,44
130,1,high_opac_v,Valid,44.0,130.0,0.0,1.0,44
131,1,low_opac_i,Invalid,44.0,131.0,0.0,1.0,44
132,1,low_opac_v,Valid,45.0,132.0,0.0,1.0,45
133,1,high_opac_v,Valid,45.0,133.0,0.0735425505474677,1.0,45
134,1,low_opac_i,Invalid,45.0,134.0,0.0,1.0,45
135,1,low_opac_i,Invalid,46.0,135.0,0.0,1.0,46
136,1,high_opac_v,Valid,46.0,136.0,0.0,1.0,46
137,1,low_opac_v,Valid,46.0,137.0,0.1805503710653191,1.0,46
138,1,low_opac_i,Invalid,47.0,138.0,0.2752880613061303,1.0,47
139,1,low_opac_v,Valid,47.0,139.0,0.1784183642038773,1.0,47
140,1,high_opac_v,Valid,47.0,140.0,0.0698789925418634,1.0,47
141,1,high_opac_v,Valid,48.0,141.0,0.0681304923185758,1.0,48
142,1,low_opac_i,Invalid,48.0,142.0,0.0,0.0,48
143,1,low_opac_v,Valid,48.0,143.0,0.0,1.0,48
144,1,low_opac_i,Invalid,49.0,144.0,0.2812489552264745,1.0,49
145,1,low_opac_v,Valid,49.0,145.0,0.1744558524466873,1.0,49
146,1,high_opac_v,Valid,49.0,146.0,0.0664739696844764,0.0,49
147,1,low_opac_i,Invalid,50.0,147.0,0.2792939845775586,1.0,50
148,1,low_opac_v,Valid,50.0,148.0,0.0,1.0,50
149,1,high_opac_v,Valid,50.0,149.0,0.0,1.0,50
150,1,low_opac_v,Valid,51.0,150.0,0.0,1.0,51
151,1,low_opac_i,Invalid,51.0,151.0,0.0,1.0,51
152,1,high_opac_v,Valid,51.0,152.0,0.0,1.0,51
153,1,high_opac_v,Valid,52.0,153.0,0.0,1.0,52
154,1,low_opac_v,Valid,52.0,154.0,0.0,1.0,52
155,1,low_opac_i,Invalid,52.0,155.0,0.0,1.0,52
156,1,low_opac_v,Valid,53.0,156.0,0.1664992615724717,1.0,53
157,1,high_opac_v,Valid,53.0,157.0,0.0,1.0,53
158,1,low_opac_i,Invalid,53.0,158.0,0.0,1.0,53
159,1,low_opac_v,Valid,54.0,159.0,0.1646736421968092,1.0,54
160,1,low_opac_i,Invalid,54.0,160.0,0.0,1.0,54
161,1,high_opac_v,Valid,54.0,161.0,0.0,1.0,54
162,1,high_opac_v,Valid,55.0,162.0,0.0,1.0,55
163,1,low_opac_i,Invalid,55.0,163.0,0.2703786805889181,1.0,55
164,1,low_opac_v,Valid,55.0,164.0,0.1627395319284652,1.0,55
165,1,high_opac_v,Valid,56.0,165.0,0.0642544110519128,1.0,56
166,1,low_opac_v,Valid,56.0,166.0,0.1608341952351044,1.0,56
167,1,low_opac_i,Invalid,56.0,167.0,0.268632403780309,1.0,56
168,1,high_opac_v,Valid,57.0,168.0,0.0627737951261185,1.0,57
169,1,low_opac_i,Invalid,57.0,169.0,0.2669733134530585,0.0,57
170,1,low_opac_v,Valid,57.0,170.0,0.0,0.0,57
171,1,low_opac_v,Valid,58.0,171.0,0.1663875271136808,1.0,58
172,1,low_opac_i,Invalid,58.0,172.0,0.2738819376596991,1.0,58
173,1,high_opac_v,Valid,58.0,173.0,0.061314868586674,0.0,58
174,1,low_opac_v,Valid,59.0,174.0,0.0,1.0,59
175,1,high_opac_v,Valid,59.0,175.0,0.0,1.0,59
176,1,low_opac_i,Invalid,59.0,176.0,0.2722661650229567,1.0,59
177,1,low_opac_v,Valid,60.0,177.0,0.0,1.0,60
178,1,low_opac_i,Invalid,60.0,178.0,0.0,1.0,60
179,1,high_opac_v,Valid,60.0,179.0,0.0656401071401185,0.0,60
180,1,high_opac_v,Valid,61.0,180.0,0.0713824262047517,0.0,61
181,1,low_opac_i,Invalid,61.0,181.0,0.0,1.0,61
182,1,low_opac_v,Valid,61.0,182.0,0.1613663978522139,1.0,61
183,1,low_opac_v,Valid,62.0,183.0,0.1596780122889273,1.0,62
184,1,high_opac_v,Valid,62.0,184.0,0.0,1.0,62
185,1,low_opac_i,Invalid,62.0,185.0,0.0,1.0,62
186,1,high_opac_v,Valid,63.0,186.0,0.0754355494503123,0.0,63
187,1,low_opac_i,Invalid,63.0,187.0,0.0,1.0,63
188,1,low_opac_v,Valid,63.0,188.0,0.1580184218464078,1.0,63
189,1,high_opac_v,Valid,64.0,189.0,0.0,1.0,64
190,1,low_opac_v,Valid,64.0,190.0,0.1564309564941307,1.0,64
191,1,low_opac_i,Invalid,64.0,191.0,0.0,1.0,64
192,1,low_opac_i,Invalid,65.0,192.0,0.2632584518403765,1.0,65
193,1,high_opac_v,Valid,65.0,193.0,0.0,1.0,65
194,1,low_opac_v,Valid,65.0,194.0,0.0,1.0,65
195,1,high_opac_v,Valid,66.0,195.0,0.0,1.0,66
196,1,low_opac_i,Invalid,66.0,196.0,0.2618014719142491,1.0,66
197,1,low_opac_v,Valid,66.0,197.0,0.0,1.0,66
198,1,low_opac_v,Valid,67.0,198.0,0.1516558966910034,1.0,67
199,1,low_opac_i,Invalid,67.0,199.0,0.2603531278729904,1.0,67
200,1,high_opac_v,Valid,67.0,200.0,0.0,1.0,67
201,1,low_opac_v,Valid,68.0,201.0,0.1500491902041618,1.0,68
202,1,low_opac_i,Invalid,68.0,202.0,0.2589136695370541,1.0,68
203,1,high_opac_v,Valid,68.0,203.0,0.0759875559563113,0.0,68
204,1,low_opac_v,Valid,69.0,204.0,0.0,1.0,69
205,1,low_opac_i,Invalid,69.0,205.0,0.0,1.0,69
206,1,high_opac_v,Valid,69.0,206.0,0.0,1.0,69
207,1,high_opac_v,Valid,70.0,207.0,0.0798036138659133,0.0,70
208,1,low_opac_i,Invalid,70.0,208.0,0.0,1.0,70
209,1,low_opac_v,Valid,70.0,209.0,0.1468848675679078,1.0,70
210,1,high_opac_v,Valid,71.0,210.0,0.0845063683749586,1.0,71
211,1,low_opac_v,Valid,71.0,211.0,0.0,1.0,71
212,1,low_opac_i,Invalid,71.0,212.0,0.2549379560420101,1.0,71
213,1,low_opac_v,Valid,72.0,213.0,0.1439297965699275,1.0,72
214,1,low_opac_i,Invalid,72.0,214.0,0.0,1.0,72
215,1,high_opac_v,Valid,72.0,215.0,0.0833710198077271,0.0,72
216,1,low_opac_i,Invalid,73.0,216.0,0.2522386654619046,1.0,73
217,1,low_opac_v,Valid,73.0,217.0,0.0,1.0,73
218,1,high_opac_v,Valid,73.0,218.0,0.087720887546781,0.0,73
219,1,high_opac_v,Valid,74.0,219.0,0.0923622176530535,0.0,74
220,1,low_opac_i,Invalid,74.0,220.0,0.0,1.0,74
221,1,low_opac_v,Valid,74.0,221.0,0.1407975317395177,1.0,74
222,1,low_opac_v,Valid,75.0,222.0,0.1392076814839581,1.0,75
223,1,low_opac_i,Invalid,75.0,223.0,0.0,1.0,75
224,1,high_opac_v,Valid,75.0,224.0,0.0966252561556789,1.0,75
0,10,low_opac_v,Valid,1.0,0.0,0.0,0.0,1
1,10,low_opac_i,Invalid,1.0,1.0,0.0,0.0,1
2,10,high_opac_v,Valid,1.0,2.0,0.01,0.0,1
3,10,low_opac_i,Invalid,2.0,3.0,1.0,1.0,2
4,10,low_opac_v,Valid,2.0,4.0,1.0,1.0,2
5,10,high_opac_v,Valid,2.0,5.0,1.0,1.0,2
6,10,high_opac_v,Valid,3.0,6.0,0.6092784667527542,1.0,3
7,10,low_opac_v,Valid,3.0,7.0,0.8091950431803865,1.0,3
8,10,low_opac_i,Invalid,3.0,8.0,0.0,0.0,3
9,10,high_opac_v,Valid,4.0,9.0,0.0,1.0,4
10,10,low_opac_i,Invalid,4.0,10.0,0.0,0.0,4
11,10,low_opac_v,Valid,4.0,11.0,0.0,1.0,4
12,10,low_opac_i,Invalid,5.0,12.0,0.0,1.0,5
13,10,high_opac_v,Valid,5.0,13.0,0.3073330120243674,1.0,5
14,10,low_opac_v,Valid,5.0,14.0,0.0,0.0,5
15,10,high_opac_v,Valid,6.0,15.0,0.0,0.0,6
16,10,low_opac_i,Invalid,6.0,16.0,1.0,1.0,6
17,10,low_opac_v,Valid,6.0,17.0,0.0,0.0,6
18,10,high_opac_v,Valid,7.0,18.0,0.0,1.0,7
19,10,low_opac_i,Invalid,7.0,19.0,0.0,1.0,7
20,10,low_opac_v,Valid,7.0,20.0,0.0,1.0,7
21,10,low_opac_i,Invalid,8.0,21.0,0.0,1.0,8
22,10,low_opac_v,Valid,8.0,22.0,0.8195719770587391,1.0,8
23,10,high_opac_v,Valid,8.0,23.0,0.0,1.0,8
24,10,high_opac_v,Valid,9.0,24.0,0.0,1.0,9
25,10,low_opac_i,Invalid,9.0,25.0,1.0,1.0,9
26,10,low_opac_v,Valid,9.0,26.0,0.801885058781852,1.0,9
27,10,low_opac_i,Invalid,10.0,27.0,0.989137825083056,1.0,10
28,10,high_opac_v,Valid,10.0,28.0,0.2926922083521761,1.0,10
29,10,low_opac_v,Valid,10.0,29.0,0.0,1.0,10
30,10,high_opac_v,Valid,11.0,30.0,0.0,1.0,11
31,10,low_opac_i,Invalid,11.0,31.0,0.0,1.0,11
32,10,low_opac_v,Valid,11.0,32.0,0.0,1.0,11
33,10,high_opac_v,Valid,12.0,33.0,0.2626518728015489,1.0,12
34,10,low_opac_i,Invalid,12.0,34.0,0.0,1.0,12
35,10,low_opac_v,Valid,12.0,35.0,0.7627489357743621,1.0,12
36,10,low_opac_v,Valid,13.0,36.0,0.0,1.0,13
37,10,high_opac_v,Valid,13.0,37.0,0.249477369630389,1.0,13
38,10,low_opac_i,Invalid,13.0,38.0,0.0,1.0,13
39,10,high_opac_v,Valid,14.0,39.0,0.2375349778682454,1.0,14
40,10,low_opac_v,Valid,14.0,40.0,0.7427338507838532,1.0,14
41,10,low_opac_i,Invalid,14.0,41.0,0.9480132164708316,1.0,14
42,10,low_opac_i,Invalid,15.0,42.0,0.9387789419560328,1.0,15
43,10,low_opac_v,Valid,15.0,43.0,0.0,1.0,15
44,10,high_opac_v,Valid,15.0,44.0,0.2264595136351186,1.0,15
45,10,low_opac_v,Valid,16.0,45.0,0.7252784915913953,1.0,16
46,10,low_opac_i,Invalid,16.0,46.0,0.0,1.0,16
47,10,high_opac_v,Valid,16.0,47.0,0.2159632677866864,1.0,16
48,10,low_opac_i,Invalid,17.0,48.0,0.9201287905672269,1.0,17
49,10,high_opac_v,Valid,17.0,49.0,0.0,1.0,17
50,10,low_opac_v,Valid,17.0,50.0,0.7177421560020779,1.0,17
51,10,low_opac_v,Valid,18.0,51.0,0.7103856815585479,1.0,18
52,10,high_opac_v,Valid,18.0,52.0,0.0,1.0,18
53,10,low_opac_i,Invalid,18.0,53.0,0.0,1.0,18
54,10,low_opac_i,Invalid,19.0,54.0,0.0,1.0,19
55,10,high_opac_v,Valid,19.0,55.0,0.0,1.0,19
56,10,low_opac_v,Valid,19.0,56.0,0.0,1.0,19
57,10,low_opac_i,Invalid,20.0,57.0,0.0,1.0,20
58,10,high_opac_v,Valid,20.0,58.0,0.1757326081914794,1.0,20
59,10,low_opac_v,Valid,20.0,59.0,0.6957579869764627,1.0,20
60,10,high_opac_v,Valid,21.0,60.0,0.0,1.0,21
61,10,low_opac_v,Valid,21.0,61.0,0.689038224405368,1.0,21
62,10,low_opac_i,Invalid,21.0,62.0,0.0,1.0,21
63,10,high_opac_v,Valid,22.0,63.0,0.0,1.0,22
64,10,low_opac_v,Valid,22.0,64.0,0.0,1.0,22
65,10,low_opac_i,Invalid,22.0,65.0,0.0,1.0,22
66,10,high_opac_v,Valid,23.0,66.0,0.1407306509344952,1.0,23
67,10,low_opac_i,Invalid,23.0,67.0,0.0,1.0,23
68,10,low_opac_v,Valid,23.0,68.0,0.0,1.0,23
69,10,high_opac_v,Valid,24.0,69.0,0.1255122262285729,1.0,24
70,10,low_opac_v,Valid,24.0,70.0,0.668412837546111,1.0,24
71,10,low_opac_i,Invalid,24.0,71.0,0.8350104436577546,1.0,24
72,10,high_opac_v,Valid,25.0,72.0,0.1079621025290214,0.0,25
73,10,low_opac_v,Valid,25.0,73.0,0.0,1.0,25
74,10,low_opac_i,Invalid,25.0,74.0,0.8204180724508334,0.0,25
75,10,low_opac_i,Invalid,26.0,75.0,0.0,1.0,26
76,10,high_opac_v,Valid,26.0,76.0,0.1612012895861075,1.0,26
77,10,low_opac_v,Valid,26.0,77.0,0.6540474634577081,1.0,26
78,10,low_opac_v,Valid,27.0,78.0,0.0,1.0,27
79,10,high_opac_v,Valid,27.0,79.0,0.0,1.0,27
80,10,low_opac_i,Invalid,27.0,80.0,0.8605873768433395,1.0,27
81,10,high_opac_v,Valid,28.0,81.0,0.0,1.0,28
82,10,low_opac_v,Valid,28.0,82.0,0.0,1.0,28
83,10,low_opac_i,Invalid,28.0,83.0,0.8524493036877849,1.0,28
84,10,high_opac_v,Valid,29.0,84.0,0.1417422830725435,1.0,29
85,10,low_opac_i,Invalid,29.0,85.0,0.8442666310741265,0.0,29
86,10,low_opac_v,Valid,29.0,86.0,0.6305476247829618,1.0,29
87,10,high_opac_v,Valid,30.0,87.0,0.0,1.0,30
88,10,low_opac_i,Invalid,30.0,88.0,0.87180483438869,1.0,30
89,10,low_opac_v,Valid,30.0,89.0,0.6217660985375267,1.0,30
90,10,low_opac_v,Valid,31.0,90.0,0.6123692173045268,1.0,31
91,10,low_opac_i,Invalid,31.0,91.0,0.8660265880995083,1.0,31
92,10,high_opac_v,Valid,31.0,92.0,0.0,1.0,31
93,10,low_opac_v,Valid,32.0,93.0,0.6023657032045706,1.0,32
94,10,high_opac_v,Valid,32.0,94.0,0.1219309707006167,0.0,32
95,10,low_opac_i,Invalid,32.0,95.0,0.8606388223126384,1.0,32
96,10,low_opac_i,Invalid,33.0,96.0,0.8550574591827769,1.0,33
97,10,high_opac_v,Valid,33.0,97.0,0.0,1.0,33
98,10,low_opac_v,Valid,33.0,98.0,0.5918205425525981,1.0,33
99,10,low_opac_v,Valid,34.0,99.0,0.580833783504388,1.0,34
100,10,low_opac_i,Invalid,34.0,100.0,0.8498819889317168,1.0,34
101,10,high_opac_v,Valid,34.0,101.0,0.1420077475803657,0.0,34
102,10,low_opac_i,Invalid,35.0,102.0,0.0,1.0,35
103,10,low_opac_v,Valid,35.0,103.0,0.5694663589246245,1.0,35
104,10,high_opac_v,Valid,35.0,104.0,0.1587507985381859,0.0,35
105,10,high_opac_v,Valid,36.0,105.0,0.1730679621538768,1.0,36
106,10,low_opac_i,Invalid,36.0,106.0,0.0,1.0,36
107,10,low_opac_v,Valid,36.0,107.0,0.0,1.0,36
108,10,low_opac_i,Invalid,37.0,108.0,0.834273940983929,1.0,37
109,10,low_opac_v,Valid,37.0,109.0,0.0,1.0,37
110,10,high_opac_v,Valid,37.0,110.0,0.1697876507868256,1.0,37
111,10,low_opac_v,Valid,38.0,111.0,0.5324773051854634,1.0,38
112,10,low_opac_i,Invalid,38.0,112.0,0.8292640146110122,1.0,38
113,10,high_opac_v,Valid,38.0,113.0,0.0,1.0,38
114,10,high_opac_v,Valid,39.0,114.0,0.1637352725865735,1.0,39
115,10,low_opac_v,Valid,39.0,115.0,0.5167696936835773,1.0,39
116,10,low_opac_i,Invalid,39.0,116.0,0.8246352830963333,1.0,39
117,10,low_opac_i,Invalid,40.0,117.0,0.0,1.0,40
118,10,high_opac_v,Valid,40.0,118.0,0.0,1.0,40
119,10,low_opac_v,Valid,40.0,119.0,0.0,1.0,40
120,10,low_opac_i,Invalid,41.0,120.0,0.815607012468974,1.0,41
121,10,low_opac_v,Valid,41.0,121.0,0.4756402835902261,1.0,41
122,10,high_opac_v,Valid,41.0,122.0,0.0,1.0,41
123,10,high_opac_v,Valid,42.0,123.0,0.154942692830351,1.0,42
124,10,low_opac_i,Invalid,42.0,124.0,0.8115772558952676,1.0,42
125,10,low_opac_v,Valid,42.0,125.0,0.4464278972917432,1.0,42
126,10,low_opac_v,Valid,43.0,126.0,0.0,1.0,43
127,10,low_opac_i,Invalid,43.0,127.0,0.8074255353484718,1.0,43
128,10,high_opac_v,Valid,43.0,128.0,0.0,1.0,43
129,10,low_opac_i,Invalid,44.0,129.0,0.0,1.0,44
130,10,high_opac_v,Valid,44.0,130.0,0.0,1.0,44
131,10,low_opac_v,Valid,44.0,131.0,0.0,1.0,44
132,10,high_opac_v,Valid,45.0,132.0,0.1465314999529937,1.0,45
133,10,low_opac_i,Invalid,45.0,133.0,0.0,1.0,45
134,10,low_opac_v,Valid,45.0,134.0,0.0,1.0,45
135,10,low_opac_v,Valid,46.0,135.0,0.01,0.0,46
136,10,low_opac_i,Invalid,46.0,136.0,0.0,0.0,46
137,10,high_opac_v,Valid,46.0,137.0,0.0,1.0,46
138,10,low_opac_v,Valid,47.0,138.0,0.3251750437618917,1.0,47
139,10,high_opac_v,Valid,47.0,139.0,0.1412751364097188,1.0,47
140,10,low_opac_i,Invalid,47.0,140.0,0.0,1.0,47
141,10,low_opac_v,Valid,48.0,141.0,0.2758882734685183,1.0,48
142,10,low_opac_i,Invalid,48.0,142.0,0.8074891332871766,1.0,48
143,10,high_opac_v,Valid,48.0,143.0,0.0,1.0,48
144,10,low_opac_v,Valid,49.0,144.0,0.1974329445053732,1.0,49
145,10,high_opac_v,Valid,49.0,145.0,0.0,1.0,49
146,10,low_opac_i,Invalid,49.0,146.0,0.8044647309494226,1.0,49
147,10,low_opac_v,Valid,50.0,147.0,0.1273921638690283,0.0,50
148,10,low_opac_i,Invalid,50.0,148.0,0.8013396011014475,1.0,50
149,10,high_opac_v,Valid,50.0,149.0,0.133662626796843,0.0,50
150,10,low_opac_v,Valid,51.0,150.0,0.0,1.0,51
151,10,high_opac_v,Valid,51.0,151.0,0.0,1.0,51
152,10,low_opac_i,Invalid,51.0,152.0,0.7983240869182491,1.0,51
153,10,low_opac_v,Valid,52.0,153.0,0.0,1.0,52
154,10,low_opac_i,Invalid,52.0,154.0,0.7954909543902748,1.0,52
155,10,high_opac_v,Valid,52.0,155.0,0.141086789984949,0.0,52
156,10,low_opac_i,Invalid,53.0,156.0,0.0,1.0,53
157,10,high_opac_v,Valid,53.0,157.0,0.0,1.0,53
158,10,low_opac_v,Valid,53.0,158.0,0.2191016699621352,1.0,53
159,10,low_opac_v,Valid,54.0,159.0,0.1944880425680356,0.0,54
160,10,low_opac_i,Invalid,54.0,160.0,0.7899698675318807,1.0,54
161,10,high_opac_v,Valid,54.0,161.0,0.147837615190007,1.0,54
162,10,low_opac_i,Invalid,55.0,162.0,0.0,1.0,55
163,10,high_opac_v,Valid,55.0,163.0,0.1458698813006043,1.0,55
164,10,low_opac_v,Valid,55.0,164.0,0.0,1.0,55
165,10,high_opac_v,Valid,56.0,165.0,0.1439803623446367,1.0,56
166,10,low_opac_v,Valid,56.0,166.0,0.0,1.0,56
167,10,low_opac_i,Invalid,56.0,167.0,0.0,1.0,56
168,10,high_opac_v,Valid,57.0,168.0,0.1419769638608849,1.0,57
169,10,low_opac_i,Invalid,57.0,169.0,0.0,1.0,57
170,10,low_opac_v,Valid,57.0,170.0,0.2327920100890813,1.0,57
171,10,high_opac_v,Valid,58.0,171.0,0.14000122607403,1.0,58
172,10,low_opac_i,Invalid,58.0,172.0,0.7792211759480632,1.0,58
173,10,low_opac_v,Valid,58.0,173.0,0.2192021922571422,1.0,58
174,10,low_opac_i,Invalid,59.0,174.0,0.0,1.0,59
175,10,low_opac_v,Valid,59.0,175.0,0.0,1.0,59
176,10,high_opac_v,Valid,59.0,176.0,0.0,1.0,59
177,10,low_opac_v,Valid,60.0,177.0,0.0,1.0,60
178,10,high_opac_v,Valid,60.0,178.0,0.0,1.0,60
179,10,low_opac_i,Invalid,60.0,179.0,0.0,1.0,60
180,10,high_opac_v,Valid,61.0,180.0,0.0,1.0,61
181,10,low_opac_i,Invalid,61.0,181.0,0.0,1.0,61
182,10,low_opac_v,Valid,61.0,182.0,0.0,1.0,61
183,10,high_opac_v,Valid,62.0,183.0,0.0,1.0,62
184,10,low_opac_i,Invalid,62.0,184.0,0.7688556988402091,1.0,62
185,10,low_opac_v,Valid,62.0,185.0,0.1810359144027488,1.0,62
186,10,low_opac_v,Valid,63.0,186.0,0.0,1.0,63
187,10,high_opac_v,Valid,63.0,187.0,0.130682759146822,1.0,63
188,10,low_opac_i,Invalid,63.0,188.0,0.7662707621148439,1.0,63
189,10,high_opac_v,Valid,64.0,189.0,0.0,1.0,64
190,10,low_opac_v,Valid,64.0,190.0,0.1667908652573941,1.0,64
191,10,low_opac_i,Invalid,64.0,191.0,0.7637746726543082,1.0,64
192,10,low_opac_v,Valid,65.0,192.0,0.0,1.0,65
193,10,high_opac_v,Valid,65.0,193.0,0.127044495424961,1.0,65
194,10,low_opac_i,Invalid,65.0,194.0,0.7610845555286295,1.0,65
195,10,low_opac_v,Valid,66.0,195.0,0.1547185097638558,1.0,66
196,10,low_opac_i,Invalid,66.0,196.0,0.7583258487251212,1.0,66
197,10,high_opac_v,Valid,66.0,197.0,0.1253348864423775,1.0,66
198,10,low_opac_i,Invalid,67.0,198.0,0.7556006752957682,1.0,67
199,10,high_opac_v,Valid,67.0,199.0,0.1236773034069963,0.0,67
200,10,low_opac_v,Valid,67.0,200.0,0.1488130098270323,1.0,67
201,10,low_opac_v,Valid,68.0,201.0,0.14338380109257,1.0,68
202,10,high_opac_v,Valid,68.0,202.0,0.0,1.0,68
203,10,low_opac_i,Invalid,68.0,203.0,0.7529285336475178,1.0,68
204,10,low_opac_v,Valid,69.0,204.0,0.137870844019917,1.0,69
205,10,high_opac_v,Valid,69.0,205.0,0.0,0.0,69
206,10,low_opac_i,Invalid,69.0,206.0,0.0,1.0,69
207,10,high_opac_v,Valid,70.0,207.0,0.1354314146054703,1.0,70
208,10,low_opac_v,Valid,70.0,208.0,0.1327339362673554,1.0,70
209,10,low_opac_i,Invalid,70.0,209.0,0.0,0.0,70
210,10,high_opac_v,Valid,71.0,210.0,0.1340105455613696,1.0,71
211,10,low_opac_i,Invalid,71.0,211.0,0.7592496006575471,0.0,71
212,10,low_opac_v,Valid,71.0,212.0,0.127401391318874,1.0,71
213,10,high_opac_v,Valid,72.0,213.0,0.0,1.0,72
214,10,low_opac_v,Valid,72.0,214.0,0.0,1.0,72
215,10,low_opac_i,Invalid,72.0,215.0,0.7677743934159762,0.0,72
216,10,low_opac_i,Invalid,73.0,216.0,0.775429524139215,1.0,73
217,10,low_opac_v,Valid,73.0,217.0,0.0,1.0,73
218,10,high_opac_v,Valid,73.0,218.0,0.1309879494223969,1.0,73
219,10,high_opac_v,Valid,74.0,219.0,0.12947968189782,1.0,74
220,10,low_opac_i,Invalid,74.0,220.0,0.0,1.0,74
221,10,low_opac_v,Valid,74.0,221.0,0.0,1.0,74
222,10,low_opac_i,Invalid,75.0,222.0,0.7720713410561578,1.0,75
223,10,high_opac_v,Valid,75.0,223.0,0.0,1.0,75
224,10,low_opac_v,Valid,75.0,224.0,0.1064782050847769,0.0,75
0,11,high_opac_v,Valid,1.0,0.0,0.0,1.0,1
1,11,low_opac_i,Invalid,1.0,1.0,0.0,1.0,1
2,11,low_opac_v,Valid,1.0,2.0,0.4,0.0,1
3,11,low_opac_i,Invalid,2.0,3.0,0.0,1.0,2
4,11,high_opac_v,Valid,2.0,4.0,0.01,1.0,2
5,11,low_opac_v,Valid,2.0,5.0,1.0,0.0,2
6,11,high_opac_v,Valid,3.0,6.0,0.0,0.0,3
7,11,low_opac_i,Invalid,3.0,7.0,0.0,1.0,3
8,11,low_opac_v,Valid,3.0,8.0,0.0,1.0,3
9,11,low_opac_i,Invalid,4.0,9.0,0.01,1.0,4
10,11,low_opac_v,Valid,4.0,10.0,0.0,1.0,4
11,11,high_opac_v,Valid,4.0,11.0,0.0,0.0,4
12,11,low_opac_v,Valid,5.0,12.0,0.0,1.0,5
13,11,low_opac_i,Invalid,5.0,13.0,0.0,1.0,5
14,11,high_opac_v,Valid,5.0,14.0,0.0,0.0,5
15,11,high_opac_v,Valid,6.0,15.0,0.0,0.0,6
16,11,low_opac_i,Invalid,6.0,16.0,0.01,1.0,6
17,11,low_opac_v,Valid,6.0,17.0,0.0,1.0,6
18,11,high_opac_v,Valid,7.0,18.0,0.305342357,0.0,7
19,11,low_opac_v,Valid,7.0,19.0,0.0,1.0,7
20,11,low_opac_i,Invalid,7.0,20.0,0.0,1.0,7
21,11,low_opac_i,Invalid,8.0,21.0,0.01,1.0,8
22,11,low_opac_v,Valid,8.0,22.0,0.962479267,0.0,8
23,11,high_opac_v,Valid,8.0,23.0,0.0,0.0,8
24,11,high_opac_v,Valid,9.0,24.0,0.0,0.0,9
25,11,low_opac_v,Valid,9.0,25.0,1.0,0.0,9
26,11,low_opac_i,Invalid,9.0,26.0,0.0,0.0,9
27,11,high_opac_v,Valid,10.0,27.0,0.555403866,0.0,10
28,11,low_opac_i,Invalid,10.0,28.0,0.0,0.0,10
29,11,low_opac_v,Valid,10.0,29.0,1.0,0.0,10
30,11,low_opac_i,Invalid,11.0,30.0,0.0,0.0,11
31,11,high_opac_v,Valid,11.0,31.0,0.640732109,0.0,11
32,11,low_opac_v,Valid,11.0,32.0,1.0,0.0,11
33,11,low_opac_v,Valid,12.0,33.0,1.0,0.0,12
34,11,low_opac_i,Invalid,12.0,34.0,0.052873938,0.0,12
35,11,high_opac_v,Valid,12.0,35.0,0.723660332,0.0,12
36,11,low_opac_i,Invalid,13.0,36.0,0.082602199,0.0,13
37,11,high_opac_v,Valid,13.0,37.0,0.0,0.0,13
38,11,low_opac_v,Valid,13.0,38.0,1.0,0.0,13
39,11,low_opac_i,Invalid,14.0,39.0,0.110959079,0.0,14
40,11,high_opac_v,Valid,14.0,40.0,0.0,1.0,14
41,11,low_opac_v,Valid,14.0,41.0,0.0,0.0,14
42,11,low_opac_v,Valid,15.0,42.0,1.0,0.0,15
43,11,low_opac_i,Invalid,15.0,43.0,0.0,1.0,15
44,11,high_opac_v,Valid,15.0,44.0,0.0,0.0,15
45,11,low_opac_i,Invalid,16.0,45.0,0.0,0.0,16
46,11,high_opac_v,Valid,16.0,46.0,0.0,1.0,16
47,11,low_opac_v,Valid,16.0,47.0,1.0,0.0,16
48,11,high_opac_v,Valid,17.0,48.0,0.0,0.0,17
49,11,low_opac_v,Valid,17.0,49.0,1.0,0.0,17
50,11,low_opac_i,Invalid,17.0,50.0,0.156718057,0.0,17
51,11,low_opac_v,Valid,18.0,51.0,1.0,0.0,18
52,11,low_opac_i,Invalid,18.0,52.0,0.0,0.0,18
53,11,high_opac_v,Valid,18.0,53.0,0.961321553,0.0,18
54,11,high_opac_v,Valid,19.0,54.0,1.0,0.0,19
55,11,low_opac_v,Valid,19.0,55.0,1.0,0.0,19
56,11,low_opac_i,Invalid,19.0,56.0,0.0,1.0,19
57,11,low_opac_v,Valid,20.0,57.0,0.0,0.0,20
58,11,low_opac_i,Invalid,20.0,58.0,0.0,1.0,20
59,11,high_opac_v,Valid,20.0,59.0,0.0,0.0,20
60,11,low_opac_i,Invalid,21.0,60.0,0.194485358,0.0,21
61,11,low_opac_v,Valid,21.0,61.0,0.0,1.0,21
62,11,high_opac_v,Valid,21.0,62.0,1.0,0.0,21
63,11,low_opac_i,Invalid,22.0,63.0,0.0,0.0,22
64,11,low_opac_v,Valid,22.0,64.0,1.0,0.0,22
65,11,high_opac_v,Valid,22.0,65.0,0.0,0.0,22
66,11,low_opac_v,Valid,23.0,66.0,0.0,0.0,23
67,11,high_opac_v,Valid,23.0,67.0,1.0,0.0,23
68,11,low_opac_i,Invalid,23.0,68.0,0.0,1.0,23
69,11,high_opac_v,Valid,24.0,69.0,0.0,0.0,24
70,11,low_opac_i,Invalid,24.0,70.0,0.0,0.0,24
71,11,low_opac_v,Valid,24.0,71.0,1.0,0.0,24
72,11,low_opac_i,Invalid,25.0,72.0,0.0,0.0,25
73,11,high_opac_v,Valid,25.0,73.0,1.0,0.0,25
74,11,low_opac_v,Valid,25.0,74.0,0.0,1.0,25
75,11,low_opac_i,Invalid,26.0,75.0,0.265712725,0.0,26
76,11,low_opac_v,Valid,26.0,76.0,0.0,0.0,26
77,11,high_opac_v,Valid,26.0,77.0,0.0,0.0,26
78,11,low_opac_v,Valid,27.0,78.0,1.0,0.0,27
79,11,high_opac_v,Valid,27.0,79.0,1.0,0.0,27
80,11,low_opac_i,Invalid,27.0,80.0,0.284072384,0.0,27
81,11,high_opac_v,Valid,28.0,81.0,1.0,0.0,28
82,11,low_opac_v,Valid,28.0,82.0,1.0,0.0,28
83,11,low_opac_i,Invalid,28.0,83.0,0.301157766,0.0,28
84,11,low_opac_v,Valid,29.0,84.0,0.0,0.0,29
85,11,high_opac_v,Valid,29.0,85.0,0.0,0.0,29
86,11,low_opac_i,Invalid,29.0,86.0,0.0,0.0,29
87,11,low_opac_v,Valid,30.0,87.0,1.0,0.0,30
88,11,high_opac_v,Valid,30.0,88.0,0.0,0.0,30
89,11,low_opac_i,Invalid,30.0,89.0,0.0,0.0,30
90,11,high_opac_v,Valid,31.0,90.0,1.0,0.0,31
91,11,low_opac_v,Valid,31.0,91.0,0.0,0.0,31
92,11,low_opac_i,Invalid,31.0,92.0,0.0,0.0,31
93,11,low_opac_i,Invalid,32.0,93.0,0.0,0.0,32
94,11,low_opac_v,Valid,32.0,94.0,1.0,0.0,32
95,11,high_opac_v,Valid,32.0,95.0,0.0,0.0,32
96,11,low_opac_i,Invalid,33.0,96.0,0.386497618,0.0,33
97,11,high_opac_v,Valid,33.0,97.0,1.0,0.0,33
98,11,low_opac_v,Valid,33.0,98.0,0.0,0.0,33
99,11,high_opac_v,Valid,34.0,99.0,0.0,0.0,34
100,11,low_opac_v,Valid,34.0,100.0,0.0,1.0,34
101,11,low_opac_i,Invalid,34.0,101.0,0.403569946,0.0,34
102,11,low_opac_i,Invalid,35.0,102.0,0.0,0.0,35
103,11,low_opac_v,Valid,35.0,103.0,1.0,0.0,35
104,11,high_opac_v,Valid,35.0,104.0,1.0,0.0,35
105,11,low_opac_i,Invalid,36.0,105.0,0.43626636,0.0,36
106,11,low_opac_v,Valid,36.0,106.0,0.0,0.0,36
107,11,high_opac_v,Valid,36.0,107.0,1.0,0.0,36
108,11,low_opac_v,Valid,37.0,108.0,0.0,0.0,37
109,11,low_opac_i,Invalid,37.0,109.0,0.0,0.0,37
110,11,high_opac_v,Valid,37.0,110.0,1.0,0.0,37
111,11,low_opac_i,Invalid,38.0,111.0,0.469214024,0.0,38
112,11,high_opac_v,Valid,38.0,112.0,0.0,1.0,38
113,11,low_opac_v,Valid,38.0,113.0,1.0,0.0,38
114,11,high_opac_v,Valid,39.0,114.0,0.0,0.0,39
115,11,low_opac_i,Invalid,39.0,115.0,0.48571025,0.0,39
116,11,low_opac_v,Valid,39.0,116.0,1.0,0.0,39
117,11,low_opac_v,Valid,40.0,117.0,1.0,0.0,40
118,11,low_opac_i,Invalid,40.0,118.0,0.502583076,0.0,40
119,11,high_opac_v,Valid,40.0,119.0,0.0,1.0,40
120,11,low_opac_v,Valid,41.0,120.0,1.0,0.0,41
121,11,high_opac_v,Valid,41.0,121.0,1.0,0.0,41
122,11,low_opac_i,Invalid,41.0,122.0,0.0,0.0,41
123,11,high_opac_v,Valid,42.0,123.0,0.0,0.0,42
124,11,low_opac_i,Invalid,42.0,124.0,0.535137114,0.0,42
125,11,low_opac_v,Valid,42.0,125.0,1.0,0.0,42
126,11,low_opac_v,Valid,43.0,126.0,0.0,0.0,43
127,11,low_opac_i,Invalid,43.0,127.0,0.552028841,0.0,43
128,11,high_opac_v,Valid,43.0,128.0,1.0,0.0,43
129,11,low_opac_i,Invalid,44.0,129.0,0.568106365,0.0,44
130,11,low_opac_v,Valid,44.0,130.0,0.0,0.0,44
131,11,high_opac_v,Valid,44.0,131.0,1.0,0.0,44
132,11,low_opac_v,Valid,45.0,132.0,1.0,0.0,45
133,11,high_opac_v,Valid,45.0,133.0,1.0,0.0,45
134,11,low_opac_i,Invalid,45.0,134.0,0.584656196,0.0,45
135,11,low_opac_v,Valid,46.0,135.0,0.0,0.0,46
136,11,high_opac_v,Valid,46.0,136.0,1.0,0.0,46
137,11,low_opac_i,Invalid,46.0,137.0,0.600428691,0.0,46
138,11,low_opac_v,Valid,47.0,138.0,1.0,0.0,47
139,11,low_opac_i,Invalid,47.0,139.0,0.0,0.0,47
140,11,high_opac_v,Valid,47.0,140.0,0.0,0.0,47
141,11,low_opac_v,Valid,48.0,141.0,1.0,0.0,48
142,11,low_opac_i,Invalid,48.0,142.0,0.633364434,0.0,48
143,11,high_opac_v,Valid,48.0,143.0,0.0,1.0,48
144,11,low_opac_i,Invalid,49.0,144.0,0.64925617,0.0,49
145,11,high_opac_v,Valid,49.0,145.0,1.0,0.0,49
146,11,low_opac_v,Valid,49.0,146.0,0.0,0.0,49
147,11,low_opac_v,Valid,50.0,147.0,1.0,0.0,50
148,11,low_opac_i,Invalid,50.0,148.0,0.0,0.0,50
149,11,high_opac_v,Valid,50.0,149.0,1.0,0.0,50
150,11,high_opac_v,Valid,51.0,150.0,0.0,0.0,51
151,11,low_opac_i,Invalid,51.0,151.0,0.682443735,0.0,51
152,11,low_opac_v,Valid,51.0,152.0,0.0,0.0,51
153,11,high_opac_v,Valid,52.0,153.0,1.0,0.0,52
154,11,low_opac_i,Invalid,52.0,154.0,0.0,0.0,52
155,11,low_opac_v,Valid,52.0,155.0,1.0,0.0,52
156,11,low_opac_i,Invalid,53.0,156.0,0.0,0.0,53
157,11,low_opac_v,Valid,53.0,157.0,1.0,0.0,53
158,11,high_opac_v,Valid,53.0,158.0,0.0,0.0,53
159,11,low_opac_v,Valid,54.0,159.0,1.0,0.0,54
160,11,high_opac_v,Valid,54.0,160.0,0.0,0.0,54
161,11,low_opac_i,Invalid,54.0,161.0,0.730656383,0.0,54
162,11,low_opac_v,Valid,55.0,162.0,0.0,0.0,55
163,11,high_opac_v,Valid,55.0,163.0,0.0,0.0,55
164,11,low_opac_i,Invalid,55.0,164.0,0.0,0.0,55
165,11,high_opac_v,Valid,56.0,165.0,1.0,0.0,56
166,11,low_opac_i,Invalid,56.0,166.0,0.0,0.0,56
167,11,low_opac_v,Valid,56.0,167.0,0.0,0.0,56
168,11,low_opac_v,Valid,57.0,168.0,0.0,0.0,57
169,11,low_opac_i,Invalid,57.0,169.0,0.779378018,0.0,57
170,11,high_opac_v,Valid,57.0,170.0,1.0,0.0,57
171,11,high_opac_v,Valid,58.0,171.0,0.0,0.0,58
172,11,low_opac_v,Valid,58.0,172.0,1.0,0.0,58
173,11,low_opac_i,Invalid,58.0,173.0,0.795744157,0.0,58
174,11,low_opac_i,Invalid,59.0,174.0,0.812524252,0.0,59
175,11,high_opac_v,Valid,59.0,175.0,1.0,0.0,59
176,11,low_opac_v,Valid,59.0,176.0,1.0,0.0,59
177,11,low_opac_i,Invalid,60.0,177.0,0.828506054,0.0,60
178,11,high_opac_v,Valid,60.0,178.0,1.0,0.0,60
179,11,low_opac_v,Valid,60.0,179.0,1.0,0.0,60
180,11,high_opac_v,Valid,61.0,180.0,1.0,0.0,61
181,11,low_opac_v,Valid,61.0,181.0,1.0,0.0,61
182,11,low_opac_i,Invalid,61.0,182.0,0.0,0.0,61
183,11,low_opac_v,Valid,62.0,183.0,0.0,0.0,62
184,11,high_opac_v,Valid,62.0,184.0,0.0,0.0,62
185,11,low_opac_i,Invalid,62.0,185.0,0.860698909,0.0,62
186,11,low_opac_i,Invalid,63.0,186.0,0.0,0.0,63
187,11,high_opac_v,Valid,63.0,187.0,0.0,0.0,63
188,11,low_opac_v,Valid,63.0,188.0,1.0,0.0,63
189,11,high_opac_v,Valid,64.0,189.0,1.0,0.0,64
190,11,low_opac_i,Invalid,64.0,190.0,0.0,0.0,64
191,11,low_opac_v,Valid,64.0,191.0,1.0,0.0,64
192,11,low_opac_v,Valid,65.0,192.0,0.0,0.0,65
193,11,low_opac_i,Invalid,65.0,193.0,0.909397104,0.0,65
194,11,high_opac_v,Valid,65.0,194.0,1.0,0.0,65
195,11,low_opac_v,Valid,66.0,195.0,1.0,0.0,66
196,11,high_opac_v,Valid,66.0,196.0,1.0,0.0,66
197,11,low_opac_i,Invalid,66.0,197.0,0.0,0.0,66
198,11,high_opac_v,Valid,67.0,198.0,1.0,0.0,67
199,11,low_opac_i,Invalid,67.0,199.0,0.0,0.0,67
200,11,low_opac_v,Valid,67.0,200.0,1.0,0.0,67
201,11,low_opac_i,Invalid,68.0,201.0,0.958511199,0.0,68
202,11,high_opac_v,Valid,68.0,202.0,1.0,0.0,68
203,11,low_opac_v,Valid,68.0,203.0,0.0,0.0,68
204,11,low_opac_i,Invalid,69.0,204.0,0.974981545,0.0,69
205,11,high_opac_v,Valid,69.0,205.0,0.0,0.0,69
206,11,low_opac_v,Valid,69.0,206.0,1.0,0.0,69
207,11,high_opac_v,Valid,70.0,207.0,0.0,0.0,70
208,11,low_opac_i,Invalid,70.0,208.0,0.990697948,0.0,70
209,11,low_opac_v,Valid,70.0,209.0,1.0,0.0,70
210,11,low_opac_i,Invalid,71.0,210.0,1.0,0.0,71
211,11,high_opac_v,Valid,71.0,211.0,0.0,0.0,71
212,11,low_opac_v,Valid,71.0,212.0,1.0,0.0,71
213,11,high_opac_v,Valid,72.0,213.0,0.0,0.0,72
214,11,low_opac_v,Valid,72.0,214.0,1.0,0.0,72
215,11,low_opac_i,Invalid,72.0,215.0,0.0,0.0,72
216,11,high_opac_v,Valid,73.0,216.0,1.0,0.0,73
217,11,low_opac_v,Valid,73.0,217.0,0.0,0.0,73
218,11,low_opac_i,Invalid,73.0,218.0,1.0,0.0,73
219,11,high_opac_v,Valid,74.0,219.0,1.0,0.0,74
220,11,low_opac_i,Invalid,74.0,220.0,1.0,0.0,74
221,11,low_opac_v,Valid,74.0,221.0,0.0,0.0,74
222,11,low_opac_i,Invalid,75.0,222.0,0.0,0.0,75
223,11,low_opac_v,Valid,75.0,223.0,0.0,0.0,75
224,11,high_opac_v,Valid,75.0,224.0,1.0,0.0,75
0,12,low_opac_i,Invalid,1.0,0.0,0.4,1.0,1
1,12,high_opac_v,Valid,1.0,1.0,0.0,1.0,1
2,12,low_opac_v,Valid,1.0,2.0,0.4,1.0,1
3,12,low_opac_i,Invalid,2.0,3.0,0.0,1.0,2
4,12,high_opac_v,Valid,2.0,4.0,0.0,1.0,2
5,12,low_opac_v,Valid,2.0,5.0,0.01,1.0,2
6,12,high_opac_v,Valid,3.0,6.0,0.0,1.0,3
7,12,low_opac_v,Valid,3.0,7.0,0.0,1.0,3
8,12,low_opac_i,Invalid,3.0,8.0,0.0,1.0,3
9,12,high_opac_v,Valid,4.0,9.0,0.01,1.0,4
10,12,low_opac_i,Invalid,4.0,10.0,0.0,1.0,4
11,12,low_opac_v,Valid,4.0,11.0,0.0,0.0,4
12,12,low_opac_i,Invalid,5.0,12.0,0.0,0.0,5
13,12,high_opac_v,Valid,5.0,13.0,0.01,0.0,5
14,12,low_opac_v,Valid,5.0,14.0,0.0158587974367983,0.0,5
15,12,low_opac_v,Valid,6.0,15.0,0.137837827328097,1.0,6
16,12,low_opac_i,Invalid,6.0,16.0,0.0,0.0,6
17,12,high_opac_v,Valid,6.0,17.0,0.0,1.0,6
18,12,low_opac_i,Invalid,7.0,18.0,0.0921172275237778,1.0,7
19,12,low_opac_v,Valid,7.0,19.0,0.1140207489410681,1.0,7
20,12,high_opac_v,Valid,7.0,20.0,0.0,1.0,7
21,12,high_opac_v,Valid,8.0,21.0,0.01,1.0,8
22,12,low_opac_i,Invalid,8.0,22.0,0.0,0.0,8
23,12,low_opac_v,Valid,8.0,23.0,0.0951247462727335,0.0,8
24,12,high_opac_v,Valid,9.0,24.0,0.0,0.0,9
25,12,low_opac_i,Invalid,9.0,25.0,0.1245565408445035,0.0,9
26,12,low_opac_v,Valid,9.0,26.0,0.1495848970792541,1.0,9
27,12,high_opac_v,Valid,10.0,27.0,0.0,0.0,10
28,12,low_opac_i,Invalid,10.0,28.0,0.1704558836683386,1.0,10
29,12,low_opac_v,Valid,10.0,29.0,0.1365215928573111,0.0,10
30,12,low_opac_v,Valid,11.0,30.0,0.1785588085352756,0.0,11
31,12,low_opac_i,Invalid,11.0,31.0,0.1581160709919747,1.0,11
32,12,high_opac_v,Valid,11.0,32.0,0.0,1.0,11
33,12,high_opac_v,Valid,12.0,33.0,0.0,1.0,12
34,12,low_opac_i,Invalid,12.0,34.0,0.0,0.0,12
35,12,low_opac_v,Valid,12.0,35.0,0.2177068769323367,1.0,12
36,12,high_opac_v,Valid,13.0,36.0,0.0370611094722148,1.0,13
37,12,low_opac_v,Valid,13.0,37.0,0.0,0.0,13
38,12,low_opac_i,Invalid,13.0,38.0,0.0,0.0,13
39,12,high_opac_v,Valid,14.0,39.0,0.0,0.0,14
40,12,low_opac_v,Valid,14.0,40.0,0.0,1.0,14
41,12,low_opac_i,Invalid,14.0,41.0,0.0,1.0,14
42,12,high_opac_v,Valid,15.0,42.0,0.0,0.0,15
43,12,low_opac_v,Valid,15.0,43.0,0.233009912172503,1.0,15
44,12,low_opac_i,Invalid,15.0,44.0,0.0,0.0,15
45,12,low_opac_i,Invalid,16.0,45.0,0.2361811222976408,1.0,16
46,12,high_opac_v,Valid,16.0,46.0,0.0756438727538062,0.0,16
47,12,low_opac_v,Valid,16.0,47.0,0.2254429853218321,1.0,16
48,12,low_opac_v,Valid,17.0,48.0,0.2189708916022305,1.0,17
49,12,low_opac_i,Invalid,17.0,49.0,0.2292269808785246,1.0,17
50,12,high_opac_v,Valid,17.0,50.0,0.09736428080007,1.0,17
51,12,high_opac_v,Valid,18.0,51.0,0.0922731310669215,1.0,18
52,12,low_opac_i,Invalid,18.0,52.0,0.2227946856089772,1.0,18
53,12,low_opac_v,Valid,18.0,53.0,0.0,0.0,18
54,12,high_opac_v,Valid,19.0,54.0,0.0873166535730892,0.0,19
55,12,low_opac_i,Invalid,19.0,55.0,0.0,0.0,19
56,12,low_opac_v,Valid,19.0,56.0,0.0,0.0,19
57,12,high_opac_v,Valid,20.0,57.0,0.1056323184555413,0.0,20
58,12,low_opac_v,Valid,20.0,58.0,0.0,1.0,20
59,12,low_opac_i,Invalid,20.0,59.0,0.0,0.0,20
60,12,low_opac_v,Valid,21.0,60.0,0.0,1.0,21
61,12,low_opac_i,Invalid,21.0,61.0,0.0,0.0,21
62,12,high_opac_v,Valid,21.0,62.0,0.1237033683891691,1.0,21
63,12,low_opac_i,Invalid,22.0,63.0,0.0,0.0,22
64,12,low_opac_v,Valid,22.0,64.0,0.0,0.0,22
65,12,high_opac_v,Valid,22.0,65.0,0.1192290087606406,1.0,22
66,12,high_opac_v,Valid,23.0,66.0,0.0,1.0,23
67,12,low_opac_i,Invalid,23.0,67.0,0.2993909731453507,1.0,23
68,12,low_opac_v,Valid,23.0,68.0,0.0,1.0,23
69,12,low_opac_v,Valid,24.0,69.0,0.0,0.0,24
70,12,low_opac_i,Invalid,24.0,70.0,0.2945847696583287,0.0,24
71,12,high_opac_v,Valid,24.0,71.0,0.0,1.0,24
72,12,high_opac_v,Valid,25.0,72.0,0.1078345183370238,1.0,25
73,12,low_opac_v,Valid,25.0,73.0,0.2757979411505935,1.0,25
74,12,low_opac_i,Invalid,25.0,74.0,0.3120140338716879,1.0,25
75,12,low_opac_v,Valid,26.0,75.0,0.2719555367356143,1.0,26
76,12,low_opac_i,Invalid,26.0,76.0,0.3074924161192659,1.0,26
77,12,high_opac_v,Valid,26.0,77.0,0.0,1.0,26
78,12,low_opac_i,Invalid,27.0,78.0,0.3034428987792631,1.0,27
79,12,high_opac_v,Valid,27.0,79.0,0.1010345396258032,1.0,27
80,12,low_opac_v,Valid,27.0,80.0,0.2680873534628456,1.0,27
81,12,high_opac_v,Valid,28.0,81.0,0.0978212008798389,1.0,28
82,12,low_opac_i,Invalid,28.0,82.0,0.0,1.0,28
83,12,low_opac_v,Valid,28.0,83.0,0.0,1.0,28
84,12,low_opac_v,Valid,29.0,84.0,0.2610175649751658,1.0,29
85,12,low_opac_i,Invalid,29.0,85.0,0.0,1.0,29
86,12,high_opac_v,Valid,29.0,86.0,0.0,0.0,29
87,12,high_opac_v,Valid,30.0,87.0,0.0,1.0,30
88,12,low_opac_i,Invalid,30.0,88.0,0.0,1.0,30
89,12,low_opac_v,Valid,30.0,89.0,0.2576919342280492,1.0,30
90,12,high_opac_v,Valid,31.0,90.0,0.1035048773370236,1.0,31
91,12,low_opac_i,Invalid,31.0,91.0,0.0,0.0,31
92,12,low_opac_v,Valid,31.0,92.0,0.2546332004113673,1.0,31
93,12,low_opac_i,Invalid,32.0,93.0,0.0,0.0,32
94,12,low_opac_v,Valid,32.0,94.0,0.0,0.0,32
95,12,high_opac_v,Valid,32.0,95.0,0.1006924464477782,1.0,32
96,12,low_opac_v,Valid,33.0,96.0,0.2630879211360115,1.0,33
97,12,high_opac_v,Valid,33.0,97.0,0.098020382239697,1.0,33
98,12,low_opac_i,Invalid,33.0,98.0,0.3143469345433939,1.0,33
99,12,low_opac_i,Invalid,34.0,99.0,0.3111853607196287,1.0,34
100,12,high_opac_v,Valid,34.0,100.0,0.0,0.0,34
101,12,low_opac_v,Valid,34.0,101.0,0.0,1.0,34
102,12,low_opac_i,Invalid,35.0,102.0,0.0,0.0,35
103,12,low_opac_v,Valid,35.0,103.0,0.2574668569660989,1.0,35
104,12,high_opac_v,Valid,35.0,104.0,0.0,1.0,35
105,12,low_opac_i,Invalid,36.0,105.0,0.3197108265376172,1.0,36
106,12,high_opac_v,Valid,36.0,106.0,0.1035416252828782,1.0,36
107,12,low_opac_v,Valid,36.0,107.0,0.2549287231540466,1.0,36
108,12,low_opac_v,Valid,37.0,108.0,0.2523116237981802,1.0,37
109,12,low_opac_i,Invalid,37.0,109.0,0.0,0.0,37
110,12,high_opac_v,Valid,37.0,110.0,0.0,1.0,37
111,12,high_opac_v,Valid,38.0,111.0,0.0,1.0,38
112,12,low_opac_i,Invalid,38.0,112.0,0.0,0.0,38
113,12,low_opac_v,Valid,38.0,113.0,0.2497852633778401,1.0,38
114,12,low_opac_i,Invalid,39.0,114.0,0.0,0.0,39
115,12,low_opac_v,Valid,39.0,115.0,0.2473969957042582,1.0,39
116,12,high_opac_v,Valid,39.0,116.0,0.0966829227439473,1.0,39
117,12,high_opac_v,Valid,40.0,117.0,0.0946364637851611,0.0,40
118,12,low_opac_v,Valid,40.0,118.0,0.0,1.0,40
119,12,low_opac_i,Invalid,40.0,119.0,0.0,0.0,40
120,12,high_opac_v,Valid,41.0,120.0,0.1028226940187136,1.0,41
121,12,low_opac_v,Valid,41.0,121.0,0.0,1.0,41
122,12,low_opac_i,Invalid,41.0,122.0,0.0,0.0,41
123,12,low_opac_i,Invalid,42.0,123.0,0.0,0.0,42
124,12,high_opac_v,Valid,42.0,124.0,0.0,1.0,42
125,12,low_opac_v,Valid,42.0,125.0,0.0,1.0,42
126,12,high_opac_v,Valid,43.0,126.0,0.0,1.0,43
127,12,low_opac_i,Invalid,43.0,127.0,0.3795686011190506,1.0,43
128,12,low_opac_v,Valid,43.0,128.0,0.2385762926075545,1.0,43
129,12,low_opac_i,Invalid,44.0,129.0,0.0,0.0,44
130,12,high_opac_v,Valid,44.0,130.0,0.0968366696898966,0.0,44
131,12,low_opac_v,Valid,44.0,131.0,0.0,0.0,44
132,12,low_opac_v,Valid,45.0,132.0,0.2450228107290095,1.0,45
133,12,low_opac_i,Invalid,45.0,133.0,0.0,1.0,45
134,12,high_opac_v,Valid,45.0,134.0,0.104681297417667,1.0,45
135,12,high_opac_v,Valid,46.0,135.0,0.10280297315448,0.0,46
136,12,low_opac_v,Valid,46.0,136.0,0.0,1.0,46
137,12,low_opac_i,Invalid,46.0,137.0,0.3846729749066858,1.0,46
138,12,low_opac_v,Valid,47.0,138.0,0.0,1.0,47
139,12,high_opac_v,Valid,47.0,139.0,0.1099207420773659,1.0,47
140,12,low_opac_i,Invalid,47.0,140.0,0.3823434887897461,1.0,47
141,12,low_opac_v,Valid,48.0,141.0,0.0,1.0,48
142,12,low_opac_i,Invalid,48.0,142.0,0.3800896397701702,1.0,48
143,12,high_opac_v,Valid,48.0,143.0,0.1081534612396707,1.0,48
144,12,high_opac_v,Valid,49.0,144.0,0.0,1.0,49
145,12,low_opac_v,Valid,49.0,145.0,0.2374175965050366,1.0,49
146,12,low_opac_i,Invalid,49.0,146.0,0.0,0.0,49
147,12,high_opac_v,Valid,50.0,147.0,0.1048854600992649,1.0,50
148,12,low_opac_v,Valid,50.0,148.0,0.0,1.0,50
149,12,low_opac_i,Invalid,50.0,149.0,0.0,0.0,50
150,12,low_opac_i,Invalid,51.0,150.0,0.0,0.0,51
151,12,high_opac_v,Valid,51.0,151.0,0.103205772452244,1.0,51
152,12,low_opac_v,Valid,51.0,152.0,0.2339960456710085,1.0,51
153,12,low_opac_i,Invalid,52.0,153.0,0.4029152524766913,1.0,52
154,12,low_opac_v,Valid,52.0,154.0,0.2322212452056934,0.0,52
155,12,high_opac_v,Valid,52.0,155.0,0.1015639582468326,0.0,52
156,12,low_opac_i,Invalid,53.0,156.0,0.4008643613205863,1.0,53
157,12,low_opac_v,Valid,53.0,157.0,0.0,1.0,53
158,12,high_opac_v,Valid,53.0,158.0,0.1078660212078618,1.0,53
159,12,low_opac_v,Valid,54.0,159.0,0.2373618760928806,1.0,54
160,12,low_opac_i,Invalid,54.0,160.0,0.0,0.0,54
161,12,high_opac_v,Valid,54.0,161.0,0.0,1.0,54
162,12,low_opac_v,Valid,55.0,162.0,0.2357999847183589,1.0,55
163,12,high_opac_v,Valid,55.0,163.0,0.0,1.0,55
164,12,low_opac_i,Invalid,55.0,164.0,0.0,0.0,55
165,12,low_opac_i,Invalid,56.0,165.0,0.4144772065925581,1.0,56
166,12,low_opac_v,Valid,56.0,166.0,0.2342955913796215,1.0,56
167,12,high_opac_v,Valid,56.0,167.0,0.0,1.0,56
168,12,low_opac_i,Invalid,57.0,168.0,0.4125767537282408,1.0,57
169,12,low_opac_v,Valid,57.0,169.0,0.2327007248213706,1.0,57
170,12,high_opac_v,Valid,57.0,170.0,0.101926875923423,0.0,57
171,12,low_opac_v,Valid,58.0,171.0,0.0,1.0,58
172,12,low_opac_i,Invalid,58.0,172.0,0.4107246417675113,1.0,58
173,12,high_opac_v,Valid,58.0,173.0,0.1076347029884257,1.0,58
174,12,low_opac_i,Invalid,59.0,174.0,0.0,0.0,59
175,12,low_opac_v,Valid,59.0,175.0,0.229572784314796,1.0,59
176,12,high_opac_v,Valid,59.0,176.0,0.0,0.0,59
177,12,low_opac_i,Invalid,60.0,177.0,0.4159933769438047,1.0,60
178,12,high_opac_v,Valid,60.0,178.0,0.0,1.0,60
179,12,low_opac_v,Valid,60.0,179.0,0.2280724170963297,1.0,60
180,12,low_opac_v,Valid,61.0,180.0,0.0,1.0,61
181,12,low_opac_i,Invalid,61.0,181.0,0.0,0.0,61
182,12,high_opac_v,Valid,61.0,182.0,0.0,0.0,61
183,12,low_opac_v,Valid,62.0,183.0,0.0,1.0,62
184,12,low_opac_i,Invalid,62.0,184.0,0.0,0.0,62
185,12,high_opac_v,Valid,62.0,185.0,0.0,1.0,62
186,12,low_opac_i,Invalid,63.0,186.0,0.0,0.0,63
187,12,low_opac_v,Valid,63.0,187.0,0.2239317539540212,1.0,63
188,12,high_opac_v,Valid,63.0,188.0,0.1148960248905577,1.0,63
189,12,high_opac_v,Valid,64.0,189.0,0.1135833795959221,1.0,64
190,12,low_opac_i,Invalid,64.0,190.0,0.0,1.0,64
191,12,low_opac_v,Valid,64.0,191.0,0.0,1.0,64
192,12,low_opac_i,Invalid,65.0,192.0,0.432756249441716,0.0,65
193,12,high_opac_v,Valid,65.0,193.0,0.0,1.0,65
194,12,low_opac_v,Valid,65.0,194.0,0.2210969520173466,1.0,65
195,12,low_opac_v,Valid,66.0,195.0,0.2196890697050958,1.0,66
196,12,low_opac_i,Invalid,66.0,196.0,0.4390458959835813,1.0,66
197,12,high_opac_v,Valid,66.0,197.0,0.0,1.0,66
198,12,low_opac_v,Valid,67.0,198.0,0.0,0.0,67
199,12,high_opac_v,Valid,67.0,199.0,0.1097444654690593,1.0,67
200,12,low_opac_i,Invalid,67.0,200.0,0.0,0.0,67
201,12,high_opac_v,Valid,68.0,201.0,0.0,1.0,68
202,12,low_opac_v,Valid,68.0,202.0,0.0,0.0,68
203,12,low_opac_i,Invalid,68.0,203.0,0.0,0.0,68
204,12,high_opac_v,Valid,69.0,204.0,0.0,1.0,69
205,12,low_opac_v,Valid,69.0,205.0,0.2289323445873104,1.0,69
206,12,low_opac_i,Invalid,69.0,206.0,0.0,0.0,69
207,12,low_opac_i,Invalid,70.0,207.0,0.0,0.0,70
208,12,high_opac_v,Valid,70.0,208.0,0.1062160131702493,1.0,70
209,12,low_opac_v,Valid,70.0,209.0,0.2276869787592765,1.0,70
210,12,high_opac_v,Valid,71.0,210.0,0.1051249246344578,1.0,71
211,12,low_opac_v,Valid,71.0,211.0,0.2264921365076188,1.0,71
212,12,low_opac_i,Invalid,71.0,212.0,0.0,0.0,71
213,12,high_opac_v,Valid,72.0,213.0,0.1040610784897102,0.0,72
214,12,low_opac_i,Invalid,72.0,214.0,0.468587847864622,1.0,72
215,12,low_opac_v,Valid,72.0,215.0,0.2253370947389638,1.0,72
216,12,low_opac_i,Invalid,73.0,216.0,0.0,0.0,73
217,12,high_opac_v,Valid,73.0,217.0,0.0,0.0,73
218,12,low_opac_v,Valid,73.0,218.0,0.0,1.0,73
219,12,low_opac_i,Invalid,74.0,219.0,0.0,1.0,74
220,12,low_opac_v,Valid,74.0,220.0,0.0,1.0,74
221,12,high_opac_v,Valid,74.0,221.0,0.1131589799982479,1.0,74
222,12,high_opac_v,Valid,75.0,222.0,0.1120522350937498,1.0,75
223,12,low_opac_v,Valid,75.0,223.0,0.2218179263458246,1.0,75
224,12,low_opac_i,Invalid,75.0,224.0,0.4718151346562129,1.0,75
0,13,low_opac_v,Valid,1.0,0.0,0.0,0.0,1
1,13,low_opac_i,Invalid,1.0,1.0,0.4,1.0,1
2,13,high_opac_v,Valid,1.0,2.0,0.01,1.0,1
3,13,low_opac_i,Invalid,2.0,3.0,0.0,0.0,2
4,13,low_opac_v,Valid,2.0,4.0,0.0,0.0,2
5,13,high_opac_v,Valid,2.0,5.0,0.01,1.0,2
6,13,high_opac_v,Valid,3.0,6.0,0.01,1.0,3
7,13,low_opac_v,Valid,3.0,7.0,0.0,0.0,3
8,13,low_opac_i,Invalid,3.0,8.0,0.3144098688205103,1.0,3
9,13,high_opac_v,Valid,4.0,9.0,0.01,0.0,4
10,13,low_opac_i,Invalid,4.0,10.0,0.2356115953941183,1.0,4
11,13,low_opac_v,Valid,4.0,11.0,1.0,1.0,4
12,13,low_opac_v,Valid,5.0,12.0,0.0,0.0,5
13,13,low_opac_i,Invalid,5.0,13.0,0.1841780991895161,1.0,5
14,13,high_opac_v,Valid,5.0,14.0,0.0,1.0,5
15,13,high_opac_v,Valid,6.0,15.0,0.0,0.0,6
16,13,low_opac_v,Valid,6.0,16.0,1.0,1.0,6
17,13,low_opac_i,Invalid,6.0,17.0,0.0,0.0,6
18,13,low_opac_v,Valid,7.0,18.0,0.0,1.0,7
19,13,high_opac_v,Valid,7.0,19.0,0.0,1.0,7
20,13,low_opac_i,Invalid,7.0,20.0,0.0,1.0,7
21,13,low_opac_i,Invalid,8.0,21.0,0.0,0.0,8
22,13,low_opac_v,Valid,8.0,22.0,0.0,0.0,8
23,13,high_opac_v,Valid,8.0,23.0,0.0482667454643191,1.0,8
24,13,high_opac_v,Valid,9.0,24.0,0.0,0.0,9
25,13,low_opac_v,Valid,9.0,25.0,1.0,1.0,9
26,13,low_opac_i,Invalid,9.0,26.0,0.0,1.0,9
27,13,high_opac_v,Valid,10.0,27.0,0.0780825947835643,1.0,10
28,13,low_opac_i,Invalid,10.0,28.0,0.2603958028217646,1.0,10
29,13,low_opac_v,Valid,10.0,29.0,0.0,0.0,10
30,13,high_opac_v,Valid,11.0,30.0,0.0,0.0,11
31,13,low_opac_v,Valid,11.0,31.0,0.0,0.0,11
32,13,low_opac_i,Invalid,11.0,32.0,0.2490748934103519,1.0,11
33,13,high_opac_v,Valid,12.0,33.0,0.0,0.0,12
34,13,low_opac_v,Valid,12.0,34.0,1.0,1.0,12
35,13,low_opac_i,Invalid,12.0,35.0,0.0,0.0,12
36,13,low_opac_v,Valid,13.0,36.0,0.0,1.0,13
37,13,low_opac_i,Invalid,13.0,37.0,0.2728607412009295,1.0,13
38,13,high_opac_v,Valid,13.0,38.0,0.1292233679211866,1.0,13
39,13,low_opac_i,Invalid,14.0,39.0,0.2647829435810306,1.0,14
40,13,low_opac_v,Valid,14.0,40.0,1.0,1.0,14
41,13,high_opac_v,Valid,14.0,41.0,0.1219508540391057,1.0,14
42,13,high_opac_v,Valid,15.0,42.0,0.1152345705835983,1.0,15
43,13,low_opac_v,Valid,15.0,43.0,1.0,1.0,15
44,13,low_opac_i,Invalid,15.0,44.0,0.2572939242511697,1.0,15
45,13,high_opac_v,Valid,16.0,45.0,0.0,1.0,16
46,13,low_opac_i,Invalid,16.0,46.0,0.0,0.0,16
47,13,low_opac_v,Valid,16.0,47.0,0.0,1.0,16
48,13,high_opac_v,Valid,17.0,48.0,0.1038826945491322,1.0,17
49,13,low_opac_i,Invalid,17.0,49.0,0.0,1.0,17
50,13,low_opac_v,Valid,17.0,50.0,1.0,1.0,17
51,13,low_opac_v,Valid,18.0,51.0,0.0,0.0,18
52,13,low_opac_i,Invalid,18.0,52.0,0.268598123045904,1.0,18
53,13,high_opac_v,Valid,18.0,53.0,0.0985172608079577,1.0,18
54,13,low_opac_v,Valid,19.0,54.0,0.0,1.0,19
55,13,low_opac_i,Invalid,19.0,55.0,0.0,0.0,19
56,13,high_opac_v,Valid,19.0,56.0,0.0,0.0,19
57,13,low_opac_v,Valid,20.0,57.0,1.0,1.0,20
58,13,high_opac_v,Valid,20.0,58.0,0.0,1.0,20
59,13,low_opac_i,Invalid,20.0,59.0,0.0,1.0,20
60,13,low_opac_i,Invalid,21.0,60.0,0.2776270436234707,1.0,21
61,13,low_opac_v,Valid,21.0,61.0,1.0,1.0,21
62,13,high_opac_v,Valid,21.0,62.0,0.1069087642285379,1.0,21
63,13,low_opac_v,Valid,22.0,63.0,0.0,1.0,22
64,13,low_opac_i,Invalid,22.0,64.0,0.0,0.0,22
65,13,high_opac_v,Valid,22.0,65.0,0.1029291443576167,1.0,22
66,13,high_opac_v,Valid,23.0,66.0,0.0,1.0,23
67,13,low_opac_i,Invalid,23.0,67.0,0.0,0.0,23
68,13,low_opac_v,Valid,23.0,68.0,0.0,1.0,23
69,13,low_opac_i,Invalid,24.0,69.0,0.3051953510220735,1.0,24
70,13,high_opac_v,Valid,24.0,70.0,0.0952481065143216,0.0,24
71,13,low_opac_v,Valid,24.0,71.0,0.0,1.0,24
72,13,low_opac_i,Invalid,25.0,72.0,0.0,1.0,25
73,13,low_opac_v,Valid,25.0,73.0,0.0,0.0,25
74,13,high_opac_v,Valid,25.0,74.0,0.1098606595601845,1.0,25
75,13,low_opac_v,Valid,26.0,75.0,0.0,0.0,26
76,13,low_opac_i,Invalid,26.0,76.0,0.2978754049922359,1.0,26
77,13,high_opac_v,Valid,26.0,77.0,0.0,1.0,26
78,13,low_opac_v,Valid,27.0,78.0,0.0,1.0,27
79,13,low_opac_i,Invalid,27.0,79.0,0.2945108969178145,1.0,27
80,13,high_opac_v,Valid,27.0,80.0,0.1033434864845258,1.0,27
81,13,low_opac_i,Invalid,28.0,81.0,0.0,1.0,28
82,13,high_opac_v,Valid,28.0,82.0,0.0,0.0,28
83,13,low_opac_v,Valid,28.0,83.0,0.0,1.0,28
84,13,low_opac_i,Invalid,29.0,84.0,0.2878752115224992,1.0,29
85,13,low_opac_v,Valid,29.0,85.0,1.0,1.0,29
86,13,high_opac_v,Valid,29.0,86.0,0.0,0.0,29
87,13,low_opac_v,Valid,30.0,87.0,1.0,1.0,30
88,13,high_opac_v,Valid,30.0,88.0,0.1236611373557242,1.0,30
89,13,low_opac_i,Invalid,30.0,89.0,0.0,0.0,30
90,13,high_opac_v,Valid,31.0,90.0,0.1207652101545441,1.0,31
91,13,low_opac_v,Valid,31.0,91.0,0.0,1.0,31
92,13,low_opac_i,Invalid,31.0,92.0,0.2962906350156875,1.0,31
93,13,high_opac_v,Valid,32.0,93.0,0.0,1.0,32
94,13,low_opac_v,Valid,32.0,94.0,1.0,1.0,32
95,13,low_opac_i,Invalid,32.0,95.0,0.2935791316298966,1.0,32
96,13,low_opac_i,Invalid,33.0,96.0,0.2907691245789341,1.0,33
97,13,low_opac_v,Valid,33.0,97.0,0.0,1.0,33
98,13,high_opac_v,Valid,33.0,98.0,0.0,1.0,33
99,13,low_opac_v,Valid,34.0,99.0,1.0,1.0,34
100,13,low_opac_i,Invalid,34.0,100.0,0.2880911579839399,1.0,34
101,13,high_opac_v,Valid,34.0,101.0,0.0,1.0,34
102,13,low_opac_i,Invalid,35.0,102.0,0.0,0.0,35
103,13,low_opac_v,Valid,35.0,103.0,0.0,1.0,35
104,13,high_opac_v,Valid,35.0,104.0,0.0,1.0,35
105,13,low_opac_i,Invalid,36.0,105.0,0.2959054709990957,1.0,36
106,13,low_opac_v,Valid,36.0,106.0,1.0,1.0,36
107,13,high_opac_v,Valid,36.0,107.0,0.1081486209669252,1.0,36
108,13,low_opac_i,Invalid,37.0,108.0,0.2936233819876837,1.0,37
109,13,low_opac_v,Valid,37.0,109.0,1.0,1.0,37
110,13,high_opac_v,Valid,37.0,110.0,0.0,1.0,37
111,13,high_opac_v,Valid,38.0,111.0,0.1037639923034171,0.0,38
112,13,low_opac_v,Valid,38.0,112.0,1.0,1.0,38
113,13,low_opac_i,Invalid,38.0,113.0,0.2912370053617673,1.0,38
114,13,high_opac_v,Valid,39.0,114.0,0.0,1.0,39
115,13,low_opac_i,Invalid,39.0,115.0,0.0,1.0,39
116,13,low_opac_v,Valid,39.0,116.0,0.0,1.0,39
117,13,low_opac_i,Invalid,40.0,117.0,0.2867550174320411,1.0,40
118,13,low_opac_v,Valid,40.0,118.0,1.0,1.0,40
119,13,high_opac_v,Valid,40.0,119.0,0.0,1.0,40
120,13,high_opac_v,Valid,41.0,120.0,0.1081223986217709,1.0,41
121,13,low_opac_i,Invalid,41.0,121.0,0.2847014812615252,1.0,41
122,13,low_opac_v,Valid,41.0,122.0,0.0,1.0,41
123,13,high_opac_v,Valid,42.0,123.0,0.0,1.0,42
124,13,low_opac_i,Invalid,42.0,124.0,0.2825571145630939,1.0,42
125,13,low_opac_v,Valid,42.0,125.0,0.0,1.0,42
126,13,low_opac_v,Valid,43.0,126.0,1.0,1.0,43
127,13,high_opac_v,Valid,43.0,127.0,0.1042929223269493,1.0,43
128,13,low_opac_i,Invalid,43.0,128.0,0.2804686949158184,1.0,43
129,13,high_opac_v,Valid,44.0,129.0,0.0,1.0,44
130,13,low_opac_i,Invalid,44.0,130.0,0.2784433467984989,1.0,44
131,13,low_opac_v,Valid,44.0,131.0,0.0,1.0,44
132,13,low_opac_i,Invalid,45.0,132.0,0.0,0.0,45
133,13,low_opac_v,Valid,45.0,133.0,1.0,1.0,45
134,13,high_opac_v,Valid,45.0,134.0,0.100408475373584,1.0,45
135,13,low_opac_i,Invalid,46.0,135.0,0.2844778670717751,1.0,46
136,13,high_opac_v,Valid,46.0,136.0,0.0985405220907299,1.0,46
137,13,low_opac_v,Valid,46.0,137.0,1.0,1.0,46
138,13,low_opac_i,Invalid,47.0,138.0,0.2825932329892073,1.0,47
139,13,high_opac_v,Valid,47.0,139.0,0.0,1.0,47
140,13,low_opac_v,Valid,47.0,140.0,1.0,1.0,47
141,13,low_opac_i,Invalid,48.0,141.0,0.0,1.0,48
142,13,low_opac_v,Valid,48.0,142.0,1.0,1.0,48
143,13,high_opac_v,Valid,48.0,143.0,0.0,1.0,48
144,13,low_opac_i,Invalid,49.0,144.0,0.2789412628066688,1.0,49
145,13,low_opac_v,Valid,49.0,145.0,0.9996776173188944,1.0,49
146,13,high_opac_v,Valid,49.0,146.0,0.0934690244083746,0.0,49
147,13,high_opac_v,Valid,50.0,147.0,0.1001724897735563,0.0,50
148,13,low_opac_i,Invalid,50.0,148.0,0.0,1.0,50
149,13,low_opac_v,Valid,50.0,149.0,0.9980099685433336,1.0,50
150,13,high_opac_v,Valid,51.0,150.0,0.1068243425669909,1.0,51
151,13,low_opac_v,Valid,51.0,151.0,0.0,1.0,51
152,13,low_opac_i,Invalid,51.0,152.0,0.0,1.0,51
153,13,high_opac_v,Valid,52.0,153.0,0.1052952722583231,1.0,52
154,13,low_opac_v,Valid,52.0,154.0,0.0,1.0,52
155,13,low_opac_i,Invalid,52.0,155.0,0.2740238012655169,1.0,52
156,13,high_opac_v,Valid,53.0,156.0,0.1038187341927469,1.0,53
157,13,low_opac_v,Valid,53.0,157.0,0.0,1.0,53
158,13,low_opac_i,Invalid,53.0,158.0,0.0,0.0,53
159,13,high_opac_v,Valid,54.0,159.0,0.1022489956324303,0.0,54
160,13,low_opac_v,Valid,54.0,160.0,0.9917292651895468,1.0,54
161,13,low_opac_i,Invalid,54.0,161.0,0.0,0.0,54
162,13,high_opac_v,Valid,55.0,162.0,0.1082598639437135,1.0,55
163,13,low_opac_i,Invalid,55.0,163.0,0.0,0.0,55
164,13,low_opac_v,Valid,55.0,164.0,0.9901712587954532,1.0,55
165,13,low_opac_i,Invalid,56.0,165.0,0.0,1.0,56
166,13,low_opac_v,Valid,56.0,166.0,0.0,1.0,56
167,13,high_opac_v,Valid,56.0,167.0,0.0,1.0,56
168,13,low_opac_i,Invalid,57.0,168.0,0.0,1.0,57
169,13,low_opac_v,Valid,57.0,169.0,0.9871895677395736,1.0,57
170,13,high_opac_v,Valid,57.0,170.0,0.1054296615536056,1.0,57
171,13,low_opac_v,Valid,58.0,171.0,0.0,1.0,58
172,13,low_opac_i,Invalid,58.0,172.0,0.0,1.0,58
173,13,high_opac_v,Valid,58.0,173.0,0.1040888993001197,0.0,58
174,13,high_opac_v,Valid,59.0,174.0,0.0,1.0,59
175,13,low_opac_v,Valid,59.0,175.0,0.0,1.0,59
176,13,low_opac_i,Invalid,59.0,176.0,0.0,1.0,59
177,13,high_opac_v,Valid,60.0,177.0,0.1082423939603551,1.0,60
178,13,low_opac_v,Valid,60.0,178.0,0.9830142078526696,1.0,60
179,13,low_opac_i,Invalid,60.0,179.0,0.2858397329412768,1.0,60
180,13,low_opac_v,Valid,61.0,180.0,0.981600376422472,1.0,61
181,13,low_opac_i,Invalid,61.0,181.0,0.2845364312644879,1.0,61
182,13,high_opac_v,Valid,61.0,182.0,0.1069217965010563,1.0,61
183,13,high_opac_v,Valid,62.0,183.0,0.0,1.0,62
184,13,low_opac_i,Invalid,62.0,184.0,0.2831524608894024,1.0,62
185,13,low_opac_v,Valid,62.0,185.0,0.0,1.0,62
186,13,low_opac_i,Invalid,63.0,186.0,0.0,0.0,63
187,13,low_opac_v,Valid,63.0,187.0,0.0,1.0,63
188,13,high_opac_v,Valid,63.0,188.0,0.0,1.0,63
189,13,low_opac_i,Invalid,64.0,189.0,0.2870439474359775,1.0,64
190,13,low_opac_v,Valid,64.0,190.0,0.9774716820898128,1.0,64
191,13,high_opac_v,Valid,64.0,191.0,0.0,1.0,64
192,13,low_opac_v,Valid,65.0,192.0,0.0,1.0,65
193,13,high_opac_v,Valid,65.0,193.0,0.1018257789819228,1.0,65
194,13,low_opac_i,Invalid,65.0,194.0,0.2858104988666061,1.0,65
195,13,low_opac_i,Invalid,66.0,195.0,0.284615699737575,1.0,66
196,13,high_opac_v,Valid,66.0,196.0,0.0,1.0,66
197,13,low_opac_v,Valid,66.0,197.0,0.9749598501719456,1.0,66
198,13,low_opac_v,Valid,67.0,198.0,0.0,1.0,67
199,13,low_opac_i,Invalid,67.0,199.0,0.283344732522062,1.0,67
200,13,high_opac_v,Valid,67.0,200.0,0.0992682034769274,1.0,67
201,13,low_opac_i,Invalid,68.0,201.0,0.2820927066440353,1.0,68
202,13,low_opac_v,Valid,68.0,202.0,0.0,1.0,68
203,13,high_opac_v,Valid,68.0,203.0,0.098048616952869,0.0,68
204,13,low_opac_v,Valid,69.0,204.0,0.9710650797010904,1.0,69
205,13,low_opac_i,Invalid,69.0,205.0,0.2808486232060546,0.0,69
206,13,high_opac_v,Valid,69.0,206.0,0.0,1.0,69
207,13,low_opac_v,Valid,70.0,207.0,0.96977392533353,1.0,70
208,13,high_opac_v,Valid,70.0,208.0,0.0,1.0,70
209,13,low_opac_i,Invalid,70.0,209.0,0.285687783396003,1.0,70
210,13,high_opac_v,Valid,71.0,210.0,0.0,1.0,71
211,13,low_opac_v,Valid,71.0,211.0,0.9685074169265412,1.0,71
212,13,low_opac_i,Invalid,71.0,212.0,0.284586482086049,1.0,71
213,13,high_opac_v,Valid,72.0,213.0,0.0,1.0,72
214,13,low_opac_v,Valid,72.0,214.0,0.9672950405959728,1.0,72
215,13,low_opac_i,Invalid,72.0,215.0,0.2834124043152663,1.0,72
216,13,high_opac_v,Valid,73.0,216.0,0.0,0.0,73
217,13,low_opac_i,Invalid,73.0,217.0,0.0,1.0,73
218,13,low_opac_v,Valid,73.0,218.0,0.0,1.0,73
219,13,low_opac_v,Valid,74.0,219.0,0.964990011035616,1.0,74
220,13,high_opac_v,Valid,74.0,220.0,0.1030910467848781,1.0,74
221,13,low_opac_i,Invalid,74.0,221.0,0.0,1.0,74
222,13,high_opac_v,Valid,75.0,222.0,0.101985166097287,0.0,75
223,13,low_opac_v,Valid,75.0,223.0,0.963778535649078,1.0,75
224,13,low_opac_i,Invalid,75.0,224.0,0.0,0.0,75
0,14,low_opac_v,Valid,1.0,0.0,0.4,1.0,1
1,14,high_opac_v,Valid,1.0,1.0,0.01,0.0,1
2,14,low_opac_i,Invalid,1.0,2.0,0.4,1.0,1
3,14,high_opac_v,Valid,2.0,3.0,1.0,0.0,2
4,14,low_opac_i,Invalid,2.0,4.0,0.01,0.0,2
5,14,low_opac_v,Valid,2.0,5.0,0.01,1.0,2
6,14,low_opac_i,Invalid,3.0,6.0,0.314409869,1.0,3
7,14,high_opac_v,Valid,3.0,7.0,1.0,0.0,3
8,14,low_opac_v,Valid,3.0,8.0,0.0,0.0,3
9,14,low_opac_i,Invalid,4.0,9.0,0.235611595,1.0,4
10,14,low_opac_v,Valid,4.0,10.0,0.11291,0.0,4
11,14,high_opac_v,Valid,4.0,11.0,1.0,0.0,4
12,14,high_opac_v,Valid,5.0,12.0,0.0,0.0,5
13,14,low_opac_i,Invalid,5.0,13.0,0.184178099,0.0,5
14,14,low_opac_v,Valid,5.0,14.0,0.0,0.0,5
15,14,low_opac_i,Invalid,6.0,15.0,0.290621264,0.0,6
16,14,high_opac_v,Valid,6.0,16.0,0.0,0.0,6
17,14,low_opac_v,Valid,6.0,17.0,0.0,0.0,6
18,14,high_opac_v,Valid,7.0,18.0,1.0,0.0,7
19,14,low_opac_v,Valid,7.0,19.0,0.450966719,0.0,7
20,14,low_opac_i,Invalid,7.0,20.0,0.0,1.0,7
21,14,high_opac_v,Valid,8.0,21.0,0.0,0.0,8
22,14,low_opac_v,Valid,8.0,22.0,0.0,0.0,8
23,14,low_opac_i,Invalid,8.0,23.0,0.0,1.0,8
24,14,high_opac_v,Valid,9.0,24.0,1.0,0.0,9
25,14,low_opac_v,Valid,9.0,25.0,0.622103931,0.0,9
26,14,low_opac_i,Invalid,9.0,26.0,0.332457707,0.0,9
27,14,low_opac_v,Valid,10.0,27.0,0.0,1.0,10
28,14,high_opac_v,Valid,10.0,28.0,0.0,0.0,10
29,14,low_opac_i,Invalid,10.0,29.0,0.0,0.0,10
30,14,high_opac_v,Valid,11.0,30.0,0.0,0.0,11
31,14,low_opac_i,Invalid,11.0,31.0,0.0,1.0,11
32,14,low_opac_v,Valid,11.0,32.0,0.0,1.0,11
33,14,low_opac_i,Invalid,12.0,33.0,0.409204791,0.0,12
34,14,high_opac_v,Valid,12.0,34.0,0.0,1.0,12
35,14,low_opac_v,Valid,12.0,35.0,0.662356207,1.0,12
36,14,low_opac_i,Invalid,13.0,36.0,0.0,0.0,13
37,14,low_opac_v,Valid,13.0,37.0,0.0,0.0,13
38,14,high_opac_v,Valid,13.0,38.0,0.0,1.0,13
39,14,low_opac_v,Valid,14.0,39.0,0.692046165,1.0,14
40,14,low_opac_i,Invalid,14.0,40.0,0.0,0.0,14
41,14,high_opac_v,Valid,14.0,41.0,0.0,1.0,14
42,14,high_opac_v,Valid,15.0,42.0,0.0,0.0,15
43,14,low_opac_i,Invalid,15.0,43.0,0.509374742,0.0,15
44,14,low_opac_v,Valid,15.0,44.0,0.681052874,1.0,15
45,14,high_opac_v,Valid,16.0,45.0,1.0,0.0,16
46,14,low_opac_i,Invalid,16.0,46.0,0.541507965,0.0,16
47,14,low_opac_v,Valid,16.0,47.0,0.0,0.0,16
48,14,low_opac_i,Invalid,17.0,48.0,0.0,0.0,17
49,14,low_opac_v,Valid,17.0,49.0,0.702948754,0.0,17
50,14,high_opac_v,Valid,17.0,50.0,0.0,1.0,17
51,14,low_opac_i,Invalid,18.0,51.0,0.603898329,0.0,18
52,14,low_opac_v,Valid,18.0,52.0,0.732226198,1.0,18
53,14,high_opac_v,Valid,18.0,53.0,0.0,0.0,18
54,14,high_opac_v,Valid,19.0,54.0,0.0,0.0,19
55,14,low_opac_v,Valid,19.0,55.0,0.0,0.0,19
56,14,low_opac_i,Invalid,19.0,56.0,0.0,0.0,19
57,14,low_opac_v,Valid,20.0,57.0,0.749911627,1.0,20
58,14,high_opac_v,Valid,20.0,58.0,0.0,0.0,20
59,14,low_opac_i,Invalid,20.0,59.0,0.665030623,0.0,20
60,14,low_opac_v,Valid,21.0,60.0,0.743436988,0.0,21
61,14,low_opac_i,Invalid,21.0,61.0,0.697424966,1.0,21
62,14,high_opac_v,Valid,21.0,62.0,0.0,0.0,21
63,14,low_opac_i,Invalid,22.0,63.0,0.0,1.0,22
64,14,low_opac_v,Valid,22.0,64.0,0.0,0.0,22
65,14,high_opac_v,Valid,22.0,65.0,0.0,0.0,22
66,14,low_opac_v,Valid,23.0,66.0,0.789347795,1.0,23
67,14,high_opac_v,Valid,23.0,67.0,0.0,1.0,23
68,14,low_opac_i,Invalid,23.0,68.0,0.682282202,1.0,23
69,14,low_opac_i,Invalid,24.0,69.0,0.0,0.0,24
70,14,low_opac_v,Valid,24.0,70.0,0.783739243,0.0,24
71,14,high_opac_v,Valid,24.0,71.0,1.0,1.0,24
72,14,low_opac_v,Valid,25.0,72.0,0.0,1.0,25
73,14,high_opac_v,Valid,25.0,73.0,1.0,1.0,25
74,14,low_opac_i,Invalid,25.0,74.0,0.0,0.0,25
75,14,low_opac_v,Valid,26.0,75.0,0.798521063,0.0,26
76,14,high_opac_v,Valid,26.0,76.0,1.0,0.0,26
77,14,low_opac_i,Invalid,26.0,77.0,0.0,0.0,26
78,14,high_opac_v,Valid,27.0,78.0,1.0,1.0,27
79,14,low_opac_i,Invalid,27.0,79.0,0.0,1.0,27
80,14,low_opac_v,Valid,27.0,80.0,0.0,0.0,27
81,14,high_opac_v,Valid,28.0,81.0,0.0,0.0,28
82,14,low_opac_i,Invalid,28.0,82.0,0.0,1.0,28
83,14,low_opac_v,Valid,28.0,83.0,0.0,0.0,28
84,14,high_opac_v,Valid,29.0,84.0,0.0,0.0,29
85,14,low_opac_v,Valid,29.0,85.0,0.855168934,0.0,29
86,14,low_opac_i,Invalid,29.0,86.0,0.0,0.0,29
87,14,high_opac_v,Valid,30.0,87.0,1.0,1.0,30
88,14,low_opac_v,Valid,30.0,88.0,0.873948686,1.0,30
89,14,low_opac_i,Invalid,30.0,89.0,0.751845164,0.0,30
90,14,low_opac_v,Valid,31.0,90.0,0.0,0.0,31
91,14,high_opac_v,Valid,31.0,91.0,0.0,0.0,31
92,14,low_opac_i,Invalid,31.0,92.0,0.0,1.0,31
93,14,low_opac_v,Valid,32.0,93.0,0.886236863,0.0,32
94,14,high_opac_v,Valid,32.0,94.0,0.0,0.0,32
95,14,low_opac_i,Invalid,32.0,95.0,0.0,0.0,32
96,14,low_opac_v,Valid,33.0,96.0,0.903429898,0.0,33
97,14,low_opac_i,Invalid,33.0,97.0,0.0,1.0,33
98,14,high_opac_v,Valid,33.0,98.0,1.0,0.0,33
99,14,low_opac_i,Invalid,34.0,99.0,0.0,0.0,34
100,14,high_opac_v,Valid,34.0,100.0,1.0,0.0,34
101,14,low_opac_v,Valid,34.0,101.0,0.0,0.0,34
102,14,high_opac_v,Valid,35.0,102.0,0.0,0.0,35
103,14,low_opac_v,Valid,35.0,103.0,0.936239742,0.0,35
104,14,low_opac_i,Invalid,35.0,104.0,0.0,0.0,35
105,14,high_opac_v,Valid,36.0,105.0,0.0,0.0,36
106,14,low_opac_v,Valid,36.0,106.0,0.953169354,0.0,36
107,14,low_opac_i,Invalid,36.0,107.0,0.0,0.0,36
108,14,high_opac_v,Valid,37.0,108.0,0.0,0.0,37
109,14,low_opac_v,Valid,37.0,109.0,0.0,0.0,37
110,14,low_opac_i,Invalid,37.0,110.0,0.826791046,0.0,37
111,14,high_opac_v,Valid,38.0,111.0,0.0,0.0,38
112,14,low_opac_v,Valid,38.0,112.0,0.985723802,0.0,38
113,14,low_opac_i,Invalid,38.0,113.0,0.0,1.0,38
114,14,low_opac_i,Invalid,39.0,114.0,0.0,0.0,39
115,14,low_opac_v,Valid,39.0,115.0,0.0,1.0,39
116,14,high_opac_v,Valid,39.0,116.0,0.0,0.0,39
117,14,low_opac_v,Valid,40.0,117.0,0.99840154,0.0,40
118,14,high_opac_v,Valid,40.0,118.0,0.0,0.0,40
119,14,low_opac_i,Invalid,40.0,119.0,0.0,0.0,40
120,14,high_opac_v,Valid,41.0,120.0,1.0,0.0,41
121,14,low_opac_i,Invalid,41.0,121.0,0.867489529,0.0,41
122,14,low_opac_v,Valid,41.0,122.0,1.0,0.0,41
123,14,high_opac_v,Valid,42.0,123.0,1.0,0.0,42
124,14,low_opac_v,Valid,42.0,124.0,1.0,1.0,42
125,14,low_opac_i,Invalid,42.0,125.0,0.0,0.0,42
126,14,high_opac_v,Valid,43.0,126.0,1.0,0.0,43
127,14,low_opac_v,Valid,43.0,127.0,0.0,0.0,43
128,14,low_opac_i,Invalid,43.0,128.0,0.0,1.0,43
129,14,low_opac_v,Valid,44.0,129.0,0.0,0.0,44
130,14,high_opac_v,Valid,44.0,130.0,1.0,0.0,44
131,14,low_opac_i,Invalid,44.0,131.0,0.0,0.0,44
132,14,low_opac_v,Valid,45.0,132.0,1.0,1.0,45
133,14,high_opac_v,Valid,45.0,133.0,1.0,0.0,45
134,14,low_opac_i,Invalid,45.0,134.0,0.0,1.0,45
135,14,high_opac_v,Valid,46.0,135.0,0.0,0.0,46
136,14,low_opac_i,Invalid,46.0,136.0,0.0,1.0,46
137,14,low_opac_v,Valid,46.0,137.0,1.0,0.0,46
138,14,low_opac_i,Invalid,47.0,138.0,0.899540902,0.0,47
139,14,low_opac_v,Valid,47.0,139.0,1.0,0.0,47
140,14,high_opac_v,Valid,47.0,140.0,0.0,0.0,47
141,14,low_opac_v,Valid,48.0,141.0,1.0,0.0,48
142,14,high_opac_v,Valid,48.0,142.0,1.0,0.0,48
143,14,low_opac_i,Invalid,48.0,143.0,0.0,0.0,48
144,14,high_opac_v,Valid,49.0,144.0,0.0,0.0,49
145,14,low_opac_i,Invalid,49.0,145.0,0.923780603,0.0,49
146,14,low_opac_v,Valid,49.0,146.0,1.0,0.0,49
147,14,high_opac_v,Valid,50.0,147.0,1.0,0.0,50
148,14,low_opac_v,Valid,50.0,148.0,0.0,0.0,50
149,14,low_opac_i,Invalid,50.0,149.0,0.935477809,1.0,50
150,14,low_opac_i,Invalid,51.0,150.0,0.0,0.0,51
151,14,high_opac_v,Valid,51.0,151.0,0.0,0.0,51
152,14,low_opac_v,Valid,51.0,152.0,1.0,0.0,51
153,14,low_opac_v,Valid,52.0,153.0,0.0,0.0,52
154,14,high_opac_v,Valid,52.0,154.0,1.0,0.0,52
155,14,low_opac_i,Invalid,52.0,155.0,0.0,0.0,52
156,14,high_opac_v,Valid,53.0,156.0,0.0,1.0,53
157,14,low_opac_v,Valid,53.0,157.0,1.0,0.0,53
158,14,low_opac_i,Invalid,53.0,158.0,0.954945977,0.0,53
159,14,low_opac_i,Invalid,54.0,159.0,0.965858272,0.0,54
160,14,low_opac_v,Valid,54.0,160.0,1.0,0.0,54
161,14,high_opac_v,Valid,54.0,161.0,0.0,0.0,54
162,14,low_opac_v,Valid,55.0,162.0,0.0,0.0,55
163,14,low_opac_i,Invalid,55.0,163.0,0.0,0.0,55
164,14,high_opac_v,Valid,55.0,164.0,1.0,0.0,55
165,14,high_opac_v,Valid,56.0,165.0,0.0,0.0,56
166,14,low_opac_v,Valid,56.0,166.0,0.0,0.0,56
167,14,low_opac_i,Invalid,56.0,167.0,0.988855081,0.0,56
168,14,low_opac_i,Invalid,57.0,168.0,1.0,0.0,57
169,14,high_opac_v,Valid,57.0,169.0,1.0,0.0,57
170,14,low_opac_v,Valid,57.0,170.0,0.0,0.0,57
171,14,low_opac_i,Invalid,58.0,171.0,1.0,0.0,58
172,14,low_opac_v,Valid,58.0,172.0,1.0,0.0,58
173,14,high_opac_v,Valid,58.0,173.0,1.0,0.0,58
174,14,low_opac_i,Invalid,59.0,174.0,1.0,1.0,59
175,14,low_opac_v,Valid,59.0,175.0,0.0,0.0,59
176,14,high_opac_v,Valid,59.0,176.0,0.0,0.0,59
177,14,low_opac_v,Valid,60.0,177.0,0.0,0.0,60
178,14,high_opac_v,Valid,60.0,178.0,0.0,0.0,60
179,14,low_opac_i,Invalid,60.0,179.0,1.0,0.0,60
180,14,low_opac_i,Invalid,61.0,180.0,1.0,0.0,61
181,14,low_opac_v,Valid,61.0,181.0,0.0,0.0,61
182,14,high_opac_v,Valid,61.0,182.0,0.0,0.0,61
183,14,low_opac_v,Valid,62.0,183.0,0.0,0.0,62
184,14,low_opac_i,Invalid,62.0,184.0,0.0,0.0,62
185,14,high_opac_v,Valid,62.0,185.0,0.0,0.0,62
186,14,low_opac_i,Invalid,63.0,186.0,0.0,0.0,63
187,14,low_opac_v,Valid,63.0,187.0,1.0,0.0,63
188,14,high_opac_v,Valid,63.0,188.0,1.0,0.0,63
189,14,low_opac_v,Valid,64.0,189.0,0.0,0.0,64
190,14,low_opac_i,Invalid,64.0,190.0,1.0,0.0,64
191,14,high_opac_v,Valid,64.0,191.0,0.0,0.0,64
192,14,low_opac_v,Valid,65.0,192.0,1.0,0.0,65
193,14,low_opac_i,Invalid,65.0,193.0,0.0,0.0,65
194,14,high_opac_v,Valid,65.0,194.0,0.0,0.0,65
195,14,low_opac_v,Valid,66.0,195.0,1.0,0.0,66
196,14,high_opac_v,Valid,66.0,196.0,0.0,0.0,66
197,14,low_opac_i,Invalid,66.0,197.0,0.0,0.0,66
198,14,low_opac_i,Invalid,67.0,198.0,0.0,0.0,67
199,14,high_opac_v,Valid,67.0,199.0,0.0,0.0,67
200,14,low_opac_v,Valid,67.0,200.0,1.0,0.0,67
201,14,high_opac_v,Valid,68.0,201.0,1.0,0.0,68
202,14,low_opac_i,Invalid,68.0,202.0,1.0,0.0,68
203,14,low_opac_v,Valid,68.0,203.0,0.0,0.0,68
204,14,high_opac_v,Valid,69.0,204.0,1.0,0.0,69
205,14,low_opac_i,Invalid,69.0,205.0,0.0,0.0,69
206,14,low_opac_v,Valid,69.0,206.0,0.0,0.0,69
207,14,low_opac_v,Valid,70.0,207.0,0.0,0.0,70
208,14,high_opac_v,Valid,70.0,208.0,1.0,0.0,70
209,14,low_opac_i,Invalid,70.0,209.0,0.0,0.0,70
210,14,low_opac_v,Valid,71.0,210.0,0.0,0.0,71
211,14,high_opac_v,Valid,71.0,211.0,0.0,0.0,71
212,14,low_opac_i,Invalid,71.0,212.0,0.0,0.0,71
213,14,high_opac_v,Valid,72.0,213.0,0.0,0.0,72
214,14,low_opac_i,Invalid,72.0,214.0,1.0,0.0,72
215,14,low_opac_v,Valid,72.0,215.0,1.0,0.0,72
216,14,high_opac_v,Valid,73.0,216.0,1.0,0.0,73
217,14,low_opac_i,Invalid,73.0,217.0,1.0,0.0,73
218,14,low_opac_v,Valid,73.0,218.0,1.0,0.0,73
219,14,low_opac_v,Valid,74.0,219.0,1.0,0.0,74
220,14,low_opac_i,Invalid,74.0,220.0,1.0,0.0,74
221,14,high_opac_v,Valid,74.0,221.0,1.0,0.0,74
222,14,low_opac_v,Valid,75.0,222.0,1.0,0.0,75
223,14,high_opac_v,Valid,75.0,223.0,1.0,1.0,75
224,14,low_opac_i,Invalid,75.0,224.0,0.0,0.0,75
0,16,low_opac_i,Invalid,1.0,0.0,0.4,1.0,1
1,16,high_opac_v,Valid,1.0,1.0,0.01,1.0,1
2,16,low_opac_v,Valid,1.0,2.0,0.4,1.0,1
3,16,low_opac_i,Invalid,2.0,3.0,0.0,0.0,2
4,16,low_opac_v,Valid,2.0,4.0,0.01,0.0,2
5,16,high_opac_v,Valid,2.0,5.0,0.0,1.0,2
6,16,low_opac_v,Valid,3.0,6.0,0.0,1.0,3
7,16,low_opac_i,Invalid,3.0,7.0,0.0,1.0,3
8,16,high_opac_v,Valid,3.0,8.0,0.0,1.0,3
9,16,low_opac_i,Invalid,4.0,9.0,0.0,1.0,4
10,16,low_opac_v,Valid,4.0,10.0,0.2356115953941183,1.0,4
11,16,high_opac_v,Valid,4.0,11.0,0.01,0.0,4
12,16,high_opac_v,Valid,5.0,12.0,0.0,1.0,5
13,16,low_opac_v,Valid,5.0,13.0,0.1841780991895161,0.0,5
14,16,low_opac_i,Invalid,5.0,14.0,0.1841780991895161,1.0,5
15,16,high_opac_v,Valid,6.0,15.0,0.01,0.0,6
16,16,low_opac_v,Valid,6.0,16.0,0.0,1.0,6
17,16,low_opac_i,Invalid,6.0,17.0,0.0,1.0,6
18,16,high_opac_v,Valid,7.0,18.0,0.0,1.0,7
19,16,low_opac_i,Invalid,7.0,19.0,0.0,1.0,7
20,16,low_opac_v,Valid,7.0,20.0,0.2675765758403229,1.0,7
21,16,low_opac_i,Invalid,8.0,21.0,0.0693977005055356,0.0,8
22,16,low_opac_v,Valid,8.0,22.0,0.0,1.0,8
23,16,high_opac_v,Valid,8.0,23.0,0.0,1.0,8
24,16,low_opac_v,Valid,9.0,24.0,0.0,1.0,9
25,16,high_opac_v,Valid,9.0,25.0,0.0,1.0,9
26,16,low_opac_i,Invalid,9.0,26.0,0.0,1.0,9
27,16,high_opac_v,Valid,10.0,27.0,0.0,1.0,10
28,16,low_opac_i,Invalid,10.0,28.0,0.1380266354329187,0.0,10
29,16,low_opac_v,Valid,10.0,29.0,0.0,1.0,10
30,16,low_opac_i,Invalid,11.0,30.0,0.0,1.0,11
31,16,high_opac_v,Valid,11.0,31.0,0.0,1.0,11
32,16,low_opac_v,Valid,11.0,32.0,0.2066692168697818,0.0,11
33,16,low_opac_i,Invalid,12.0,33.0,0.0,1.0,12
34,16,low_opac_v,Valid,12.0,34.0,0.2479347639587825,0.0,12
35,16,high_opac_v,Valid,12.0,35.0,0.01,0.0,12
36,16,low_opac_i,Invalid,13.0,36.0,0.0,1.0,13
37,16,low_opac_v,Valid,13.0,37.0,0.0,1.0,13
38,16,high_opac_v,Valid,13.0,38.0,0.0404807316867947,0.0,13
39,16,high_opac_v,Valid,14.0,39.0,0.0660233925889323,1.0,14
40,16,low_opac_i,Invalid,14.0,40.0,0.0,1.0,14
41,16,low_opac_v,Valid,14.0,41.0,0.0,1.0,14
42,16,high_opac_v,Valid,15.0,42.0,0.0,1.0,15
43,16,low_opac_i,Invalid,15.0,43.0,0.1481032175869144,0.0,15
44,16,low_opac_v,Valid,15.0,44.0,0.2661243270400081,1.0,15
45,16,low_opac_i,Invalid,16.0,45.0,0.1761125698541988,1.0,16
46,16,high_opac_v,Valid,16.0,46.0,0.0544295072070696,0.0,16
47,16,low_opac_v,Valid,16.0,47.0,0.0,1.0,16
48,16,low_opac_i,Invalid,17.0,48.0,0.1698552788990396,1.0,17
49,16,high_opac_v,Valid,17.0,49.0,0.0,0.0,17
50,16,low_opac_v,Valid,17.0,50.0,0.2536623023891486,1.0,17
51,16,high_opac_v,Valid,18.0,51.0,0.0,0.0,18
52,16,low_opac_i,Invalid,18.0,52.0,0.0,1.0,18
53,16,low_opac_v,Valid,18.0,53.0,0.2477451259183451,1.0,18
54,16,high_opac_v,Valid,19.0,54.0,0.112317334877734,1.0,19
55,16,low_opac_v,Valid,19.0,55.0,0.0,1.0,19
56,16,low_opac_i,Invalid,19.0,56.0,0.0,1.0,19
57,16,low_opac_v,Valid,20.0,57.0,0.0,0.0,20
58,16,low_opac_i,Invalid,20.0,58.0,0.0,1.0,20
59,16,high_opac_v,Valid,20.0,59.0,0.0,1.0,20
60,16,low_opac_v,Valid,21.0,60.0,0.0,1.0,21
61,16,high_opac_v,Valid,21.0,61.0,0.1031762543299367,0.0,21
62,16,low_opac_i,Invalid,21.0,62.0,0.0,1.0,21
63,16,low_opac_v,Valid,22.0,63.0,0.0,1.0,22
64,16,high_opac_v,Valid,22.0,64.0,0.1193418061041484,1.0,22
65,16,low_opac_i,Invalid,22.0,65.0,0.0,1.0,22
66,16,low_opac_i,Invalid,23.0,66.0,0.0,1.0,23
67,16,high_opac_v,Valid,23.0,67.0,0.1153255058608604,0.0,23
68,16,low_opac_v,Valid,23.0,68.0,0.2479507127554489,1.0,23
69,16,low_opac_v,Valid,24.0,69.0,0.2440198753959627,1.0,24
70,16,low_opac_i,Invalid,24.0,70.0,0.1340565061998263,1.0,24
71,16,high_opac_v,Valid,24.0,71.0,0.1311449470167821,1.0,24
72,16,low_opac_v,Valid,25.0,72.0,0.2400331049005791,1.0,25
73,16,high_opac_v,Valid,25.0,73.0,0.1273416784380315,1.0,25
74,16,low_opac_i,Invalid,25.0,74.0,0.0,0.0,25
75,16,high_opac_v,Valid,26.0,75.0,0.0,0.0,26
76,16,low_opac_v,Valid,26.0,76.0,0.0,0.0,26
77,16,low_opac_i,Invalid,26.0,77.0,0.0,0.0,26
78,16,low_opac_v,Valid,27.0,78.0,0.2508449583220882,1.0,27
79,16,high_opac_v,Valid,27.0,79.0,0.0,0.0,27
80,16,low_opac_i,Invalid,27.0,80.0,0.1605781308186472,1.0,27
81,16,low_opac_v,Valid,28.0,81.0,0.2474859940181829,1.0,28
82,16,low_opac_i,Invalid,28.0,82.0,0.0,0.0,28
83,16,high_opac_v,Valid,28.0,83.0,0.0,0.0,28
84,16,low_opac_i,Invalid,29.0,84.0,0.0,0.0,29
85,16,high_opac_v,Valid,29.0,85.0,0.0,0.0,29
86,16,low_opac_v,Valid,29.0,86.0,0.2443787975347479,1.0,29
87,16,low_opac_v,Valid,30.0,87.0,0.0,0.0,30
88,16,high_opac_v,Valid,30.0,88.0,0.0,1.0,30
89,16,low_opac_i,Invalid,30.0,89.0,0.0,1.0,30
90,16,low_opac_v,Valid,31.0,90.0,0.2530562024918347,1.0,31
91,16,low_opac_i,Invalid,31.0,91.0,0.1799252818432837,1.0,31
92,16,high_opac_v,Valid,31.0,92.0,0.1733644252307091,1.0,31
93,16,low_opac_v,Valid,32.0,93.0,0.0,1.0,32
94,16,low_opac_i,Invalid,32.0,94.0,0.1770358836704246,1.0,32
95,16,high_opac_v,Valid,32.0,95.0,0.1702202226794797,1.0,32
96,16,low_opac_i,Invalid,33.0,96.0,0.1743454407145588,1.0,33
97,16,low_opac_v,Valid,33.0,97.0,0.0,1.0,33
98,16,high_opac_v,Valid,33.0,98.0,0.1673015700873275,1.0,33
99,16,low_opac_i,Invalid,34.0,99.0,0.1715677488337174,1.0,34
100,16,high_opac_v,Valid,34.0,100.0,0.1646022276932108,1.0,34
101,16,low_opac_v,Valid,34.0,101.0,0.2448198166405862,1.0,34
102,16,high_opac_v,Valid,35.0,102.0,0.0,0.0,35
103,16,low_opac_i,Invalid,35.0,103.0,0.1688971108642092,1.0,35
104,16,low_opac_v,Valid,35.0,104.0,0.0,1.0,35
105,16,low_opac_v,Valid,36.0,105.0,0.2395801433562183,1.0,36
106,16,low_opac_i,Invalid,36.0,106.0,0.0,0.0,36
107,16,high_opac_v,Valid,36.0,107.0,0.1721554198385438,1.0,36
108,16,high_opac_v,Valid,37.0,108.0,0.0,1.0,37
109,16,low_opac_i,Invalid,37.0,109.0,0.0,1.0,37
110,16,low_opac_v,Valid,37.0,110.0,0.0,1.0,37
111,16,high_opac_v,Valid,38.0,111.0,0.1671035887847954,0.0,38
112,16,low_opac_v,Valid,38.0,112.0,0.234832559657834,1.0,38
113,16,low_opac_i,Invalid,38.0,113.0,0.0,1.0,38
114,16,low_opac_i,Invalid,39.0,114.0,0.0,0.0,39
115,16,high_opac_v,Valid,39.0,115.0,0.1769088334104473,1.0,39
116,16,low_opac_v,Valid,39.0,116.0,0.0,1.0,39
117,16,low_opac_v,Valid,40.0,117.0,0.2301029591287241,1.0,40
118,16,high_opac_v,Valid,40.0,118.0,0.0,1.0,40
119,16,low_opac_i,Invalid,40.0,119.0,0.0,1.0,40
120,16,low_opac_v,Valid,41.0,120.0,0.0,1.0,41
121,16,low_opac_i,Invalid,41.0,121.0,0.1786392020596702,1.0,41
122,16,high_opac_v,Valid,41.0,122.0,0.1723434440597624,1.0,41
123,16,high_opac_v,Valid,42.0,123.0,0.0,1.0,42
124,16,low_opac_i,Invalid,42.0,124.0,0.0,1.0,42
125,16,low_opac_v,Valid,42.0,125.0,0.0,1.0,42
126,16,low_opac_v,Valid,43.0,126.0,0.2236987218789182,1.0,43
127,16,high_opac_v,Valid,43.0,127.0,0.1679570218848661,1.0,43
128,16,low_opac_i,Invalid,43.0,128.0,0.174598476860714,1.0,43
129,16,low_opac_v,Valid,44.0,129.0,0.2215552357209856,1.0,44
130,16,low_opac_i,Invalid,44.0,130.0,0.0,1.0,44
131,16,high_opac_v,Valid,44.0,131.0,0.0,1.0,44
132,16,low_opac_i,Invalid,45.0,132.0,0.0,1.0,45
133,16,high_opac_v,Valid,45.0,133.0,0.1640469165760807,1.0,45
134,16,low_opac_v,Valid,45.0,134.0,0.2194462565331078,1.0,45
135,16,high_opac_v,Valid,46.0,135.0,0.1620462112448457,1.0,46
136,16,low_opac_i,Invalid,46.0,136.0,0.0,0.0,46
137,16,low_opac_v,Valid,46.0,137.0,0.0,1.0,46
138,16,low_opac_v,Valid,47.0,138.0,0.2154994831509439,1.0,47
139,16,high_opac_v,Valid,47.0,139.0,0.0,1.0,47
140,16,low_opac_i,Invalid,47.0,140.0,0.1762693514951291,1.0,47
141,16,low_opac_v,Valid,48.0,141.0,0.0,1.0,48
142,16,high_opac_v,Valid,48.0,142.0,0.1582147769239549,1.0,48
143,16,low_opac_i,Invalid,48.0,143.0,0.1745401035765895,1.0,48
144,16,low_opac_i,Invalid,49.0,144.0,0.0,1.0,49
145,16,low_opac_v,Valid,49.0,145.0,0.2116873103547198,1.0,49
146,16,high_opac_v,Valid,49.0,146.0,0.0,1.0,49
147,16,low_opac_i,Invalid,50.0,147.0,0.0,1.0,50
148,16,high_opac_v,Valid,50.0,148.0,0.0,1.0,50
149,16,low_opac_v,Valid,50.0,149.0,0.2097466384305946,1.0,50
150,16,low_opac_v,Valid,51.0,150.0,0.2078583050838425,0.0,51
151,16,high_opac_v,Valid,51.0,151.0,0.0,1.0,51
152,16,low_opac_i,Invalid,51.0,152.0,0.1691887466439645,1.0,51
153,16,low_opac_i,Invalid,52.0,153.0,0.1675244031269898,1.0,52
154,16,high_opac_v,Valid,52.0,154.0,0.1512562444673875,1.0,52
155,16,low_opac_v,Valid,52.0,155.0,0.2154294168428822,1.0,52
156,16,low_opac_i,Invalid,53.0,156.0,0.1659400477869689,1.0,53
157,16,low_opac_v,Valid,53.0,157.0,0.0,1.0,53
158,16,high_opac_v,Valid,53.0,158.0,0.1495489879962509,0.0,53
159,16,low_opac_i,Invalid,54.0,159.0,0.1644163042761099,1.0,54
160,16,low_opac_v,Valid,54.0,160.0,0.2120506160936308,1.0,54
161,16,high_opac_v,Valid,54.0,161.0,0.1561924981722282,1.0,54
162,16,low_opac_i,Invalid,55.0,162.0,0.0,1.0,55
163,16,low_opac_v,Valid,55.0,163.0,0.2103291496437543,1.0,55
164,16,high_opac_v,Valid,55.0,164.0,0.1546847512283706,1.0,55
165,16,low_opac_i,Invalid,56.0,165.0,0.0,1.0,56
166,16,high_opac_v,Valid,56.0,166.0,0.0,1.0,56
167,16,low_opac_v,Valid,56.0,167.0,0.0,1.0,56
168,16,low_opac_v,Valid,57.0,168.0,0.2070049838251192,1.0,57
169,16,high_opac_v,Valid,57.0,169.0,0.0,1.0,57
170,16,low_opac_i,Invalid,57.0,170.0,0.0,1.0,57
171,16,low_opac_i,Invalid,58.0,171.0,0.1581305521795102,1.0,58
172,16,low_opac_v,Valid,58.0,172.0,0.0,1.0,58
173,16,high_opac_v,Valid,58.0,173.0,0.0,1.0,58
174,16,low_opac_i,Invalid,59.0,174.0,0.1566876884374158,1.0,59
175,16,low_opac_v,Valid,59.0,175.0,0.0,1.0,59
176,16,high_opac_v,Valid,59.0,176.0,0.1484947951654456,1.0,59
177,16,low_opac_v,Valid,60.0,177.0,0.2023329831510173,1.0,60
178,16,low_opac_i,Invalid,60.0,178.0,0.155300990520921,1.0,60
179,16,high_opac_v,Valid,60.0,179.0,0.0,1.0,60
180,16,low_opac_v,Valid,61.0,180.0,0.0,1.0,61
181,16,low_opac_i,Invalid,61.0,181.0,0.0,1.0,61
182,16,high_opac_v,Valid,61.0,182.0,0.0,1.0,61
183,16,high_opac_v,Valid,62.0,183.0,0.0,1.0,62
184,16,low_opac_v,Valid,62.0,184.0,0.0,1.0,62
185,16,low_opac_i,Invalid,62.0,185.0,0.0,1.0,62
186,16,high_opac_v,Valid,63.0,186.0,0.142999359081508,0.0,63
187,16,low_opac_i,Invalid,63.0,187.0,0.0,1.0,63
188,16,low_opac_v,Valid,63.0,188.0,0.0,1.0,63
189,16,low_opac_i,Invalid,64.0,189.0,0.1496885395691003,1.0,64
190,16,high_opac_v,Valid,64.0,190.0,0.0,1.0,64
191,16,low_opac_v,Valid,64.0,191.0,0.1961417754541491,1.0,64
192,16,low_opac_i,Invalid,65.0,192.0,0.1483166697928477,1.0,65
193,16,high_opac_v,Valid,65.0,193.0,0.1470480807578878,1.0,65
194,16,low_opac_v,Valid,65.0,194.0,0.0,1.0,65
195,16,high_opac_v,Valid,66.0,195.0,0.0,1.0,66
196,16,low_opac_v,Valid,66.0,196.0,0.0,1.0,66
197,16,low_opac_i,Invalid,66.0,197.0,0.1470069203924087,1.0,66
198,16,high_opac_v,Valid,67.0,198.0,0.0,1.0,67
199,16,low_opac_v,Valid,67.0,199.0,0.0,1.0,67
200,16,low_opac_i,Invalid,67.0,200.0,0.1457462624901794,1.0,67
201,16,low_opac_v,Valid,68.0,201.0,0.1902127180026187,1.0,68
202,16,low_opac_i,Invalid,68.0,202.0,0.0,1.0,68
203,16,high_opac_v,Valid,68.0,203.0,0.0,1.0,68
204,16,low_opac_i,Invalid,69.0,204.0,0.1432190281510826,1.0,69
205,16,high_opac_v,Valid,69.0,205.0,0.1420472440283048,1.0,69
206,16,low_opac_v,Valid,69.0,206.0,0.188716243887718,1.0,69
207,16,low_opac_i,Invalid,70.0,207.0,0.1419317185629969,1.0,70
208,16,high_opac_v,Valid,70.0,208.0,0.1407908515956945,1.0,70
209,16,low_opac_v,Valid,70.0,209.0,0.1872814167520037,1.0,70
210,16,high_opac_v,Valid,71.0,210.0,0.0,1.0,71
211,16,low_opac_v,Valid,71.0,211.0,0.0,1.0,71
212,16,low_opac_i,Invalid,71.0,212.0,0.1406497001606735,1.0,71
213,16,low_opac_v,Valid,72.0,213.0,0.1845548263644272,1.0,72
214,16,high_opac_v,Valid,72.0,214.0,0.0,1.0,72
215,16,low_opac_i,Invalid,72.0,215.0,0.1393656398933568,1.0,72
216,16,low_opac_i,Invalid,73.0,216.0,0.0,1.0,73
217,16,low_opac_v,Valid,73.0,217.0,0.1831173781020485,1.0,73
218,16,high_opac_v,Valid,73.0,218.0,0.1371726703896531,1.0,73
219,16,low_opac_i,Invalid,74.0,219.0,0.0,1.0,74
220,16,low_opac_v,Valid,74.0,220.0,0.0,1.0,74
221,16,high_opac_v,Valid,74.0,221.0,0.0,1.0,74
222,16,low_opac_i,Invalid,75.0,222.0,0.13579467874336,1.0,75
223,16,low_opac_v,Valid,75.0,223.0,0.1802683764264703,1.0,75
224,16,high_opac_v,Valid,75.0,224.0,0.1349798990490255,1.0,75
0,17,low_opac_i,Invalid,1.0,0.0,0.4,1.0,1
1,17,low_opac_v,Valid,1.0,1.0,0.0,1.0,1
2,17,high_opac_v,Valid,1.0,2.0,0.01,0.0,1
3,17,low_opac_i,Invalid,2.0,3.0,0.0,1.0,2
4,17,low_opac_v,Valid,2.0,4.0,0.0,1.0,2
5,17,high_opac_v,Valid,2.0,5.0,1.0,1.0,2
6,17,high_opac_v,Valid,3.0,6.0,0.0,1.0,3
7,17,low_opac_v,Valid,3.0,7.0,0.01,0.0,3
8,17,low_opac_i,Invalid,3.0,8.0,0.01,0.0,3
9,17,low_opac_v,Valid,4.0,9.0,0.0,1.0,4
10,17,low_opac_i,Invalid,4.0,10.0,0.1129100002702675,0.0,4
11,17,high_opac_v,Valid,4.0,11.0,0.0,1.0,4
12,17,high_opac_v,Valid,5.0,12.0,0.0,1.0,5
13,17,low_opac_i,Invalid,5.0,13.0,0.0,1.0,5
14,17,low_opac_v,Valid,5.0,14.0,0.0555460796492762,0.0,5
15,17,low_opac_i,Invalid,6.0,15.0,0.2175314310592256,0.0,6
16,17,high_opac_v,Valid,6.0,16.0,0.0,1.0,6
17,17,low_opac_v,Valid,6.0,17.0,0.0,1.0,6
18,17,high_opac_v,Valid,7.0,18.0,0.1783883928663719,0.0,7
19,17,low_opac_v,Valid,7.0,19.0,0.1452108067813101,1.0,7
20,17,low_opac_i,Invalid,7.0,20.0,0.0,1.0,7
21,17,low_opac_i,Invalid,8.0,21.0,0.0,1.0,8
22,17,high_opac_v,Valid,8.0,22.0,0.2904280475998494,1.0,8
23,17,low_opac_v,Valid,8.0,23.0,0.1273095611566007,1.0,8
24,17,low_opac_v,Valid,9.0,24.0,0.1123716255953006,1.0,9
25,17,high_opac_v,Valid,9.0,25.0,0.0,1.0,9
26,17,low_opac_i,Invalid,9.0,26.0,0.2633017344012175,1.0,9
27,17,high_opac_v,Valid,10.0,27.0,0.2484240096994542,1.0,10
28,17,low_opac_v,Valid,10.0,28.0,0.0990055231818932,1.0,10
29,17,low_opac_i,Invalid,10.0,29.0,0.0,0.0,10
30,17,high_opac_v,Valid,11.0,30.0,0.0,1.0,11
31,17,low_opac_i,Invalid,11.0,31.0,0.0,0.0,11
32,17,low_opac_v,Valid,11.0,32.0,0.0,0.0,11
33,17,high_opac_v,Valid,12.0,33.0,0.2180731984983671,1.0,12
34,17,low_opac_i,Invalid,12.0,34.0,0.3296054669745968,1.0,12
35,17,low_opac_v,Valid,12.0,35.0,0.0,0.0,12
36,17,low_opac_i,Invalid,13.0,36.0,0.0,1.0,13
37,17,low_opac_v,Valid,13.0,37.0,0.1591710767649038,1.0,13
38,17,high_opac_v,Valid,13.0,38.0,0.2055368214105296,1.0,13
39,17,low_opac_i,Invalid,14.0,39.0,0.3119840141207176,1.0,14
40,17,high_opac_v,Valid,14.0,40.0,0.1942818594057468,1.0,14
41,17,low_opac_v,Valid,14.0,41.0,0.0,1.0,14
42,17,low_opac_v,Valid,15.0,42.0,0.1441836646892474,0.0,15
43,17,high_opac_v,Valid,15.0,43.0,0.0,1.0,15
44,17,low_opac_i,Invalid,15.0,44.0,0.0,0.0,15
45,17,low_opac_v,Valid,16.0,45.0,0.1686151631622713,1.0,16
46,17,low_opac_i,Invalid,16.0,46.0,0.329879273364657,1.0,16
47,17,high_opac_v,Valid,16.0,47.0,0.0,1.0,16
48,17,low_opac_i,Invalid,17.0,48.0,0.3235453733432455,1.0,17
49,17,low_opac_v,Valid,17.0,49.0,0.0,1.0,17
50,17,high_opac_v,Valid,17.0,50.0,0.0,1.0,17
51,17,low_opac_i,Invalid,18.0,51.0,0.0,1.0,18
52,17,high_opac_v,Valid,18.0,52.0,0.0,0.0,18
53,17,low_opac_v,Valid,18.0,53.0,0.0,1.0,18
54,17,high_opac_v,Valid,19.0,54.0,0.0,1.0,19
55,17,low_opac_i,Invalid,19.0,55.0,0.3121782558289862,1.0,19
56,17,low_opac_v,Valid,19.0,56.0,0.0,1.0,19
57,17,low_opac_i,Invalid,20.0,57.0,0.3069684468412291,1.0,20
58,17,low_opac_v,Valid,20.0,58.0,0.0,1.0,20
59,17,high_opac_v,Valid,20.0,59.0,0.0,1.0,20
60,17,low_opac_i,Invalid,21.0,60.0,0.0,1.0,21
61,17,low_opac_v,Valid,21.0,61.0,0.1421982371174509,1.0,21
62,17,high_opac_v,Valid,21.0,62.0,0.1729619610757169,1.0,21
63,17,low_opac_v,Valid,22.0,63.0,0.0,1.0,22
64,17,low_opac_i,Invalid,22.0,64.0,0.2976468113536685,1.0,22
65,17,high_opac_v,Valid,22.0,65.0,0.1669248443866244,1.0,22
66,17,low_opac_v,Valid,23.0,66.0,0.1336282495787917,1.0,23
67,17,high_opac_v,Valid,23.0,67.0,0.0,0.0,23
68,17,low_opac_i,Invalid,23.0,68.0,0.0,1.0,23
69,17,low_opac_v,Valid,24.0,69.0,0.1295082811441142,1.0,24
70,17,high_opac_v,Valid,24.0,70.0,0.1819930330528005,1.0,24
71,17,low_opac_i,Invalid,24.0,71.0,0.0,0.0,24
72,17,high_opac_v,Valid,25.0,72.0,0.1772818602890564,1.0,25
73,17,low_opac_v,Valid,25.0,73.0,0.0,1.0,25
74,17,low_opac_i,Invalid,25.0,74.0,0.0,1.0,25
75,17,low_opac_v,Valid,26.0,75.0,0.1221966302546498,0.0,26
76,17,low_opac_i,Invalid,26.0,76.0,0.3010446633060901,1.0,26
77,17,high_opac_v,Valid,26.0,77.0,0.0,1.0,26
78,17,low_opac_v,Valid,27.0,78.0,0.1359812963063938,0.0,27
79,17,low_opac_i,Invalid,27.0,79.0,0.2974686489408846,1.0,27
80,17,high_opac_v,Valid,27.0,80.0,0.1686105413607521,1.0,27
81,17,low_opac_i,Invalid,28.0,81.0,0.2941759048732243,1.0,28
82,17,low_opac_v,Valid,28.0,82.0,0.0,1.0,28
83,17,high_opac_v,Valid,28.0,83.0,0.0,1.0,28
84,17,low_opac_i,Invalid,29.0,84.0,0.0,0.0,29
85,17,high_opac_v,Valid,29.0,85.0,0.0,1.0,29
86,17,low_opac_v,Valid,29.0,86.0,0.1463964627776213,0.0,29
87,17,low_opac_i,Invalid,30.0,87.0,0.0,1.0,30
88,17,high_opac_v,Valid,30.0,88.0,0.1566095043075342,1.0,30
89,17,low_opac_v,Valid,30.0,89.0,0.1588191518273093,1.0,30
90,17,high_opac_v,Valid,31.0,90.0,0.0,1.0,31
91,17,low_opac_v,Valid,31.0,91.0,0.0,1.0,31
92,17,low_opac_i,Invalid,31.0,92.0,0.3002511745324082,1.0,31
93,17,high_opac_v,Valid,32.0,93.0,0.0,1.0,32
94,17,low_opac_v,Valid,32.0,94.0,0.1532755580102858,0.0,32
95,17,low_opac_i,Invalid,32.0,95.0,0.2973526202796396,1.0,32
96,17,low_opac_i,Invalid,33.0,96.0,0.2946534884982376,1.0,33
97,17,low_opac_v,Valid,33.0,97.0,0.0,1.0,33
98,17,high_opac_v,Valid,33.0,98.0,0.1457797629340741,1.0,33
99,17,low_opac_i,Invalid,34.0,99.0,0.2918671941226434,1.0,34
100,17,high_opac_v,Valid,34.0,100.0,0.0,1.0,34
101,17,low_opac_v,Valid,34.0,101.0,0.0,1.0,34
102,17,high_opac_v,Valid,35.0,102.0,0.0,1.0,35
103,17,low_opac_i,Invalid,35.0,103.0,0.2891783130161409,1.0,35
104,17,low_opac_v,Valid,35.0,104.0,0.158648332989014,1.0,35
105,17,low_opac_i,Invalid,36.0,105.0,0.2866483045164713,1.0,36
106,17,high_opac_v,Valid,36.0,106.0,0.1357168155446367,1.0,36
107,17,low_opac_v,Valid,36.0,107.0,0.0,1.0,36
108,17,low_opac_v,Valid,37.0,108.0,0.1539620421280601,0.0,37
109,17,high_opac_v,Valid,37.0,109.0,0.0,1.0,37
110,17,low_opac_i,Invalid,37.0,110.0,0.2842643359396323,0.0,37
111,17,low_opac_i,Invalid,38.0,111.0,0.0,1.0,38
112,17,low_opac_v,Valid,38.0,112.0,0.1630663742502319,1.0,38
113,17,high_opac_v,Valid,38.0,113.0,0.1293027546078783,0.0,38
114,17,low_opac_i,Invalid,39.0,114.0,0.0,1.0,39
115,17,low_opac_v,Valid,39.0,115.0,0.1607622417542756,0.0,39
116,17,high_opac_v,Valid,39.0,116.0,0.1418821495819674,0.0,39
117,17,low_opac_v,Valid,40.0,117.0,0.1695341532087851,1.0,40
118,17,low_opac_i,Invalid,40.0,118.0,0.0,1.0,40
119,17,high_opac_v,Valid,40.0,119.0,0.1527336393721435,1.0,40
120,17,low_opac_i,Invalid,41.0,120.0,0.2868852130330939,1.0,41
121,17,high_opac_v,Valid,41.0,121.0,0.1501329567263337,0.0,41
122,17,low_opac_v,Valid,41.0,122.0,0.167413776701569,1.0,41
123,17,low_opac_i,Invalid,42.0,123.0,0.0,1.0,42
124,17,low_opac_v,Valid,42.0,124.0,0.1654156509788798,1.0,42
125,17,high_opac_v,Valid,42.0,125.0,0.0,1.0,42
126,17,high_opac_v,Valid,43.0,126.0,0.1577238494420257,1.0,43
127,17,low_opac_v,Valid,43.0,127.0,0.0,1.0,43
128,17,low_opac_i,Invalid,43.0,128.0,0.0,1.0,43
129,17,low_opac_v,Valid,44.0,129.0,0.1614950922409085,1.0,44
130,17,low_opac_i,Invalid,44.0,130.0,0.0,1.0,44
131,17,high_opac_v,Valid,44.0,131.0,0.0,1.0,44
132,17,high_opac_v,Valid,45.0,132.0,0.0,1.0,45
133,17,low_opac_v,Valid,45.0,133.0,0.1595246181892018,1.0,45
134,17,low_opac_i,Invalid,45.0,134.0,0.0,1.0,45
135,17,high_opac_v,Valid,46.0,135.0,0.1511647485883421,1.0,46
136,17,low_opac_i,Invalid,46.0,136.0,0.2765923174169939,1.0,46
137,17,low_opac_v,Valid,46.0,137.0,0.0,1.0,46
138,17,low_opac_v,Valid,47.0,138.0,0.0,1.0,47
139,17,high_opac_v,Valid,47.0,139.0,0.0,0.0,47
140,17,low_opac_i,Invalid,47.0,140.0,0.0,1.0,47
141,17,low_opac_v,Valid,48.0,141.0,0.0,1.0,48
142,17,low_opac_i,Invalid,48.0,142.0,0.2728047524893192,1.0,48
143,17,high_opac_v,Valid,48.0,143.0,0.1574828199702758,1.0,48
144,17,low_opac_i,Invalid,49.0,144.0,0.2709046458384132,1.0,49
145,17,high_opac_v,Valid,49.0,145.0,0.0,0.0,49
146,17,low_opac_v,Valid,49.0,146.0,0.0,0.0,49
147,17,low_opac_i,Invalid,50.0,147.0,0.269029124692712,1.0,50
148,17,high_opac_v,Valid,50.0,148.0,0.1637235374384004,1.0,50
149,17,low_opac_v,Valid,50.0,149.0,0.1592153232375269,1.0,50
150,17,high_opac_v,Valid,51.0,150.0,0.1618170042613117,1.0,51
151,17,low_opac_v,Valid,51.0,151.0,0.0,1.0,51
152,17,low_opac_i,Invalid,51.0,152.0,0.267240621507529,1.0,51
153,17,low_opac_i,Invalid,52.0,153.0,0.2655343446268462,1.0,52
154,17,high_opac_v,Valid,52.0,154.0,0.1599403909893594,1.0,52
155,17,low_opac_v,Valid,52.0,155.0,0.1559680757500784,1.0,52
156,17,high_opac_v,Valid,53.0,156.0,0.158124320268767,1.0,53
157,17,low_opac_v,Valid,53.0,157.0,0.0,1.0,53
158,17,low_opac_i,Invalid,53.0,158.0,0.2638886054306144,1.0,53
159,17,high_opac_v,Valid,54.0,159.0,0.1564032489142328,0.0,54
160,17,low_opac_v,Valid,54.0,160.0,0.0,1.0,54
161,17,low_opac_i,Invalid,54.0,161.0,0.0,1.0,54
162,17,low_opac_i,Invalid,55.0,162.0,0.2604106793276388,1.0,55
163,17,low_opac_v,Valid,55.0,163.0,0.0,1.0,55
164,17,high_opac_v,Valid,55.0,164.0,0.0,0.0,55
165,17,high_opac_v,Valid,56.0,165.0,0.1702468751790001,1.0,56
166,17,low_opac_v,Valid,56.0,166.0,0.1496937555361951,0.0,56
167,17,low_opac_i,Invalid,56.0,167.0,0.0,1.0,56
168,17,low_opac_v,Valid,57.0,168.0,0.155794578165109,1.0,57
169,17,low_opac_i,Invalid,57.0,169.0,0.0,0.0,57
170,17,high_opac_v,Valid,57.0,170.0,0.0,1.0,57
171,17,high_opac_v,Valid,58.0,171.0,0.1670388159044089,0.0,58
172,17,low_opac_v,Valid,58.0,172.0,0.0,0.0,58
173,17,low_opac_i,Invalid,58.0,173.0,0.2638451304562716,1.0,58
174,17,low_opac_v,Valid,59.0,174.0,0.1600794387430201,1.0,59
175,17,high_opac_v,Valid,59.0,175.0,0.1735727345420948,1.0,59
176,17,low_opac_i,Invalid,59.0,176.0,0.2622732629043937,1.0,59
177,17,low_opac_v,Valid,60.0,177.0,0.0,1.0,60
178,17,low_opac_i,Invalid,60.0,178.0,0.0,1.0,60
179,17,high_opac_v,Valid,60.0,179.0,0.1720310378857261,1.0,60
180,17,high_opac_v,Valid,61.0,180.0,0.0,1.0,61
181,17,low_opac_v,Valid,61.0,181.0,0.1572913006263717,1.0,61
182,17,low_opac_i,Invalid,61.0,182.0,0.0,1.0,61
183,17,high_opac_v,Valid,62.0,183.0,0.1690036158258492,0.0,62
184,17,low_opac_v,Valid,62.0,184.0,0.1559897614225633,1.0,62
185,17,low_opac_i,Invalid,62.0,185.0,0.0,1.0,62
186,17,low_opac_i,Invalid,63.0,186.0,0.2562581373196407,1.0,63
187,17,low_opac_v,Valid,63.0,187.0,0.0,1.0,63
188,17,high_opac_v,Valid,63.0,188.0,0.174944867299341,1.0,63
189,17,low_opac_v,Valid,64.0,189.0,0.0,1.0,64
190,17,low_opac_i,Invalid,64.0,190.0,0.2548825596887746,1.0,64
191,17,high_opac_v,Valid,64.0,191.0,0.1735150912747001,0.0,64
192,17,low_opac_i,Invalid,65.0,192.0,0.2534214231656632,1.0,65
193,17,low_opac_v,Valid,65.0,193.0,0.1520848715467288,0.0,65
194,17,high_opac_v,Valid,65.0,194.0,0.0,0.0,65
195,17,low_opac_i,Invalid,66.0,195.0,0.2519825256419096,1.0,66
196,17,high_opac_v,Valid,66.0,196.0,0.0,1.0,66
197,17,low_opac_v,Valid,66.0,197.0,0.0,1.0,66
198,17,high_opac_v,Valid,67.0,198.0,0.0,1.0,67
199,17,low_opac_v,Valid,67.0,199.0,0.1559482614093724,1.0,67
200,17,low_opac_i,Invalid,67.0,200.0,0.0,1.0,67
201,17,low_opac_v,Valid,68.0,201.0,0.154792095250277,1.0,68
202,17,high_opac_v,Valid,68.0,202.0,0.0,1.0,68
203,17,low_opac_i,Invalid,68.0,203.0,0.249118511357441,1.0,68
204,17,low_opac_i,Invalid,69.0,204.0,0.2477397791883734,1.0,69
205,17,low_opac_v,Valid,69.0,205.0,0.1535628929847526,1.0,69
206,17,high_opac_v,Valid,69.0,206.0,0.1805777308820572,1.0,69
207,17,low_opac_i,Invalid,70.0,207.0,0.0,0.0,70
208,17,low_opac_v,Valid,70.0,208.0,0.1523529109033463,0.0,70
209,17,high_opac_v,Valid,70.0,209.0,0.1792745259529178,1.0,70
210,17,low_opac_i,Invalid,71.0,210.0,0.0,1.0,71
211,17,high_opac_v,Valid,71.0,211.0,0.1780292952449685,1.0,71
212,17,low_opac_v,Valid,71.0,212.0,0.1570158720802752,0.0,71
213,17,low_opac_i,Invalid,72.0,213.0,0.2508052345288192,1.0,72
214,17,low_opac_v,Valid,72.0,214.0,0.1619351475728876,1.0,72
215,17,high_opac_v,Valid,72.0,215.0,0.1768378600269708,1.0,72
216,17,low_opac_v,Valid,73.0,216.0,0.1607711204191251,1.0,73
217,17,high_opac_v,Valid,73.0,217.0,0.1756893317585519,1.0,73
218,17,low_opac_i,Invalid,73.0,218.0,0.0,0.0,73
219,17,high_opac_v,Valid,74.0,219.0,0.0,0.0,74
220,17,low_opac_i,Invalid,74.0,220.0,0.0,1.0,74
221,17,low_opac_v,Valid,74.0,221.0,0.0,0.0,74
222,17,high_opac_v,Valid,75.0,222.0,0.1791900885559501,1.0,75
223,17,low_opac_v,Valid,75.0,223.0,0.1641867261001664,1.0,75
224,17,low_opac_i,Invalid,75.0,224.0,0.0,1.0,75
0,18,high_opac_v,Valid,1.0,0.0,0.0,1.0,1
1,18,low_opac_i,Invalid,1.0,1.0,0.4,1.0,1
2,18,low_opac_v,Valid,1.0,2.0,0.4,1.0,1
3,18,high_opac_v,Valid,2.0,3.0,0.01,0.0,2
4,18,low_opac_i,Invalid,2.0,4.0,0.01,0.0,2
5,18,low_opac_v,Valid,2.0,5.0,0.0,1.0,2
6,18,low_opac_v,Valid,3.0,6.0,0.0,1.0,3
7,18,high_opac_v,Valid,3.0,7.0,0.0,1.0,3
8,18,low_opac_i,Invalid,3.0,8.0,0.3144098688205103,1.0,3
9,18,high_opac_v,Valid,4.0,9.0,0.0,1.0,4
10,18,low_opac_i,Invalid,4.0,10.0,0.2356115953941183,1.0,4
11,18,low_opac_v,Valid,4.0,11.0,0.01,0.0,4
12,18,low_opac_v,Valid,5.0,12.0,0.0158587974367983,0.0,5
13,18,high_opac_v,Valid,5.0,13.0,0.01,0.0,5
14,18,low_opac_i,Invalid,5.0,14.0,0.1841780991895161,1.0,5
15,18,low_opac_i,Invalid,6.0,15.0,0.14081453445857,0.0,6
16,18,high_opac_v,Valid,6.0,16.0,0.0,1.0,6
17,18,low_opac_v,Valid,6.0,17.0,0.0,1.0,6
18,18,high_opac_v,Valid,7.0,18.0,0.0928072826453846,0.0,7
19,18,low_opac_i,Invalid,7.0,19.0,0.0,1.0,7
20,18,low_opac_v,Valid,7.0,20.0,0.1140207489410681,0.0,7
21,18,low_opac_v,Valid,8.0,21.0,0.1764655100373007,1.0,8
22,18,low_opac_i,Invalid,8.0,22.0,0.0,0.0,8
23,18,high_opac_v,Valid,8.0,23.0,0.0,1.0,8
24,18,low_opac_i,Invalid,9.0,24.0,0.2737805299809524,1.0,9
25,18,high_opac_v,Valid,9.0,25.0,0.0,1.0,9
26,18,low_opac_v,Valid,9.0,26.0,0.1603944336232899,0.0,9
27,18,low_opac_i,Invalid,10.0,27.0,0.0,0.0,10
28,18,high_opac_v,Valid,10.0,28.0,0.0,1.0,10
29,18,low_opac_v,Valid,10.0,29.0,0.0,1.0,10
30,18,low_opac_v,Valid,11.0,30.0,0.0,1.0,11
31,18,high_opac_v,Valid,11.0,31.0,0.1102864418535224,0.0,11
32,18,low_opac_i,Invalid,11.0,32.0,0.0,1.0,11
33,18,high_opac_v,Valid,12.0,33.0,0.0,1.0,12
34,18,low_opac_i,Invalid,12.0,34.0,0.2913465019310228,1.0,12
35,18,low_opac_v,Valid,12.0,35.0,0.1864009602219999,1.0,12
36,18,low_opac_v,Valid,13.0,36.0,0.1773385409396926,1.0,13
37,18,low_opac_i,Invalid,13.0,37.0,0.0,1.0,13
38,18,high_opac_v,Valid,13.0,38.0,0.0,1.0,13
39,18,low_opac_v,Valid,14.0,39.0,0.0,1.0,14
40,18,high_opac_v,Valid,14.0,40.0,0.1271771630083495,0.0,14
41,18,low_opac_i,Invalid,14.0,41.0,0.0,0.0,14
42,18,low_opac_v,Valid,15.0,42.0,0.1616783693187887,1.0,15
43,18,high_opac_v,Valid,15.0,43.0,0.0,1.0,15
44,18,low_opac_i,Invalid,15.0,44.0,0.3012303165967949,1.0,15
45,18,low_opac_v,Valid,16.0,45.0,0.154638762392476,1.0,16
46,18,low_opac_i,Invalid,16.0,46.0,0.0,1.0,16
47,18,high_opac_v,Valid,16.0,47.0,0.0,1.0,16
48,18,high_opac_v,Valid,17.0,48.0,0.0,1.0,17
49,18,low_opac_i,Invalid,17.0,49.0,0.0,1.0,17
50,18,low_opac_v,Valid,17.0,50.0,0.1479488406855044,1.0,17
51,18,high_opac_v,Valid,18.0,51.0,0.1357306854595066,0.0,18
52,18,low_opac_i,Invalid,18.0,52.0,0.2826195834373513,1.0,18
53,18,low_opac_v,Valid,18.0,53.0,0.0,1.0,18
54,18,low_opac_i,Invalid,19.0,54.0,0.2771731221045563,1.0,19
55,18,low_opac_v,Valid,19.0,55.0,0.0,1.0,19
56,18,high_opac_v,Valid,19.0,56.0,0.1556016538217398,1.0,19
57,18,low_opac_v,Valid,20.0,57.0,0.0,1.0,20
58,18,high_opac_v,Valid,20.0,58.0,0.1511081023860445,1.0,20
59,18,low_opac_i,Invalid,20.0,59.0,0.2723019136627392,1.0,20
60,18,low_opac_v,Valid,21.0,60.0,0.1259078379151479,0.0,21
61,18,high_opac_v,Valid,21.0,61.0,0.1466646950978903,1.0,21
62,18,low_opac_i,Invalid,21.0,62.0,0.0,0.0,21
63,18,high_opac_v,Valid,22.0,63.0,0.1426456914831581,1.0,22
64,18,low_opac_v,Valid,22.0,64.0,0.0,0.0,22
65,18,low_opac_i,Invalid,22.0,65.0,0.2854320930237314,1.0,22
66,18,high_opac_v,Valid,23.0,66.0,0.0,1.0,23
67,18,low_opac_v,Valid,23.0,67.0,0.1630209719595101,1.0,23
68,18,low_opac_i,Invalid,23.0,68.0,0.0,0.0,23
69,18,low_opac_i,Invalid,24.0,69.0,0.0,1.0,24
70,18,high_opac_v,Valid,24.0,70.0,0.0,1.0,24
71,18,low_opac_v,Valid,24.0,71.0,0.1588555737945602,1.0,24
72,18,low_opac_i,Invalid,25.0,72.0,0.2933598206111723,1.0,25
73,18,high_opac_v,Valid,25.0,73.0,0.1311604748768046,1.0,25
74,18,low_opac_v,Valid,25.0,74.0,0.1550527243343906,1.0,25
75,18,low_opac_v,Valid,26.0,75.0,0.1515304858061617,1.0,26
76,18,low_opac_i,Invalid,26.0,76.0,0.0,1.0,26
77,18,high_opac_v,Valid,26.0,77.0,0.1276568789535963,0.0,26
78,18,high_opac_v,Valid,27.0,78.0,0.0,1.0,27
79,18,low_opac_i,Invalid,27.0,79.0,0.2862289539287569,1.0,27
80,18,low_opac_v,Valid,27.0,80.0,0.0,1.0,27
81,18,low_opac_i,Invalid,28.0,81.0,0.0,1.0,28
82,18,high_opac_v,Valid,28.0,82.0,0.0,1.0,28
83,18,low_opac_v,Valid,28.0,83.0,0.0,1.0,28
84,18,high_opac_v,Valid,29.0,84.0,0.1349692868330696,0.0,29
85,18,low_opac_v,Valid,29.0,85.0,0.0,1.0,29
86,18,low_opac_i,Invalid,29.0,86.0,0.0,1.0,29
87,18,low_opac_i,Invalid,30.0,87.0,0.0,1.0,30
88,18,high_opac_v,Valid,30.0,88.0,0.1462956960899197,0.0,30
89,18,low_opac_v,Valid,30.0,89.0,0.0,1.0,30
90,18,low_opac_v,Valid,31.0,90.0,0.0,1.0,31
91,18,high_opac_v,Valid,31.0,91.0,0.1578797889583536,0.0,31
92,18,low_opac_i,Invalid,31.0,92.0,0.0,1.0,31
93,18,high_opac_v,Valid,32.0,93.0,0.1690062903841254,0.0,32
94,18,low_opac_i,Invalid,32.0,94.0,0.2709122146326661,1.0,32
95,18,low_opac_v,Valid,32.0,95.0,0.0,1.0,32
96,18,low_opac_i,Invalid,33.0,96.0,0.2680841210933808,1.0,33
97,18,low_opac_v,Valid,33.0,97.0,0.1289321711366295,0.0,33
98,18,high_opac_v,Valid,33.0,98.0,0.0,1.0,33
99,18,high_opac_v,Valid,34.0,99.0,0.1771998871401963,1.0,34
100,18,low_opac_v,Valid,34.0,100.0,0.1402889449514494,1.0,34
101,18,low_opac_i,Invalid,34.0,101.0,0.265444267952857,1.0,34
102,18,low_opac_i,Invalid,35.0,102.0,0.2629448577375468,1.0,35
103,18,high_opac_v,Valid,35.0,103.0,0.0,1.0,35
104,18,low_opac_v,Valid,35.0,104.0,0.0,1.0,35
105,18,low_opac_i,Invalid,36.0,105.0,0.0,1.0,36
106,18,low_opac_v,Valid,36.0,106.0,0.0,1.0,36
107,18,high_opac_v,Valid,36.0,107.0,0.1722903101686266,0.0,36
108,18,low_opac_v,Valid,37.0,108.0,0.1327645936766586,0.0,37
109,18,low_opac_i,Invalid,37.0,109.0,0.2577943792732141,1.0,37
110,18,high_opac_v,Valid,37.0,110.0,0.0,1.0,37
111,18,low_opac_v,Valid,38.0,111.0,0.0,1.0,38
112,18,high_opac_v,Valid,38.0,112.0,0.0,1.0,38
113,18,low_opac_i,Invalid,38.0,113.0,0.2554227532299234,1.0,38
114,18,high_opac_v,Valid,39.0,114.0,0.1770666304051324,1.0,39
115,18,low_opac_v,Valid,39.0,115.0,0.0,1.0,39
116,18,low_opac_i,Invalid,39.0,116.0,0.2531628738136644,1.0,39
117,18,low_opac_i,Invalid,40.0,117.0,0.0,1.0,40
118,18,low_opac_v,Valid,40.0,118.0,0.1377363091760172,1.0,40
119,18,high_opac_v,Valid,40.0,119.0,0.1749901412285968,1.0,40
120,18,low_opac_v,Valid,41.0,120.0,0.0,1.0,41
121,18,high_opac_v,Valid,41.0,121.0,0.0,1.0,41
122,18,low_opac_i,Invalid,41.0,122.0,0.2484511316062874,1.0,41
123,18,low_opac_i,Invalid,42.0,123.0,0.0,1.0,42
124,18,high_opac_v,Valid,42.0,124.0,0.1707396090508192,0.0,42
125,18,low_opac_v,Valid,42.0,125.0,0.0,1.0,42
126,18,low_opac_v,Valid,43.0,126.0,0.0,1.0,43
127,18,low_opac_i,Invalid,43.0,127.0,0.0,0.0,43
128,18,high_opac_v,Valid,43.0,128.0,0.1787370516851061,1.0,43
129,18,low_opac_i,Invalid,44.0,129.0,0.0,1.0,44
130,18,low_opac_v,Valid,44.0,130.0,0.0,1.0,44
131,18,high_opac_v,Valid,44.0,131.0,0.0,1.0,44
132,18,high_opac_v,Valid,45.0,132.0,0.0,1.0,45
133,18,low_opac_v,Valid,45.0,133.0,0.0,1.0,45
134,18,low_opac_i,Invalid,45.0,134.0,0.0,1.0,45
135,18,low_opac_v,Valid,46.0,135.0,0.1253513538275041,1.0,46
136,18,low_opac_i,Invalid,46.0,136.0,0.2484966986532083,1.0,46
137,18,high_opac_v,Valid,46.0,137.0,0.1732620257440258,1.0,46
138,18,low_opac_v,Valid,47.0,138.0,0.0,1.0,47
139,18,high_opac_v,Valid,47.0,139.0,0.1714137372518652,1.0,47
140,18,low_opac_i,Invalid,47.0,140.0,0.2465728286125563,1.0,47
141,18,low_opac_i,Invalid,48.0,141.0,0.0,1.0,48
142,18,high_opac_v,Valid,48.0,142.0,0.1695974463522603,1.0,48
143,18,low_opac_v,Valid,48.0,143.0,0.0,1.0,48
