trials.label,trials.startVal,trials.maxVal,trials.minVal,trials.startValSd,trials.pthreshold,trials.beta,trials.delta,trials.gamma,trials.grain,trials.stepSize,trials.range,trials.cue,trials.thisIndex,trials.thisRepN,trials.thisN,trials.direction,trials.stepType,trials.intensity,signalOpacity,stair_response_correct,level,trials.response,stair_eye_ok,nTrial,position,validity,Stimulus,orientation,response_key,response_rt,response_correct,confidence,confidence_rt,eye_ok,trial_rep,participant,session,date,expName,psychopyVersion,
low_opac_i,0.4,1,0.01,3,0.82,3.5,0.01,0,0.01,4,5,Invalid,2,1,0,start,lin,0.4,0.4,1,0.4,1,True,,,,,,,,,,,,,17,A,2023-09-14_12h45.10.334,exp3,2022.2.2,
low_opac_v,0.4,1,0.01,3,0.82,3.5,0.01,0,0.01,4,5,Valid,0,1,1,start,lin,0.4,0,1,0.4,1,True,,,,,,,,,,,,,17,A,2023-09-14_12h45.10.334,exp3,2022.2.2,
high_opac_v,0.01,1,0.01,3,0.82,3.5,0.01,0,0.01,4,5,Valid,1,1,2,start,lin,0.01,0.01,0,0.01,0,True,,,,,,,,,,,,,17,A,2023-09-14_12h45.10.334,exp3,2022.2.2,
low_opac_i,0.4,1,0.01,3,0.82,3.5,0.01,0,0.01,4,5,Invalid,2,2,3,start,lin,0.01,0,1,0.01,1,True,,,,,,,,,,,,,17,A,2023-09-14_12h45.10.334,exp3,2022.2.2,
low_opac_v,0.4,1,0.01,3,0.82,3.5,0.01,0,0.01,4,5,Valid,0,2,4,start,lin,0.01,0,1,0.01,1,True,,,,,,,,,,,,,17,A,2023-09-14_12h45.10.334,exp3,2022.2.2,
high_opac_v,0.01,1,0.01,3,0.82,3.5,0.01,0,0.01,4,5,Valid,1,2,5,start,lin,1,1,1,1,1,True,,,,,,,,,,,,,17,A,2023-09-14_12h45.10.334,exp3,2022.2.2,
high_opac_v,0.01,1,0.01,3,0.82,3.5,0.01,0,0.01,4,5,Valid,1,3,6,start,lin,0.6092784667527542,0,1,0.6092784667527542,1,True,,,,,,,,,,,,,17,A,2023-09-14_12h45.10.334,exp3,2022.2.2,
low_opac_v,0.4,1,0.01,3,0.82,3.5,0.01,0,0.01,4,5,Valid,0,3,7,start,lin,0.01,0.01,0,0.01,0,True,,,,,,,,,,,,,17,A,2023-09-14_12h45.10.334,exp3,2022.2.2,
low_opac_i,0.4,1,0.01,3,0.82,3.5,0.01,0,0.01,4,5,Invalid,2,3,8,start,lin,0.01,0.01,0,0.01,0,True,,,,,,,,,,,,,17,A,2023-09-14_12h45.10.334,exp3,2022.2.2,
low_opac_v,0.4,1,0.01,3,0.82,3.5,0.01,0,0.01,4,5,Valid,0,4,9,start,lin,0.11291000027026754,0,1,0.11291000027026754,1,True,,,,,,,,,,,,,17,A,2023-09-14_12h45.10.334,exp3,2022.2.2,
low_opac_i,0.4,1,0.01,3,0.82,3.5,0.01,0,0.01,4,5,Invalid,2,4,10,start,lin,0.11291000027026754,0.11291000027026754,0,0.11291000027026754,0,True,,,,,,,,,,,,,17,A,2023-09-14_12h45.10.334,exp3,2022.2.2,
high_opac_v,0.01,1,0.01,3,0.82,3.5,0.01,0,0.01,4,5,Valid,1,4,11,start,lin,0.41662067589367746,0,1,0.41662067589367746,1,True,,,,,,,,,,,,,17,A,2023-09-14_12h45.10.334,exp3,2022.2.2,
high_opac_v,0.01,1,0.01,3,0.82,3.5,0.01,0,0.01,4,5,Valid,1,5,12,start,lin,0.3073330120243674,0,1,0.3073330120243674,1,True,,,,,,,,,,,,,17,A,2023-09-14_12h45.10.334,exp3,2022.2.2,
low_opac_i,0.4,1,0.01,3,0.82,3.5,0.01,0,0.01,4,5,Invalid,2,5,13,start,lin,0.25314932607177676,0,1,0.25314932607177676,1,True,,,,,,,,,,,,,17,A,2023-09-14_12h45.10.334,exp3,2022.2.2,
low_opac_v,0.4,1,0.01,3,0.82,3.5,0.01,0,0.01,4,5,Valid,0,5,14,start,lin,0.055546079649276214,0.055546079649276214,0,0.055546079649276214,0,True,,,,,,,,,,,,,17,A,2023-09-14_12h45.10.334,exp3,2022.2.2,
low_opac_i,0.4,1,0.01,3,0.82,3.5,0.01,0,0.01,4,5,Invalid,2,6,15,start,lin,0.21753143105922565,0.21753143105922565,0,0.21753143105922565,0,True,,,,,,,,,,,,,17,A,2023-09-14_12h45.10.334,exp3,2022.2.2,
high_opac_v,0.01,1,0.01,3,0.82,3.5,0.01,0,0.01,4,5,Valid,1,6,16,start,lin,0.2346279982429363,0,1,0.2346279982429363,1,True,,,,,,,,,,,,,17,A,2023-09-14_12h45.10.334,exp3,2022.2.2,
low_opac_v,0.4,1,0.01,3,0.82,3.5,0.01,0,0.01,4,5,Valid,0,6,17,start,lin,0.16915316766928282,0,1,0.16915316766928282,1,True,,,,,,,,,,,,,17,A,2023-09-14_12h45.10.334,exp3,2022.2.2,
high_opac_v,0.01,1,0.01,3,0.82,3.5,0.01,0,0.01,4,5,Valid,1,7,18,start,lin,0.1783883928663719,0.1783883928663719,0,0.1783883928663719,0,True,,,,,,,,,,,,,17,A,2023-09-14_12h45.10.334,exp3,2022.2.2,
low_opac_v,0.4,1,0.01,3,0.82,3.5,0.01,0,0.01,4,5,Valid,0,7,19,start,lin,0.14521080678131015,0.14521080678131015,1,0.14521080678131015,1,True,,,,,,,,,,,,,17,A,2023-09-14_12h45.10.334,exp3,2022.2.2,
low_opac_i,0.4,1,0.01,3,0.82,3.5,0.01,0,0.01,4,5,Invalid,2,7,20,start,lin,0.2997872096482731,0,1,0.2997872096482731,1,True,,,,,,,,,,,,,17,A,2023-09-14_12h45.10.334,exp3,2022.2.2,
low_opac_i,0.4,1,0.01,3,0.82,3.5,0.01,0,0.01,4,5,Invalid,2,8,21,start,lin,0.2795004189811647,0,1,0.2795004189811647,1,True,,,,,,,,,,,,,17,A,2023-09-14_12h45.10.334,exp3,2022.2.2,
high_opac_v,0.01,1,0.01,3,0.82,3.5,0.01,0,0.01,4,5,Valid,1,8,22,start,lin,0.29042804759984947,0.29042804759984947,1,0.29042804759984947,1,True,,,,,,,,,,,,,17,A,2023-09-14_12h45.10.334,exp3,2022.2.2,
low_opac_v,0.4,1,0.01,3,0.82,3.5,0.01,0,0.01,4,5,Valid,0,8,23,start,lin,0.12730956115660075,0.12730956115660075,1,0.12730956115660075,1,True,,,,,,,,,,,,,17,A,2023-09-14_12h45.10.334,exp3,2022.2.2,
low_opac_v,0.4,1,0.01,3,0.82,3.5,0.01,0,0.01,4,5,Valid,0,9,24,start,lin,0.11237162559530067,0.11237162559530067,1,0.11237162559530067,1,True,,,,,,,,,,,,,17,A,2023-09-14_12h45.10.334,exp3,2022.2.2,
high_opac_v,0.01,1,0.01,3,0.82,3.5,0.01,0,0.01,4,5,Valid,1,9,25,start,lin,0.2669803445880432,0,1,0.2669803445880432,1,True,,,,,,,,,,,,,17,A,2023-09-14_12h45.10.334,exp3,2022.2.2,
low_opac_i,0.4,1,0.01,3,0.82,3.5,0.01,0,0.01,4,5,Invalid,2,9,26,start,lin,0.2633017344012175,0.2633017344012175,1,0.2633017344012175,1,True,,,,,,,,,,,,,17,A,2023-09-14_12h45.10.334,exp3,2022.2.2,
high_opac_v,0.01,1,0.01,3,0.82,3.5,0.01,0,0.01,4,5,Valid,1,10,27,start,lin,0.24842400969945427,0.24842400969945427,1,0.24842400969945427,1,True,,,,,,,,,,,,,17,A,2023-09-14_12h45.10.334,exp3,2022.2.2,
low_opac_v,0.4,1,0.01,3,0.82,3.5,0.01,0,0.01,4,5,Valid,0,10,28,start,lin,0.0990055231818932,0.0990055231818932,1,0.0990055231818932,1,True,,,,,,,,,,,,,17,A,2023-09-14_12h45.10.334,exp3,2022.2.2,
low_opac_i,0.4,1,0.01,3,0.82,3.5,0.01,0,0.01,4,5,Invalid,2,10,29,start,lin,0.24925583138360458,0,0,0.24925583138360458,0,True,,,,,,,,,,,,,17,A,2023-09-14_12h45.10.334,exp3,2022.2.2,
high_opac_v,0.01,1,0.01,3,0.82,3.5,0.01,0,0.01,4,5,Valid,1,11,30,start,lin,0.23250044039265666,0,1,0.23250044039265666,1,True,,,,,,,,,,,,,17,A,2023-09-14_12h45.10.334,exp3,2022.2.2,
low_opac_i,0.4,1,0.01,3,0.82,3.5,0.01,0,0.01,4,5,Invalid,2,11,31,start,lin,0.29229658161784966,0,0,0.29229658161784966,0,True,,,,,,,,,,,,,17,A,2023-09-14_12h45.10.334,exp3,2022.2.2,
low_opac_v,0.4,1,0.01,3,0.82,3.5,0.01,0,0.01,4,5,Valid,0,11,32,start,lin,0.08742720975672519,0,0,0.08742720975672519,0,True,,,,,,,,,,,,,17,A,2023-09-14_12h45.10.334,exp3,2022.2.2,
high_opac_v,0.01,1,0.01,3,0.82,3.5,0.01,0,0.01,4,5,Valid,1,12,33,start,lin,0.21807319849836715,0.21807319849836715,1,0.21807319849836715,1,True,,,,,,,,,,,,,17,A,2023-09-14_12h45.10.334,exp3,2022.2.2,
low_opac_i,0.4,1,0.01,3,0.82,3.5,0.01,0,0.01,4,5,Invalid,2,12,34,start,lin,0.32960546697459686,0.32960546697459686,1,0.32960546697459686,1,True,,,,,,,,,,,,,17,A,2023-09-14_12h45.10.334,exp3,2022.2.2,
low_opac_v,0.4,1,0.01,3,0.82,3.5,0.01,0,0.01,4,5,Valid,0,12,35,start,lin,0.12612482153839238,0,0,0.12612482153839238,0,True,,,,,,,,,,,,,17,A,2023-09-14_12h45.10.334,exp3,2022.2.2,
low_opac_i,0.4,1,0.01,3,0.82,3.5,0.01,0,0.01,4,5,Invalid,2,13,36,start,lin,0.3202878408326684,0,1,0.3202878408326684,1,True,,,,,,,,,,,,,17,A,2023-09-14_12h45.10.334,exp3,2022.2.2,
low_opac_v,0.4,1,0.01,3,0.82,3.5,0.01,0,0.01,4,5,Valid,0,13,37,start,lin,0.1591710767649038,0.1591710767649038,1,0.1591710767649038,1,True,,,,,,,,,,,,,17,A,2023-09-14_12h45.10.334,exp3,2022.2.2,
high_opac_v,0.01,1,0.01,3,0.82,3.5,0.01,0,0.01,4,5,Valid,1,13,38,start,lin,0.20553682141052967,0.20553682141052967,1,0.20553682141052967,1,True,,,,,,,,,,,,,17,A,2023-09-14_12h45.10.334,exp3,2022.2.2,
low_opac_i,0.4,1,0.01,3,0.82,3.5,0.01,0,0.01,4,5,Invalid,2,14,39,start,lin,0.3119840141207176,0.3119840141207176,1,0.3119840141207176,1,True,,,,,,,,,,,,,17,A,2023-09-14_12h45.10.334,exp3,2022.2.2,
high_opac_v,0.01,1,0.01,3,0.82,3.5,0.01,0,0.01,4,5,Valid,1,14,40,start,lin,0.19428185940574685,0.19428185940574685,1,0.19428185940574685,1,True,,,,,,,,,,,,,17,A,2023-09-14_12h45.10.334,exp3,2022.2.2,
low_opac_v,0.4,1,0.01,3,0.82,3.5,0.01,0,0.01,4,5,Valid,0,14,41,start,lin,0.15137018510344405,0,1,0.15137018510344405,1,True,,,,,,,,,,,,,17,A,2023-09-14_12h45.10.334,exp3,2022.2.2,
low_opac_v,0.4,1,0.01,3,0.82,3.5,0.01,0,0.01,4,5,Valid,0,15,42,start,lin,0.14418366468924748,0.14418366468924748,0,0.14418366468924748,0,True,,,,,,,,,,,,,17,A,2023-09-14_12h45.10.334,exp3,2022.2.2,
high_opac_v,0.01,1,0.01,3,0.82,3.5,0.01,0,0.01,4,5,Valid,1,15,43,start,lin,0.1830142054706955,0,1,0.1830142054706955,1,True,,,,,,,,,,,,,17,A,2023-09-14_12h45.10.334,exp3,2022.2.2,
low_opac_i,0.4,1,0.01,3,0.82,3.5,0.01,0,0.01,4,5,Invalid,2,15,44,start,lin,0.3043800880505409,0,0,0.3043800880505409,0,True,,,,,,,,,,,,,17,A,2023-09-14_12h45.10.334,exp3,2022.2.2,
low_opac_v,0.4,1,0.01,3,0.82,3.5,0.01,0,0.01,4,5,Valid,0,16,45,start,lin,0.16861516316227138,0.16861516316227138,1,0.16861516316227138,1,True,,,,,,,,,,,,,17,A,2023-09-14_12h45.10.334,exp3,2022.2.2,
low_opac_i,0.4,1,0.01,3,0.82,3.5,0.01,0,0.01,4,5,Invalid,2,16,46,start,lin,0.32987927336465706,0.32987927336465706,1,0.32987927336465706,1,True,,,,,,,,,,,,,17,A,2023-09-14_12h45.10.334,exp3,2022.2.2,
high_opac_v,0.01,1,0.01,3,0.82,3.5,0.01,0,0.01,4,5,Valid,1,16,47,start,lin,0.1724293594033535,0,1,0.1724293594033535,1,True,,,,,,,,,,,,,17,A,2023-09-14_12h45.10.334,exp3,2022.2.2,
low_opac_i,0.4,1,0.01,3,0.82,3.5,0.01,0,0.01,4,5,Invalid,2,17,48,start,lin,0.3235453733432455,0.3235453733432455,1,0.3235453733432455,1,True,,,,,,,,,,,,,17,A,2023-09-14_12h45.10.334,exp3,2022.2.2,
low_opac_v,0.4,1,0.01,3,0.82,3.5,0.01,0,0.01,4,5,Valid,0,17,49,start,lin,0.16258528439135275,0,1,0.16258528439135275,1,True,,,,,,,,,,,,,17,A,2023-09-14_12h45.10.334,exp3,2022.2.2,
high_opac_v,0.01,1,0.01,3,0.82,3.5,0.01,0,0.01,4,5,Valid,1,17,50,start,lin,0.16228690834482773,0,1,0.16228690834482773,1,True,,,,,,,,,,,,,17,A,2023-09-14_12h45.10.334,exp3,2022.2.2,
low_opac_i,0.4,1,0.01,3,0.82,3.5,0.01,0,0.01,4,5,Invalid,2,18,51,start,lin,0.3174998613108704,0,1,0.3174998613108704,1,True,,,,,,,,,,,,,17,A,2023-09-14_12h45.10.334,exp3,2022.2.2,
high_opac_v,0.01,1,0.01,3,0.82,3.5,0.01,0,0.01,4,5,Valid,1,18,52,start,lin,0.15238830443800375,0,0,0.15238830443800375,0,True,,,,,,,,,,,,,17,A,2023-09-14_12h45.10.334,exp3,2022.2.2,
low_opac_v,0.4,1,0.01,3,0.82,3.5,0.01,0,0.01,4,5,Valid,0,18,53,start,lin,0.15680574000737604,0,1,0.15680574000737604,1,True,,,,,,,,,,,,,17,A,2023-09-14_12h45.10.334,exp3,2022.2.2,
high_opac_v,0.01,1,0.01,3,0.82,3.5,0.01,0,0.01,4,5,Valid,1,19,54,start,lin,0.1853040583979701,0,1,0.1853040583979701,1,True,,,,,,,,,,,,,17,A,2023-09-14_12h45.10.334,exp3,2022.2.2,
low_opac_i,0.4,1,0.01,3,0.82,3.5,0.01,0,0.01,4,5,Invalid,2,19,55,start,lin,0.3121782558289862,0.3121782558289862,1,0.3121782558289862,1,True,,,,,,,,,,,,,17,A,2023-09-14_12h45.10.334,exp3,2022.2.2,
low_opac_v,0.4,1,0.01,3,0.82,3.5,0.01,0,0.01,4,5,Valid,0,19,56,start,lin,0.15170052604702455,0,1,0.15170052604702455,1,True,,,,,,,,,,,,,17,A,2023-09-14_12h45.10.334,exp3,2022.2.2,
low_opac_i,0.4,1,0.01,3,0.82,3.5,0.01,0,0.01,4,5,Invalid,2,20,57,start,lin,0.30696844684122915,0.30696844684122915,1,0.30696844684122915,1,True,,,,,,,,,,,,,17,A,2023-09-14_12h45.10.334,exp3,2022.2.2,
low_opac_v,0.4,1,0.01,3,0.82,3.5,0.01,0,0.01,4,5,Valid,0,20,58,start,lin,0.14669364866226026,0,1,0.14669364866226026,1,True,,,,,,,,,,,,,17,A,2023-09-14_12h45.10.334,exp3,2022.2.2,
high_opac_v,0.01,1,0.01,3,0.82,3.5,0.01,0,0.01,4,5,Valid,1,20,59,start,lin,0.17906370791256562,0,1,0.17906370791256562,1,True,,,,,,,,,,,,,17,A,2023-09-14_12h45.10.334,exp3,2022.2.2,
low_opac_i,0.4,1,0.01,3,0.82,3.5,0.01,0,0.01,4,5,Invalid,2,21,60,start,lin,0.3023017712912559,0,1,0.3023017712912559,1,True,,,,,,,,,,,,,17,A,2023-09-14_12h45.10.334,exp3,2022.2.2,
low_opac_v,0.4,1,0.01,3,0.82,3.5,0.01,0,0.01,4,5,Valid,0,21,61,start,lin,0.14219823711745094,0.14219823711745094,1,0.14219823711745094,1,True,,,,,,,,,,,,,17,A,2023-09-14_12h45.10.334,exp3,2022.2.2,
high_opac_v,0.01,1,0.01,3,0.82,3.5,0.01,0,0.01,4,5,Valid,1,21,62,start,lin,0.1729619610757169,0.1729619610757169,1,0.1729619610757169,1,True,,,,,,,,,,,,,17,A,2023-09-14_12h45.10.334,exp3,2022.2.2,
low_opac_v,0.4,1,0.01,3,0.82,3.5,0.01,0,0.01,4,5,Valid,0,22,63,start,lin,0.13770413651702906,0,1,0.13770413651702906,1,True,,,,,,,,,,,,,17,A,2023-09-14_12h45.10.334,exp3,2022.2.2,
low_opac_i,0.4,1,0.01,3,0.82,3.5,0.01,0,0.01,4,5,Invalid,2,22,64,start,lin,0.29764681135366855,0.29764681135366855,1,0.29764681135366855,1,True,,,,,,,,,,,,,17,A,2023-09-14_12h45.10.334,exp3,2022.2.2,
high_opac_v,0.01,1,0.01,3,0.82,3.5,0.01,0,0.01,4,5,Valid,1,22,65,start,lin,0.1669248443866244,0.1669248443866244,1,0.1669248443866244,1,True,,,,,,,,,,,,,17,A,2023-09-14_12h45.10.334,exp3,2022.2.2,
low_opac_v,0.4,1,0.01,3,0.82,3.5,0.01,0,0.01,4,5,Valid,0,23,66,start,lin,0.1336282495787917,0.1336282495787917,1,0.1336282495787917,1,True,,,,,,,,,,,,,17,A,2023-09-14_12h45.10.334,exp3,2022.2.2,
high_opac_v,0.01,1,0.01,3,0.82,3.5,0.01,0,0.01,4,5,Valid,1,23,67,start,lin,0.16145361872020667,0,0,0.16145361872020667,0,True,,,,,,,,,,,,,17,A,2023-09-14_12h45.10.334,exp3,2022.2.2,
low_opac_i,0.4,1,0.01,3,0.82,3.5,0.01,0,0.01,4,5,Invalid,2,23,68,start,lin,0.29342939858174516,0,1,0.29342939858174516,1,True,,,,,,,,,,,,,17,A,2023-09-14_12h45.10.334,exp3,2022.2.2,
low_opac_v,0.4,1,0.01,3,0.82,3.5,0.01,0,0.01,4,5,Valid,0,24,69,start,lin,0.12950828114411428,0.12950828114411428,1,0.12950828114411428,1,True,,,,,,,,,,,,,17,A,2023-09-14_12h45.10.334,exp3,2022.2.2,
high_opac_v,0.01,1,0.01,3,0.82,3.5,0.01,0,0.01,4,5,Valid,1,24,70,start,lin,0.18199303305280054,0.18199303305280054,1,0.18199303305280054,1,True,,,,,,,,,,,,,17,A,2023-09-14_12h45.10.334,exp3,2022.2.2,
low_opac_i,0.4,1,0.01,3,0.82,3.5,0.01,0,0.01,4,5,Invalid,2,24,71,start,lin,0.2891713425769664,0,0,0.2891713425769664,0,True,,,,,,,,,,,,,17,A,2023-09-14_12h45.10.334,exp3,2022.2.2,
high_opac_v,0.01,1,0.01,3,0.82,3.5,0.01,0,0.01,4,5,Valid,1,25,72,start,lin,0.17728186028905643,0.17728186028905643,1,0.17728186028905643,1,True,,,,,,,,,,,,,17,A,2023-09-14_12h45.10.334,exp3,2022.2.2,
low_opac_v,0.4,1,0.01,3,0.82,3.5,0.01,0,0.01,4,5,Valid,0,25,73,start,lin,0.12571059866972562,0,1,0.12571059866972562,1,True,,,,,,,,,,,,,17,A,2023-09-14_12h45.10.334,exp3,2022.2.2,
low_opac_i,0.4,1,0.01,3,0.82,3.5,0.01,0,0.01,4,5,Invalid,2,25,74,start,lin,0.3048620936829477,0,1,0.3048620936829477,1,True,,,,,,,,,,,,,17,A,2023-09-14_12h45.10.334,exp3,2022.2.2,
low_opac_v,0.4,1,0.01,3,0.82,3.5,0.01,0,0.01,4,5,Valid,0,26,75,start,lin,0.12219663025464983,0.12219663025464983,0,0.12219663025464983,0,True,,,,,,,,,,,,,17,A,2023-09-14_12h45.10.334,exp3,2022.2.2,
low_opac_i,0.4,1,0.01,3,0.82,3.5,0.01,0,0.01,4,5,Invalid,2,26,76,start,lin,0.30104466330609014,0.30104466330609014,1,0.30104466330609014,1,True,,,,,,,,,,,,,17,A,2023-09-14_12h45.10.334,exp3,2022.2.2,
high_opac_v,0.01,1,0.01,3,0.82,3.5,0.01,0,0.01,4,5,Valid,1,26,77,start,lin,0.1729820848366055,0,1,0.1729820848366055,1,True,,,,,,,,,,,,,17,A,2023-09-14_12h45.10.334,exp3,2022.2.2,
low_opac_v,0.4,1,0.01,3,0.82,3.5,0.01,0,0.01,4,5,Valid,0,27,78,start,lin,0.13598129630639388,0.13598129630639388,0,0.13598129630639388,0,True,,,,,,,,,,,,,17,A,2023-09-14_12h45.10.334,exp3,2022.2.2,
low_opac_i,0.4,1,0.01,3,0.82,3.5,0.01,0,0.01,4,5,Invalid,2,27,79,start,lin,0.2974686489408846,0.2974686489408846,1,0.2974686489408846,1,True,,,,,,,,,,,,,17,A,2023-09-14_12h45.10.334,exp3,2022.2.2,
high_opac_v,0.01,1,0.01,3,0.82,3.5,0.01,0,0.01,4,5,Valid,1,27,80,start,lin,0.16861054136075218,0.16861054136075218,1,0.16861054136075218,1,True,,,,,,,,,,,,,17,A,2023-09-14_12h45.10.334,exp3,2022.2.2,
low_opac_i,0.4,1,0.01,3,0.82,3.5,0.01,0,0.01,4,5,Invalid,2,28,81,start,lin,0.2941759048732243,0.2941759048732243,1,0.2941759048732243,1,True,,,,,,,,,,,,,17,A,2023-09-14_12h45.10.334,exp3,2022.2.2,
low_opac_v,0.4,1,0.01,3,0.82,3.5,0.01,0,0.01,4,5,Valid,0,28,82,start,lin,0.1495190131203899,0,1,0.1495190131203899,1,True,,,,,,,,,,,,,17,A,2023-09-14_12h45.10.334,exp3,2022.2.2,
high_opac_v,0.01,1,0.01,3,0.82,3.5,0.01,0,0.01,4,5,Valid,1,28,83,start,lin,0.1645746304433567,0,1,0.1645746304433567,1,True,,,,,,,,,,,,,17,A,2023-09-14_12h45.10.334,exp3,2022.2.2,
low_opac_i,0.4,1,0.01,3,0.82,3.5,0.01,0,0.01,4,5,Invalid,2,29,84,start,lin,0.29080484778883875,0,0,0.29080484778883875,0,True,,,,,,,,,,,,,17,A,2023-09-14_12h45.10.334,exp3,2022.2.2,
high_opac_v,0.01,1,0.01,3,0.82,3.5,0.01,0,0.01,4,5,Valid,1,29,85,start,lin,0.16047838443856463,0,1,0.16047838443856463,1,True,,,,,,,,,,,,,17,A,2023-09-14_12h45.10.334,exp3,2022.2.2,
low_opac_v,0.4,1,0.01,3,0.82,3.5,0.01,0,0.01,4,5,Valid,0,29,86,start,lin,0.1463964627776213,0.1463964627776213,0,0.1463964627776213,0,True,,,,,,,,,,,,,17,A,2023-09-14_12h45.10.334,exp3,2022.2.2,
low_opac_i,0.4,1,0.01,3,0.82,3.5,0.01,0,0.01,4,5,Invalid,2,30,87,start,lin,0.30332018364702956,0,1,0.30332018364702956,1,True,,,,,,,,,,,,,17,A,2023-09-14_12h45.10.334,exp3,2022.2.2,
high_opac_v,0.01,1,0.01,3,0.82,3.5,0.01,0,0.01,4,5,Valid,1,30,88,start,lin,0.1566095043075342,0.1566095043075342,1,0.1566095043075342,1,True,,,,,,,,,,,,,17,A,2023-09-14_12h45.10.334,exp3,2022.2.2,
low_opac_v,0.4,1,0.01,3,0.82,3.5,0.01,0,0.01,4,5,Valid,0,30,89,start,lin,0.15881915182730935,0.15881915182730935,1,0.15881915182730935,1,True,,,,,,,,,,,,,17,A,2023-09-14_12h45.10.334,exp3,2022.2.2,
high_opac_v,0.01,1,0.01,3,0.82,3.5,0.01,0,0.01,4,5,Valid,1,31,90,start,lin,0.15301935352911947,0,1,0.15301935352911947,1,True,,,,,,,,,,,,,17,A,2023-09-14_12h45.10.334,exp3,2022.2.2,
low_opac_v,0.4,1,0.01,3,0.82,3.5,0.01,0,0.01,4,5,Valid,0,31,91,start,lin,0.15595611738327525,0,1,0.15595611738327525,1,True,,,,,,,,,,,,,17,A,2023-09-14_12h45.10.334,exp3,2022.2.2,
low_opac_i,0.4,1,0.01,3,0.82,3.5,0.01,0,0.01,4,5,Invalid,2,31,92,start,lin,0.30025117453240824,0.30025117453240824,1,0.30025117453240824,1,True,,,,,,,,,,,,,17,A,2023-09-14_12h45.10.334,exp3,2022.2.2,
high_opac_v,0.01,1,0.01,3,0.82,3.5,0.01,0,0.01,4,5,Valid,1,32,93,start,lin,0.14929659707815937,0,1,0.14929659707815937,1,True,,,,,,,,,,,,,17,A,2023-09-14_12h45.10.334,exp3,2022.2.2,
low_opac_v,0.4,1,0.01,3,0.82,3.5,0.01,0,0.01,4,5,Valid,0,32,94,start,lin,0.15327555801028583,0.15327555801028583,0,0.15327555801028583,0,True,,,,,,,,,,,,,17,A,2023-09-14_12h45.10.334,exp3,2022.2.2,
low_opac_i,0.4,1,0.01,3,0.82,3.5,0.01,0,0.01,4,5,Invalid,2,32,95,start,lin,0.29735262027963966,0.29735262027963966,1,0.29735262027963966,1,True,,,,,,,,,,,,,17,A,2023-09-14_12h45.10.334,exp3,2022.2.2,
low_opac_i,0.4,1,0.01,3,0.82,3.5,0.01,0,0.01,4,5,Invalid,2,33,96,start,lin,0.2946534884982376,0.2946534884982376,1,0.2946534884982376,1,True,,,,,,,,,,,,,17,A,2023-09-14_12h45.10.334,exp3,2022.2.2,
low_opac_v,0.4,1,0.01,3,0.82,3.5,0.01,0,0.01,4,5,Valid,0,33,97,start,lin,0.16393357792038823,0,1,0.16393357792038823,1,True,,,,,,,,,,,,,17,A,2023-09-14_12h45.10.334,exp3,2022.2.2,
high_opac_v,0.01,1,0.01,3,0.82,3.5,0.01,0,0.01,4,5,Valid,1,33,98,start,lin,0.14577976293407416,0.14577976293407416,1,0.14577976293407416,1,True,,,,,,,,,,,,,17,A,2023-09-14_12h45.10.334,exp3,2022.2.2,
low_opac_i,0.4,1,0.01,3,0.82,3.5,0.01,0,0.01,4,5,Invalid,2,34,99,start,lin,0.2918671941226434,0.2918671941226434,1,0.2918671941226434,1,True,,,,,,,,,,,,,17,A,2023-09-14_12h45.10.334,exp3,2022.2.2,
high_opac_v,0.01,1,0.01,3,0.82,3.5,0.01,0,0.01,4,5,Valid,1,34,100,start,lin,0.14247926254721172,0,1,0.14247926254721172,1,True,,,,,,,,,,,,,17,A,2023-09-14_12h45.10.334,exp3,2022.2.2,
low_opac_v,0.4,1,0.01,3,0.82,3.5,0.01,0,0.01,4,5,Valid,0,34,101,start,lin,0.1612352931955744,0,1,0.1612352931955744,1,True,,,,,,,,,,,,,17,A,2023-09-14_12h45.10.334,exp3,2022.2.2,
high_opac_v,0.01,1,0.01,3,0.82,3.5,0.01,0,0.01,4,5,Valid,1,35,102,start,lin,0.1390127082253673,0,1,0.1390127082253673,1,True,,,,,,,,,,,,,17,A,2023-09-14_12h45.10.334,exp3,2022.2.2,
low_opac_i,0.4,1,0.01,3,0.82,3.5,0.01,0,0.01,4,5,Invalid,2,35,103,start,lin,0.28917831301614094,0.28917831301614094,1,0.28917831301614094,1,True,,,,,,,,,,,,,17,A,2023-09-14_12h45.10.334,exp3,2022.2.2,
low_opac_v,0.4,1,0.01,3,0.82,3.5,0.01,0,0.01,4,5,Valid,0,35,104,start,lin,0.158648332989014,0.158648332989014,1,0.158648332989014,1,True,,,,,,,,,,,,,17,A,2023-09-14_12h45.10.334,exp3,2022.2.2,
low_opac_i,0.4,1,0.01,3,0.82,3.5,0.01,0,0.01,4,5,Invalid,2,36,105,start,lin,0.28664830451647133,0.28664830451647133,1,0.28664830451647133,1,True,,,,,,,,,,,,,17,A,2023-09-14_12h45.10.334,exp3,2022.2.2,
high_opac_v,0.01,1,0.01,3,0.82,3.5,0.01,0,0.01,4,5,Valid,1,36,106,start,lin,0.13571681554463674,0.13571681554463674,1,0.13571681554463674,1,True,,,,,,,,,,,,,17,A,2023-09-14_12h45.10.334,exp3,2022.2.2,
low_opac_v,0.4,1,0.01,3,0.82,3.5,0.01,0,0.01,4,5,Valid,0,36,107,start,lin,0.15623700080520492,0,1,0.15623700080520492,1,True,,,,,,,,,,,,,17,A,2023-09-14_12h45.10.334,exp3,2022.2.2,
low_opac_v,0.4,1,0.01,3,0.82,3.5,0.01,0,0.01,4,5,Valid,0,37,108,start,lin,0.15396204212806014,0.15396204212806014,0,0.15396204212806014,0,True,,,,,,,,,,,,,17,A,2023-09-14_12h45.10.334,exp3,2022.2.2,
high_opac_v,0.01,1,0.01,3,0.82,3.5,0.01,0,0.01,4,5,Valid,1,37,109,start,lin,0.1326012310359016,0,1,0.1326012310359016,1,True,,,,,,,,,,,,,17,A,2023-09-14_12h45.10.334,exp3,2022.2.2,
low_opac_i,0.4,1,0.01,3,0.82,3.5,0.01,0,0.01,4,5,Invalid,2,37,110,start,lin,0.28426433593963235,0.28426433593963235,0,0.28426433593963235,0,True,,,,,,,,,,,,,17,A,2023-09-14_12h45.10.334,exp3,2022.2.2,
low_opac_i,0.4,1,0.01,3,0.82,3.5,0.01,0,0.01,4,5,Invalid,2,38,111,start,lin,0.29372810699460405,0,1,0.29372810699460405,1,True,,,,,,,,,,,,,17,A,2023-09-14_12h45.10.334,exp3,2022.2.2,
low_opac_v,0.4,1,0.01,3,0.82,3.5,0.01,0,0.01,4,5,Valid,0,38,112,start,lin,0.16306637425023193,0.16306637425023193,1,0.16306637425023193,1,True,,,,,,,,,,,,,17,A,2023-09-14_12h45.10.334,exp3,2022.2.2,
high_opac_v,0.01,1,0.01,3,0.82,3.5,0.01,0,0.01,4,5,Valid,1,38,113,start,lin,0.12930275460787832,0.12930275460787832,0,0.12930275460787832,0,True,,,,,,,,,,,,,17,A,2023-09-14_12h45.10.334,exp3,2022.2.2,
low_opac_i,0.4,1,0.01,3,0.82,3.5,0.01,0,0.01,4,5,Invalid,2,39,114,start,lin,0.2913621529070874,0,1,0.2913621529070874,1,True,,,,,,,,,,,,,17,A,2023-09-14_12h45.10.334,exp3,2022.2.2,
low_opac_v,0.4,1,0.01,3,0.82,3.5,0.01,0,0.01,4,5,Valid,0,39,115,start,lin,0.16076224175427561,0.16076224175427561,0,0.16076224175427561,0,True,,,,,,,,,,,,,17,A,2023-09-14_12h45.10.334,exp3,2022.2.2,
high_opac_v,0.01,1,0.01,3,0.82,3.5,0.01,0,0.01,4,5,Valid,1,39,116,start,lin,0.14188214958196743,0.14188214958196743,0,0.14188214958196743,0,True,,,,,,,,,,,,,17,A,2023-09-14_12h45.10.334,exp3,2022.2.2,
low_opac_v,0.4,1,0.01,3,0.82,3.5,0.01,0,0.01,4,5,Valid,0,40,117,start,lin,0.16953415320878515,0.16953415320878515,1,0.16953415320878515,1,True,,,,,,,,,,,,,17,A,2023-09-14_12h45.10.334,exp3,2022.2.2,
low_opac_i,0.4,1,0.01,3,0.82,3.5,0.01,0,0.01,4,5,Invalid,2,40,118,start,lin,0.28905950299474265,0,1,0.28905950299474265,1,True,,,,,,,,,,,,,17,A,2023-09-14_12h45.10.334,exp3,2022.2.2,
high_opac_v,0.01,1,0.01,3,0.82,3.5,0.01,0,0.01,4,5,Valid,1,40,119,start,lin,0.1527336393721435,0.1527336393721435,1,0.1527336393721435,1,True,,,,,,,,,,,,,17,A,2023-09-14_12h45.10.334,exp3,2022.2.2,
low_opac_i,0.4,1,0.01,3,0.82,3.5,0.01,0,0.01,4,5,Invalid,2,41,120,start,lin,0.2868852130330939,0.2868852130330939,1,0.2868852130330939,1,True,,,,,,,,,,,,,17,A,2023-09-14_12h45.10.334,exp3,2022.2.2,
high_opac_v,0.01,1,0.01,3,0.82,3.5,0.01,0,0.01,4,5,Valid,1,41,121,start,lin,0.1501329567263337,0.1501329567263337,0,0.1501329567263337,0,True,,,,,,,,,,,,,17,A,2023-09-14_12h45.10.334,exp3,2022.2.2,
low_opac_v,0.4,1,0.01,3,0.82,3.5,0.01,0,0.01,4,5,Valid,0,41,122,start,lin,0.16741377670156904,0.16741377670156904,1,0.16741377670156904,1,True,,,,,,,,,,,,,17,A,2023-09-14_12h45.10.334,exp3,2022.2.2,
low_opac_i,0.4,1,0.01,3,0.82,3.5,0.01,0,0.01,4,5,Invalid,2,42,123,start,lin,0.2848261145593041,0,1,0.2848261145593041,1,True,,,,,,,,,,,,,17,A,2023-09-14_12h45.10.334,exp3,2022.2.2,
low_opac_v,0.4,1,0.01,3,0.82,3.5,0.01,0,0.01,4,5,Valid,0,42,124,start,lin,0.1654156509788798,0.1654156509788798,1,0.1654156509788798,1,True,,,,,,,,,,,,,17,A,2023-09-14_12h45.10.334,exp3,2022.2.2,
high_opac_v,0.01,1,0.01,3,0.82,3.5,0.01,0,0.01,4,5,Valid,1,42,125,start,lin,0.16007554560639975,0,1,0.16007554560639975,1,True,,,,,,,,,,,,,17,A,2023-09-14_12h45.10.334,exp3,2022.2.2,
high_opac_v,0.01,1,0.01,3,0.82,3.5,0.01,0,0.01,4,5,Valid,1,43,126,start,lin,0.15772384944202575,0.15772384944202575,1,0.15772384944202575,1,True,,,,,,,,,,,,,17,A,2023-09-14_12h45.10.334,exp3,2022.2.2,
low_opac_v,0.4,1,0.01,3,0.82,3.5,0.01,0,0.01,4,5,Valid,0,43,127,start,lin,0.16350737167804902,0,1,0.16350737167804902,1,True,,,,,,,,,,,,,17,A,2023-09-14_12h45.10.334,exp3,2022.2.2,
low_opac_i,0.4,1,0.01,3,0.82,3.5,0.01,0,0.01,4,5,Invalid,2,43,128,start,lin,0.28267367175255365,0,1,0.28267367175255365,1,True,,,,,,,,,,,,,17,A,2023-09-14_12h45.10.334,exp3,2022.2.2,
low_opac_v,0.4,1,0.01,3,0.82,3.5,0.01,0,0.01,4,5,Valid,0,44,129,start,lin,0.16149509224090858,0.16149509224090858,1,0.16149509224090858,1,True,,,,,,,,,,,,,17,A,2023-09-14_12h45.10.334,exp3,2022.2.2,
low_opac_i,0.4,1,0.01,3,0.82,3.5,0.01,0,0.01,4,5,Invalid,2,44,130,start,lin,0.2805755413859333,0,1,0.2805755413859333,1,True,,,,,,,,,,,,,17,A,2023-09-14_12h45.10.334,exp3,2022.2.2,
high_opac_v,0.01,1,0.01,3,0.82,3.5,0.01,0,0.01,4,5,Valid,1,44,131,start,lin,0.15551022909424228,0,1,0.15551022909424228,1,True,,,,,,,,,,,,,17,A,2023-09-14_12h45.10.334,exp3,2022.2.2,
high_opac_v,0.01,1,0.01,3,0.82,3.5,0.01,0,0.01,4,5,Valid,1,45,132,start,lin,0.1533966801372376,0,1,0.1533966801372376,1,True,,,,,,,,,,,,,17,A,2023-09-14_12h45.10.334,exp3,2022.2.2,
low_opac_v,0.4,1,0.01,3,0.82,3.5,0.01,0,0.01,4,5,Valid,0,45,133,start,lin,0.15952461818920186,0.15952461818920186,1,0.15952461818920186,1,True,,,,,,,,,,,,,17,A,2023-09-14_12h45.10.334,exp3,2022.2.2,
low_opac_i,0.4,1,0.01,3,0.82,3.5,0.01,0,0.01,4,5,Invalid,2,45,134,start,lin,0.2785279652904253,0,1,0.2785279652904253,1,True,,,,,,,,,,,,,17,A,2023-09-14_12h45.10.334,exp3,2022.2.2,
high_opac_v,0.01,1,0.01,3,0.82,3.5,0.01,0,0.01,4,5,Valid,1,46,135,start,lin,0.1511647485883421,0.1511647485883421,1,0.1511647485883421,1,True,,,,,,,,,,,,,17,A,2023-09-14_12h45.10.334,exp3,2022.2.2,
low_opac_i,0.4,1,0.01,3,0.82,3.5,0.01,0,0.01,4,5,Invalid,2,46,136,start,lin,0.2765923174169939,0.2765923174169939,1,0.2765923174169939,1,True,,,,,,,,,,,,,17,A,2023-09-14_12h45.10.334,exp3,2022.2.2,
low_opac_v,0.4,1,0.01,3,0.82,3.5,0.01,0,0.01,4,5,Valid,0,46,137,start,lin,0.1576533037693367,0,1,0.1576533037693367,1,True,,,,,,,,,,,,,17,A,2023-09-14_12h45.10.334,exp3,2022.2.2,
low_opac_v,0.4,1,0.01,3,0.82,3.5,0.01,0,0.01,4,5,Valid,0,47,138,start,lin,0.15588176791774877,0,1,0.15588176791774877,1,True,,,,,,,,,,,,,17,A,2023-09-14_12h45.10.334,exp3,2022.2.2,
high_opac_v,0.01,1,0.01,3,0.82,3.5,0.01,0,0.01,4,5,Valid,1,47,139,start,lin,0.14897669818954565,0,0,0.14897669818954565,0,True,,,,,,,,,,,,,17,A,2023-09-14_12h45.10.334,exp3,2022.2.2,
low_opac_i,0.4,1,0.01,3,0.82,3.5,0.01,0,0.01,4,5,Invalid,2,47,140,start,lin,0.2747461603852045,0,1,0.2747461603852045,1,True,,,,,,,,,,,,,17,A,2023-09-14_12h45.10.334,exp3,2022.2.2,
low_opac_v,0.4,1,0.01,3,0.82,3.5,0.01,0,0.01,4,5,Valid,0,48,141,start,lin,0.15418510129674215,0,1,0.15418510129674215,1,True,,,,,,,,,,,,,17,A,2023-09-14_12h45.10.334,exp3,2022.2.2,
low_opac_i,0.4,1,0.01,3,0.82,3.5,0.01,0,0.01,4,5,Invalid,2,48,142,start,lin,0.27280475248931924,0.27280475248931924,1,0.27280475248931924,1,True,,,,,,,,,,,,,17,A,2023-09-14_12h45.10.334,exp3,2022.2.2,
high_opac_v,0.01,1,0.01,3,0.82,3.5,0.01,0,0.01,4,5,Valid,1,48,143,start,lin,0.1574828199702758,0.1574828199702758,1,0.1574828199702758,1,True,,,,,,,,,,,,,17,A,2023-09-14_12h45.10.334,exp3,2022.2.2,
low_opac_i,0.4,1,0.01,3,0.82,3.5,0.01,0,0.01,4,5,Invalid,2,49,144,start,lin,0.2709046458384132,0.2709046458384132,1,0.2709046458384132,1,True,,,,,,,,,,,,,17,A,2023-09-14_12h45.10.334,exp3,2022.2.2,
high_opac_v,0.01,1,0.01,3,0.82,3.5,0.01,0,0.01,4,5,Valid,1,49,145,start,lin,0.1555583870901349,0,0,0.1555583870901349,0,True,,,,,,,,,,,,,17,A,2023-09-14_12h45.10.334,exp3,2022.2.2,
low_opac_v,0.4,1,0.01,3,0.82,3.5,0.01,0,0.01,4,5,Valid,0,49,146,start,lin,0.15239445855746145,0,0,0.15239445855746145,0,True,,,,,,,,,,,,,17,A,2023-09-14_12h45.10.334,exp3,2022.2.2,
low_opac_i,0.4,1,0.01,3,0.82,3.5,0.01,0,0.01,4,5,Invalid,2,50,147,start,lin,0.269029124692712,0.269029124692712,1,0.269029124692712,1,True,,,,,,,,,,,,,17,A,2023-09-14_12h45.10.334,exp3,2022.2.2,
high_opac_v,0.01,1,0.01,3,0.82,3.5,0.01,0,0.01,4,5,Valid,1,50,148,start,lin,0.16372353743840043,0.16372353743840043,1,0.16372353743840043,1,True,,,,,,,,,,,,,17,A,2023-09-14_12h45.10.334,exp3,2022.2.2,
low_opac_v,0.4,1,0.01,3,0.82,3.5,0.01,0,0.01,4,5,Valid,0,50,149,start,lin,0.15921532323752696,0.15921532323752696,1,0.15921532323752696,1,True,,,,,,,,,,,,,17,A,2023-09-14_12h45.10.334,exp3,2022.2.2,
high_opac_v,0.01,1,0.01,3,0.82,3.5,0.01,0,0.01,4,5,Valid,1,51,150,start,lin,0.1618170042613117,0.1618170042613117,1,0.1618170042613117,1,True,,,,,,,,,,,,,17,A,2023-09-14_12h45.10.334,exp3,2022.2.2,
low_opac_v,0.4,1,0.01,3,0.82,3.5,0.01,0,0.01,4,5,Valid,0,51,151,start,lin,0.15755098110539098,0,1,0.15755098110539098,1,True,,,,,,,,,,,,,17,A,2023-09-14_12h45.10.334,exp3,2022.2.2,
low_opac_i,0.4,1,0.01,3,0.82,3.5,0.01,0,0.01,4,5,Invalid,2,51,152,start,lin,0.26724062150752903,0.26724062150752903,1,0.26724062150752903,1,True,,,,,,,,,,,,,17,A,2023-09-14_12h45.10.334,exp3,2022.2.2,
low_opac_i,0.4,1,0.01,3,0.82,3.5,0.01,0,0.01,4,5,Invalid,2,52,153,start,lin,0.2655343446268462,0.2655343446268462,1,0.2655343446268462,1,True,,,,,,,,,,,,,17,A,2023-09-14_12h45.10.334,exp3,2022.2.2,
high_opac_v,0.01,1,0.01,3,0.82,3.5,0.01,0,0.01,4,5,Valid,1,52,154,start,lin,0.15994039098935944,0.15994039098935944,1,0.15994039098935944,1,True,,,,,,,,,,,,,17,A,2023-09-14_12h45.10.334,exp3,2022.2.2,
low_opac_v,0.4,1,0.01,3,0.82,3.5,0.01,0,0.01,4,5,Valid,0,52,155,start,lin,0.15596807575007848,0.15596807575007848,1,0.15596807575007848,1,True,,,,,,,,,,,,,17,A,2023-09-14_12h45.10.334,exp3,2022.2.2,
high_opac_v,0.01,1,0.01,3,0.82,3.5,0.01,0,0.01,4,5,Valid,1,53,156,start,lin,0.158124320268767,0.158124320268767,1,0.158124320268767,1,True,,,,,,,,,,,,,17,A,2023-09-14_12h45.10.334,exp3,2022.2.2,
low_opac_v,0.4,1,0.01,3,0.82,3.5,0.01,0,0.01,4,5,Valid,0,53,157,start,lin,0.15444704437148832,0,1,0.15444704437148832,1,True,,,,,,,,,,,,,17,A,2023-09-14_12h45.10.334,exp3,2022.2.2,
low_opac_i,0.4,1,0.01,3,0.82,3.5,0.01,0,0.01,4,5,Invalid,2,53,158,start,lin,0.26388860543061443,0.26388860543061443,1,0.26388860543061443,1,True,,,,,,,,,,,,,17,A,2023-09-14_12h45.10.334,exp3,2022.2.2,
high_opac_v,0.01,1,0.01,3,0.82,3.5,0.01,0,0.01,4,5,Valid,1,54,159,start,lin,0.1564032489142328,0.1564032489142328,0,0.1564032489142328,0,True,,,,,,,,,,,,,17,A,2023-09-14_12h45.10.334,exp3,2022.2.2,
low_opac_v,0.4,1,0.01,3,0.82,3.5,0.01,0,0.01,4,5,Valid,0,54,160,start,lin,0.15283862869139056,0,1,0.15283862869139056,1,True,,,,,,,,,,,,,17,A,2023-09-14_12h45.10.334,exp3,2022.2.2,
low_opac_i,0.4,1,0.01,3,0.82,3.5,0.01,0,0.01,4,5,Invalid,2,54,161,start,lin,0.2621386437200358,0,1,0.2621386437200358,1,True,,,,,,,,,,,,,17,A,2023-09-14_12h45.10.334,exp3,2022.2.2,
low_opac_i,0.4,1,0.01,3,0.82,3.5,0.01,0,0.01,4,5,Invalid,2,55,162,start,lin,0.26041067932763884,0.26041067932763884,1,0.26041067932763884,1,True,,,,,,,,,,,,,17,A,2023-09-14_12h45.10.334,exp3,2022.2.2,
low_opac_v,0.4,1,0.01,3,0.82,3.5,0.01,0,0.01,4,5,Valid,0,55,163,start,lin,0.1512594590903953,0,1,0.1512594590903953,1,True,,,,,,,,,,,,,17,A,2023-09-14_12h45.10.334,exp3,2022.2.2,
high_opac_v,0.01,1,0.01,3,0.82,3.5,0.01,0,0.01,4,5,Valid,1,55,164,start,lin,0.16365130744508913,0,0,0.16365130744508913,0,True,,,,,,,,,,,,,17,A,2023-09-14_12h45.10.334,exp3,2022.2.2,
high_opac_v,0.01,1,0.01,3,0.82,3.5,0.01,0,0.01,4,5,Valid,1,56,165,start,lin,0.1702468751790001,0.1702468751790001,1,0.1702468751790001,1,True,,,,,,,,,,,,,17,A,2023-09-14_12h45.10.334,exp3,2022.2.2,
low_opac_v,0.4,1,0.01,3,0.82,3.5,0.01,0,0.01,4,5,Valid,0,56,166,start,lin,0.14969375553619518,0.14969375553619518,0,0.14969375553619518,0,True,,,,,,,,,,,,,17,A,2023-09-14_12h45.10.334,exp3,2022.2.2,
low_opac_i,0.4,1,0.01,3,0.82,3.5,0.01,0,0.01,4,5,Invalid,2,56,167,start,lin,0.2587005619319188,0,1,0.2587005619319188,1,True,,,,,,,,,,,,,17,A,2023-09-14_12h45.10.334,exp3,2022.2.2,
low_opac_v,0.4,1,0.01,3,0.82,3.5,0.01,0,0.01,4,5,Valid,0,57,168,start,lin,0.155794578165109,0.155794578165109,1,0.155794578165109,1,True,,,,,,,,,,,,,17,A,2023-09-14_12h45.10.334,exp3,2022.2.2,
low_opac_i,0.4,1,0.01,3,0.82,3.5,0.01,0,0.01,4,5,Invalid,2,57,169,start,lin,0.25707018092070033,0,0,0.25707018092070033,0,True,,,,,,,,,,,,,17,A,2023-09-14_12h45.10.334,exp3,2022.2.2,
high_opac_v,0.01,1,0.01,3,0.82,3.5,0.01,0,0.01,4,5,Valid,1,57,170,start,lin,0.16860014908321005,0,1,0.16860014908321005,1,True,,,,,,,,,,,,,17,A,2023-09-14_12h45.10.334,exp3,2022.2.2,
high_opac_v,0.01,1,0.01,3,0.82,3.5,0.01,0,0.01,4,5,Valid,1,58,171,start,lin,0.16703881590440892,0.16703881590440892,0,0.16703881590440892,0,True,,,,,,,,,,,,,17,A,2023-09-14_12h45.10.334,exp3,2022.2.2,
low_opac_v,0.4,1,0.01,3,0.82,3.5,0.01,0,0.01,4,5,Valid,0,58,172,start,lin,0.15442073935040676,0,0,0.15442073935040676,0,True,,,,,,,,,,,,,17,A,2023-09-14_12h45.10.334,exp3,2022.2.2,
low_opac_i,0.4,1,0.01,3,0.82,3.5,0.01,0,0.01,4,5,Invalid,2,58,173,start,lin,0.2638451304562716,0.2638451304562716,1,0.2638451304562716,1,True,,,,,,,,,,,,,17,A,2023-09-14_12h45.10.334,exp3,2022.2.2,
low_opac_v,0.4,1,0.01,3,0.82,3.5,0.01,0,0.01,4,5,Valid,0,59,174,start,lin,0.1600794387430201,0.1600794387430201,1,0.1600794387430201,1,True,,,,,,,,,,,,,17,A,2023-09-14_12h45.10.334,exp3,2022.2.2,
high_opac_v,0.01,1,0.01,3,0.82,3.5,0.01,0,0.01,4,5,Valid,1,59,175,start,lin,0.17357273454209485,0.17357273454209485,1,0.17357273454209485,1,True,,,,,,,,,,,,,17,A,2023-09-14_12h45.10.334,exp3,2022.2.2,
low_opac_i,0.4,1,0.01,3,0.82,3.5,0.01,0,0.01,4,5,Invalid,2,59,176,start,lin,0.2622732629043937,0.2622732629043937,1,0.2622732629043937,1,True,,,,,,,,,,,,,17,A,2023-09-14_12h45.10.334,exp3,2022.2.2,
low_opac_v,0.4,1,0.01,3,0.82,3.5,0.01,0,0.01,4,5,Valid,0,60,177,start,lin,0.15864966837985034,0,1,0.15864966837985034,1,True,,,,,,,,,,,,,17,A,2023-09-14_12h45.10.334,exp3,2022.2.2,
low_opac_i,0.4,1,0.01,3,0.82,3.5,0.01,0,0.01,4,5,Invalid,2,60,178,start,lin,0.26071836572293683,0,1,0.26071836572293683,1,True,,,,,,,,,,,,,17,A,2023-09-14_12h45.10.334,exp3,2022.2.2,
high_opac_v,0.01,1,0.01,3,0.82,3.5,0.01,0,0.01,4,5,Valid,1,60,179,start,lin,0.17203103788572613,0.17203103788572613,1,0.17203103788572613,1,True,,,,,,,,,,,,,17,A,2023-09-14_12h45.10.334,exp3,2022.2.2,
high_opac_v,0.01,1,0.01,3,0.82,3.5,0.01,0,0.01,4,5,Valid,1,61,180,start,lin,0.17050687265674272,0,1,0.17050687265674272,1,True,,,,,,,,,,,,,17,A,2023-09-14_12h45.10.334,exp3,2022.2.2,
low_opac_v,0.4,1,0.01,3,0.82,3.5,0.01,0,0.01,4,5,Valid,0,61,181,start,lin,0.1572913006263717,0.1572913006263717,1,0.1572913006263717,1,True,,,,,,,,,,,,,17,A,2023-09-14_12h45.10.334,exp3,2022.2.2,
low_opac_i,0.4,1,0.01,3,0.82,3.5,0.01,0,0.01,4,5,Invalid,2,61,182,start,lin,0.2591691401206606,0,1,0.2591691401206606,1,True,,,,,,,,,,,,,17,A,2023-09-14_12h45.10.334,exp3,2022.2.2,
high_opac_v,0.01,1,0.01,3,0.82,3.5,0.01,0,0.01,4,5,Valid,1,62,183,start,lin,0.16900361582584925,0.16900361582584925,0,0.16900361582584925,0,True,,,,,,,,,,,,,17,A,2023-09-14_12h45.10.334,exp3,2022.2.2,
low_opac_v,0.4,1,0.01,3,0.82,3.5,0.01,0,0.01,4,5,Valid,0,62,184,start,lin,0.15598976142256335,0.15598976142256335,1,0.15598976142256335,1,True,,,,,,,,,,,,,17,A,2023-09-14_12h45.10.334,exp3,2022.2.2,
low_opac_i,0.4,1,0.01,3,0.82,3.5,0.01,0,0.01,4,5,Invalid,2,62,185,start,lin,0.2576820136876651,0,1,0.2576820136876651,1,True,,,,,,,,,,,,,17,A,2023-09-14_12h45.10.334,exp3,2022.2.2,
low_opac_i,0.4,1,0.01,3,0.82,3.5,0.01,0,0.01,4,5,Invalid,2,63,186,start,lin,0.2562581373196407,0.2562581373196407,1,0.2562581373196407,1,True,,,,,,,,,,,,,17,A,2023-09-14_12h45.10.334,exp3,2022.2.2,
low_opac_v,0.4,1,0.01,3,0.82,3.5,0.01,0,0.01,4,5,Valid,0,63,187,start,lin,0.15473216509951215,0,1,0.15473216509951215,1,True,,,,,,,,,,,,,17,A,2023-09-14_12h45.10.334,exp3,2022.2.2,
high_opac_v,0.01,1,0.01,3,0.82,3.5,0.01,0,0.01,4,5,Valid,1,63,188,start,lin,0.174944867299341,0.174944867299341,1,0.174944867299341,1,True,,,,,,,,,,,,,17,A,2023-09-14_12h45.10.334,exp3,2022.2.2,
low_opac_v,0.4,1,0.01,3,0.82,3.5,0.01,0,0.01,4,5,Valid,0,64,189,start,lin,0.153397458675492,0,1,0.153397458675492,1,True,,,,,,,,,,,,,17,A,2023-09-14_12h45.10.334,exp3,2022.2.2,
low_opac_i,0.4,1,0.01,3,0.82,3.5,0.01,0,0.01,4,5,Invalid,2,64,190,start,lin,0.2548825596887746,0.2548825596887746,1,0.2548825596887746,1,True,,,,,,,,,,,,,17,A,2023-09-14_12h45.10.334,exp3,2022.2.2,
high_opac_v,0.01,1,0.01,3,0.82,3.5,0.01,0,0.01,4,5,Valid,1,64,191,start,lin,0.17351509127470016,0.17351509127470016,0,0.17351509127470016,0,True,,,,,,,,,,,,,17,A,2023-09-14_12h45.10.334,exp3,2022.2.2,
low_opac_i,0.4,1,0.01,3,0.82,3.5,0.01,0,0.01,4,5,Invalid,2,65,192,start,lin,0.25342142316566324,0.25342142316566324,1,0.25342142316566324,1,True,,,,,,,,,,,,,17,A,2023-09-14_12h45.10.334,exp3,2022.2.2,
low_opac_v,0.4,1,0.01,3,0.82,3.5,0.01,0,0.01,4,5,Valid,0,65,193,start,lin,0.15208487154672884,0.15208487154672884,0,0.15208487154672884,0,True,,,,,,,,,,,,,17,A,2023-09-14_12h45.10.334,exp3,2022.2.2,
high_opac_v,0.01,1,0.01,3,0.82,3.5,0.01,0,0.01,4,5,Valid,1,65,194,start,lin,0.17896103934395408,0,0,0.17896103934395408,0,True,,,,,,,,,,,,,17,A,2023-09-14_12h45.10.334,exp3,2022.2.2,
low_opac_i,0.4,1,0.01,3,0.82,3.5,0.01,0,0.01,4,5,Invalid,2,66,195,start,lin,0.25198252564190965,0.25198252564190965,1,0.25198252564190965,1,True,,,,,,,,,,,,,17,A,2023-09-14_12h45.10.334,exp3,2022.2.2,
high_opac_v,0.01,1,0.01,3,0.82,3.5,0.01,0,0.01,4,5,Valid,1,66,196,start,lin,0.18455610697100486,0,1,0.18455610697100486,1,True,,,,,,,,,,,,,17,A,2023-09-14_12h45.10.334,exp3,2022.2.2,
low_opac_v,0.4,1,0.01,3,0.82,3.5,0.01,0,0.01,4,5,Valid,0,66,197,start,lin,0.15714195528150227,0,1,0.15714195528150227,1,True,,,,,,,,,,,,,17,A,2023-09-14_12h45.10.334,exp3,2022.2.2,
high_opac_v,0.01,1,0.01,3,0.82,3.5,0.01,0,0.01,4,5,Valid,1,67,198,start,lin,0.18321279621344763,0,1,0.18321279621344763,1,True,,,,,,,,,,,,,17,A,2023-09-14_12h45.10.334,exp3,2022.2.2,
low_opac_v,0.4,1,0.01,3,0.82,3.5,0.01,0,0.01,4,5,Valid,0,67,199,start,lin,0.1559482614093724,0.1559482614093724,1,0.1559482614093724,1,True,,,,,,,,,,,,,17,A,2023-09-14_12h45.10.334,exp3,2022.2.2,
low_opac_i,0.4,1,0.01,3,0.82,3.5,0.01,0,0.01,4,5,Invalid,2,67,200,start,lin,0.2505515603148066,0,1,0.2505515603148066,1,True,,,,,,,,,,,,,17,A,2023-09-14_12h45.10.334,exp3,2022.2.2,
low_opac_v,0.4,1,0.01,3,0.82,3.5,0.01,0,0.01,4,5,Valid,0,68,201,start,lin,0.15479209525027704,0.15479209525027704,1,0.15479209525027704,1,True,,,,,,,,,,,,,17,A,2023-09-14_12h45.10.334,exp3,2022.2.2,
high_opac_v,0.01,1,0.01,3,0.82,3.5,0.01,0,0.01,4,5,Valid,1,68,202,start,lin,0.18189076298384438,0,1,0.18189076298384438,1,True,,,,,,,,,,,,,17,A,2023-09-14_12h45.10.334,exp3,2022.2.2,
low_opac_i,0.4,1,0.01,3,0.82,3.5,0.01,0,0.01,4,5,Invalid,2,68,203,start,lin,0.24911851135744104,0.24911851135744104,1,0.24911851135744104,1,True,,,,,,,,,,,,,17,A,2023-09-14_12h45.10.334,exp3,2022.2.2,
low_opac_i,0.4,1,0.01,3,0.82,3.5,0.01,0,0.01,4,5,Invalid,2,69,204,start,lin,0.24773977918837342,0.24773977918837342,1,0.24773977918837342,1,True,,,,,,,,,,,,,17,A,2023-09-14_12h45.10.334,exp3,2022.2.2,
low_opac_v,0.4,1,0.01,3,0.82,3.5,0.01,0,0.01,4,5,Valid,0,69,205,start,lin,0.1535628929847526,0.1535628929847526,1,0.1535628929847526,1,True,,,,,,,,,,,,,17,A,2023-09-14_12h45.10.334,exp3,2022.2.2,
high_opac_v,0.01,1,0.01,3,0.82,3.5,0.01,0,0.01,4,5,Valid,1,69,206,start,lin,0.18057773088205725,0.18057773088205725,1,0.18057773088205725,1,True,,,,,,,,,,,,,17,A,2023-09-14_12h45.10.334,exp3,2022.2.2,
low_opac_i,0.4,1,0.01,3,0.82,3.5,0.01,0,0.01,4,5,Invalid,2,70,207,start,lin,0.2464161095667795,0,0,0.2464161095667795,0,True,,,,,,,,,,,,,17,A,2023-09-14_12h45.10.334,exp3,2022.2.2,
low_opac_v,0.4,1,0.01,3,0.82,3.5,0.01,0,0.01,4,5,Valid,0,70,208,start,lin,0.15235291090334632,0.15235291090334632,0,0.15235291090334632,0,True,,,,,,,,,,,,,17,A,2023-09-14_12h45.10.334,exp3,2022.2.2,
high_opac_v,0.01,1,0.01,3,0.82,3.5,0.01,0,0.01,4,5,Valid,1,70,209,start,lin,0.17927452595291785,0.17927452595291785,1,0.17927452595291785,1,True,,,,,,,,,,,,,17,A,2023-09-14_12h45.10.334,exp3,2022.2.2,
low_opac_i,0.4,1,0.01,3,0.82,3.5,0.01,0,0.01,4,5,Invalid,2,71,210,start,lin,0.2521147341899911,0,1,0.2521147341899911,1,True,,,,,,,,,,,,,17,A,2023-09-14_12h45.10.334,exp3,2022.2.2,
high_opac_v,0.01,1,0.01,3,0.82,3.5,0.01,0,0.01,4,5,Valid,1,71,211,start,lin,0.17802929524496858,0.17802929524496858,1,0.17802929524496858,1,True,,,,,,,,,,,,,17,A,2023-09-14_12h45.10.334,exp3,2022.2.2,
low_opac_v,0.4,1,0.01,3,0.82,3.5,0.01,0,0.01,4,5,Valid,0,71,212,start,lin,0.15701587208027526,0.15701587208027526,0,0.15701587208027526,0,True,,,,,,,,,,,,,17,A,2023-09-14_12h45.10.334,exp3,2022.2.2,
low_opac_i,0.4,1,0.01,3,0.82,3.5,0.01,0,0.01,4,5,Invalid,2,72,213,start,lin,0.2508052345288192,0.2508052345288192,1,0.2508052345288192,1,True,,,,,,,,,,,,,17,A,2023-09-14_12h45.10.334,exp3,2022.2.2,
low_opac_v,0.4,1,0.01,3,0.82,3.5,0.01,0,0.01,4,5,Valid,0,72,214,start,lin,0.16193514757288766,0.16193514757288766,1,0.16193514757288766,1,True,,,,,,,,,,,,,17,A,2023-09-14_12h45.10.334,exp3,2022.2.2,
high_opac_v,0.01,1,0.01,3,0.82,3.5,0.01,0,0.01,4,5,Valid,1,72,215,start,lin,0.17683786002697083,0.17683786002697083,1,0.17683786002697083,1,True,,,,,,,,,,,,,17,A,2023-09-14_12h45.10.334,exp3,2022.2.2,
low_opac_v,0.4,1,0.01,3,0.82,3.5,0.01,0,0.01,4,5,Valid,0,73,216,start,lin,0.16077112041912517,0.16077112041912517,1,0.16077112041912517,1,True,,,,,,,,,,,,,17,A,2023-09-14_12h45.10.334,exp3,2022.2.2,
high_opac_v,0.01,1,0.01,3,0.82,3.5,0.01,0,0.01,4,5,Valid,1,73,217,start,lin,0.17568933175855192,0.17568933175855192,1,0.17568933175855192,1,True,,,,,,,,,,,,,17,A,2023-09-14_12h45.10.334,exp3,2022.2.2,
low_opac_i,0.4,1,0.01,3,0.82,3.5,0.01,0,0.01,4,5,Invalid,2,73,218,start,lin,0.24948933508500773,0,0,0.24948933508500773,0,True,,,,,,,,,,,,,17,A,2023-09-14_12h45.10.334,exp3,2022.2.2,
high_opac_v,0.01,1,0.01,3,0.82,3.5,0.01,0,0.01,4,5,Valid,1,74,219,start,lin,0.1745739455373023,0,0,0.1745739455373023,0,True,,,,,,,,,,,,,17,A,2023-09-14_12h45.10.334,exp3,2022.2.2,
low_opac_i,0.4,1,0.01,3,0.82,3.5,0.01,0,0.01,4,5,Invalid,2,74,220,start,lin,0.25465728164776325,0,1,0.25465728164776325,1,True,,,,,,,,,,,,,17,A,2023-09-14_12h45.10.334,exp3,2022.2.2,
low_opac_v,0.4,1,0.01,3,0.82,3.5,0.01,0,0.01,4,5,Valid,0,74,221,start,lin,0.15960711069490857,0,0,0.15960711069490857,0,True,,,,,,,,,,,,,17,A,2023-09-14_12h45.10.334,exp3,2022.2.2,
high_opac_v,0.01,1,0.01,3,0.82,3.5,0.01,0,0.01,4,5,Valid,1,75,222,start,lin,0.1791900885559501,0.1791900885559501,1,0.1791900885559501,1,True,,,,,,,,,,,,,17,A,2023-09-14_12h45.10.334,exp3,2022.2.2,
low_opac_v,0.4,1,0.01,3,0.82,3.5,0.01,0,0.01,4,5,Valid,0,75,223,start,lin,0.16418672610016644,0.16418672610016644,1,0.16418672610016644,1,True,,,,,,,,,,,,,17,A,2023-09-14_12h45.10.334,exp3,2022.2.2,
low_opac_i,0.4,1,0.01,3,0.82,3.5,0.01,0,0.01,4,5,Invalid,2,75,224,start,lin,0.25343079781195144,0,1,0.25343079781195144,1,True,,,,,,,,,,,,,17,A,2023-09-14_12h45.10.334,exp3,2022.2.2,
,,,,,,,,,,,,,,,,,,,,,,,,0,1158,Valid,noise,45,2,30.422106300015002,1,4.0,31.729645600018557,True,1,17,A,2023-09-14_12h45.10.334,exp3,2022.2.2,
,,,,,,,,,,,,,,,,,,,,,,,,0,-2274,Valid,signal,-45,1,3.6723809000104666,1,2.0,4.980314099986572,True,1,17,A,2023-09-14_12h45.10.334,exp3,2022.2.2,
,,,,,,,,,,,,,,,,,,,,,,,,0,1716,Valid,noise,-45,2,4.723009600013029,1,4.0,6.0305712999543175,True,1,17,A,2023-09-14_12h45.10.334,exp3,2022.2.2,
,,,,,,,,,,,,,,,,,,,,,,,,0,-1716,Valid,noise,-45,2,2.605049300007522,1,4.0,3.9129487000172958,True,1,17,A,2023-09-14_12h45.10.334,exp3,2022.2.2,
,,,,,,,,,,,,,,,,,,,,,,,,0,1716,Invalid,noise,45,2,2.671405400033109,1,4.0,3.979366299987305,True,1,17,A,2023-09-14_12h45.10.334,exp3,2022.2.2,
,,,,,,,,,,,,,,,,,,,,,,,,0,2274,Valid,signal,-45,2,6.057582399982493,0,2.0,7.36533669999335,True,1,17,A,2023-09-14_12h45.10.334,exp3,2022.2.2,
,,,,,,,,,,,,,,,,,,,,,,,,0,557,Invalid,noise,45,2,3.7226017999928445,1,4.0,5.030302300001495,True,1,17,A,2023-09-14_12h45.10.334,exp3,2022.2.2,
,,,,,,,,,,,,,,,,,,,,,,,,0,1158,Invalid,noise,-45,2,2.67183320003096,1,3.0,3.9797444000141695,True,1,17,A,2023-09-14_12h45.10.334,exp3,2022.2.2,
,,,,,,,,,,,,,,,,,,,,,,,,0,557,Valid,signal,-45,1,4.43950139998924,1,4.0,5.747351299971342,True,1,17,A,2023-09-14_12h45.10.334,exp3,2022.2.2,
,,,,,,,,,,,,,,,,,,,,,,,,0,-1716,Valid,signal,45,1,3.1054619000060484,1,3.0,4.413094200019259,True,1,17,A,2023-09-14_12h45.10.334,exp3,2022.2.2,
,,,,,,,,,,,,,,,,,,,,,,,,0,-557,Valid,signal,-45,1,1.7383446000167169,1,4.0,3.0461396000464447,True,1,17,A,2023-09-14_12h45.10.334,exp3,2022.2.2,
,,,,,,,,,,,,,,,,,,,,,,,,0,-1158,Valid,noise,-45,1,3.8393720000167377,0,2.0,5.147153199999593,True,1,17,A,2023-09-14_12h45.10.334,exp3,2022.2.2,
,,,,,,,,,,,,,,,,,,,,,,,,0,-1158,Valid,noise,-45,2,2.205205600010231,1,2.0,3.513223900052253,True,1,17,A,2023-09-14_12h45.10.334,exp3,2022.2.2,
,,,,,,,,,,,,,,,,,,,,,,,,0,-1716,Invalid,noise,45,2,3.5057054000208154,1,1.0,4.813763800018933,True,1,17,A,2023-09-14_12h45.10.334,exp3,2022.2.2,
,,,,,,,,,,,,,,,,,,,,,,,,0,-557,Valid,noise,-45,1,3.1888405000208877,0,3.0,4.496893799980171,True,1,17,A,2023-09-14_12h45.10.334,exp3,2022.2.2,
,,,,,,,,,,,,,,,,,,,,,,,,0,1716,Invalid,signal,45,1,2.705849899968598,1,3.0,4.013583399995696,True,1,17,A,2023-09-14_12h45.10.334,exp3,2022.2.2,
,,,,,,,,,,,,,,,,,,,,,,,,0,557,Valid,noise,45,2,2.0879987999796867,1,3.0,3.395642399962526,True,1,17,A,2023-09-14_12h45.10.334,exp3,2022.2.2,
,,,,,,,,,,,,,,,,,,,,,,,,0,2274,Valid,signal,-45,2,3.3908994999947026,0,1.0,7.047228800016455,True,2,17,A,2023-09-14_12h45.10.334,exp3,2022.2.2,
,,,,,,,,,,,,,,,,,,,,,,,,0,1716,Valid,noise,45,1,2.0556210999493487,0,2.0,3.363324499980081,True,1,17,A,2023-09-14_12h45.10.334,exp3,2022.2.2,
,,,,,,,,,,,,,,,,,,,,,,,,0,557,Valid,noise,45,1,4.222427300002892,0,1.0,5.530090799962636,True,1,17,A,2023-09-14_12h45.10.334,exp3,2022.2.2,
,,,,,,,,,,,,,,,,,,,,,,,,0,557,Valid,signal,-45,1,1.805352800001856,1,4.0,3.1130604000063613,True,1,17,A,2023-09-14_12h45.10.334,exp3,2022.2.2,
,,,,,,,,,,,,,,,,,,,,,,,,0,2274,Invalid,noise,-45,2,4.789489200047683,1,1.0,6.097249499987811,True,1,17,A,2023-09-14_12h45.10.334,exp3,2022.2.2,
,,,,,,,,,,,,,,,,,,,,,,,,0,-1158,Valid,signal,45,1,2.0053317000274546,1,4.0,3.313141699996777,True,1,17,A,2023-09-14_12h45.10.334,exp3,2022.2.2,
,,,,,,,,,,,,,,,,,,,,,,,,0,-1716,Valid,noise,45,1,1.9716267999610864,0,2.0,3.279537499998696,True,1,17,A,2023-09-14_12h45.10.334,exp3,2022.2.2,
,,,,,,,,,,,,,,,,,,,,,,,,0,-557,Valid,noise,45,1,2.522694599989336,0,2.0,3.830397399957292,True,1,17,A,2023-09-14_12h45.10.334,exp3,2022.2.2,
,,,,,,,,,,,,,,,,,,,,,,,,0,1716,Valid,signal,45,1,1.9877915000542998,1,3.0,3.295663299970329,True,1,17,A,2023-09-14_12h45.10.334,exp3,2022.2.2,
,,,,,,,,,,,,,,,,,,,,,,,,0,2274,Valid,signal,45,1,2.472146200016141,1,1.0,3.7801053000148386,True,1,17,A,2023-09-14_12h45.10.334,exp3,2022.2.2,
,,,,,,,,,,,,,,,,,,,,,,,,0,557,Valid,signal,-45,1,2.305627800000366,1,4.0,3.613182400004007,True,1,17,A,2023-09-14_12h45.10.334,exp3,2022.2.2,
,,,,,,,,,,,,,,,,,,,,,,,,0,-1158,Valid,noise,-45,2,2.6393151999800466,1,2.0,3.9468958999495953,True,1,17,A,2023-09-14_12h45.10.334,exp3,2022.2.2,
,,,,,,,,,,,,,,,,,,,,,,,,0,-2274,Valid,signal,45,1,2.9380265999934636,1,4.0,4.24594639998395,True,1,17,A,2023-09-14_12h45.10.334,exp3,2022.2.2,
,,,,,,,,,,,,,,,,,,,,,,,,0,1716,Valid,noise,-45,2,2.072103399957996,1,2.0,3.3800641000270844,True,1,17,A,2023-09-14_12h45.10.334,exp3,2022.2.2,
,,,,,,,,,,,,,,,,,,,,,,,,0,1158,Valid,signal,-45,1,1.4551701999735087,1,4.0,2.7629883000045083,True,1,17,A,2023-09-14_12h45.10.334,exp3,2022.2.2,
,,,,,,,,,,,,,,,,,,,,,,,,0,-2274,Valid,signal,45,2,2.138904099992942,0,1.0,3.4465702999732457,True,1,17,A,2023-09-14_12h45.10.334,exp3,2022.2.2,
,,,,,,,,,,,,,,,,,,,,,,,,0,-2274,Invalid,noise,45,1,4.405592900002375,0,1.0,5.713386200019158,True,1,17,A,2023-09-14_12h45.10.334,exp3,2022.2.2,
,,,,,,,,,,,,,,,,,,,,,,,,0,1716,Invalid,noise,-45,2,3.4224550999933854,1,1.0,4.73031810001703,True,1,17,A,2023-09-14_12h45.10.334,exp3,2022.2.2,
,,,,,,,,,,,,,,,,,,,,,,,,0,-557,Invalid,noise,45,2,3.505954699998256,1,4.0,4.8135430999682285,True,1,17,A,2023-09-14_12h45.10.334,exp3,2022.2.2,
,,,,,,,,,,,,,,,,,,,,,,,,0,1716,Valid,noise,-45,2,3.288883299974259,1,4.0,4.5969013999565504,True,1,17,A,2023-09-14_12h45.10.334,exp3,2022.2.2,
,,,,,,,,,,,,,,,,,,,,,,,,0,-1158,Invalid,signal,45,1,2.3004722999758087,1,4.0,5.997793700022157,True,2,17,A,2023-09-14_12h45.10.334,exp3,2022.2.2,
,,,,,,,,,,,,,,,,,,,,,,,,0,557,Valid,signal,45,1,1.271056999976281,1,4.0,2.578822300012689,True,1,17,A,2023-09-14_12h45.10.334,exp3,2022.2.2,
,,,,,,,,,,,,,,,,,,,,,,,,0,2274,Valid,signal,45,2,2.6049227000330575,0,2.0,3.913083099992946,True,1,17,A,2023-09-14_12h45.10.334,exp3,2022.2.2,
,,,,,,,,,,,,,,,,,,,,,,,,0,-557,Valid,signal,-45,1,1.3719074000255205,1,4.0,2.679842400015332,True,1,17,A,2023-09-14_12h45.10.334,exp3,2022.2.2,
,,,,,,,,,,,,,,,,,,,,,,,,0,1158,Invalid,signal,45,1,1.7050148000125773,1,4.0,3.012551699997857,True,1,17,A,2023-09-14_12h45.10.334,exp3,2022.2.2,
,,,,,,,,,,,,,,,,,,,,,,,,0,1716,Invalid,signal,-45,1,1.6053529999917373,1,4.0,2.913021699991077,True,1,17,A,2023-09-14_12h45.10.334,exp3,2022.2.2,
,,,,,,,,,,,,,,,,,,,,,,,,0,1716,Valid,signal,45,1,2.1718646999797784,1,2.0,3.4798041999456473,True,1,17,A,2023-09-14_12h45.10.334,exp3,2022.2.2,
,,,,,,,,,,,,,,,,,,,,,,,,0,-557,Invalid,signal,-45,1,1.8890019999817014,1,3.0,3.196762799983844,True,1,17,A,2023-09-14_12h45.10.334,exp3,2022.2.2,
,,,,,,,,,,,,,,,,,,,,,,,,0,2274,Valid,signal,45,2,2.2548892999766394,0,3.0,3.562740500026848,True,1,17,A,2023-09-14_12h45.10.334,exp3,2022.2.2,
,,,,,,,,,,,,,,,,,,,,,,,,0,1716,Valid,signal,-45,1,2.4551557000377215,1,4.0,3.7628587000072002,True,1,17,A,2023-09-14_12h45.10.334,exp3,2022.2.2,
,,,,,,,,,,,,,,,,,,,,,,,,0,-1716,Valid,noise,45,2,3.158765600004699,1,4.0,6.697493999963626,True,2,17,A,2023-09-14_12h45.10.334,exp3,2022.2.2,
,,,,,,,,,,,,,,,,,,,,,,,,0,557,Valid,signal,45,1,3.4891682000015862,1,4.0,4.797051800007466,True,1,17,A,2023-09-14_12h45.10.334,exp3,2022.2.2,
,,,,,,,,,,,,,,,,,,,,,,,,0,-557,Valid,noise,45,2,2.088640799978748,1,3.0,3.3966656000120565,True,1,17,A,2023-09-14_12h45.10.334,exp3,2022.2.2,
,,,,,,,,,,,,,,,,,,,,,,,,0,2274,Invalid,signal,-45,2,3.0387892000144348,0,1.0,4.346589300024789,True,1,17,A,2023-09-14_12h45.10.334,exp3,2022.2.2,
,,,,,,,,,,,,,,,,,,,,,,,,0,-2274,Valid,noise,45,1,1.6890719000366516,0,1.0,2.996655799972359,True,1,17,A,2023-09-14_12h45.10.334,exp3,2022.2.2,
,,,,,,,,,,,,,,,,,,,,,,,,0,-557,Valid,signal,-45,1,1.5550643000169657,1,4.0,2.862618300016038,True,1,17,A,2023-09-14_12h45.10.334,exp3,2022.2.2,
,,,,,,,,,,,,,,,,,,,,,,,,0,-1716,Valid,noise,-45,2,2.105210600013379,1,3.0,3.4129087000037543,True,1,17,A,2023-09-14_12h45.10.334,exp3,2022.2.2,
,,,,,,,,,,,,,,,,,,,,,,,,0,-557,Valid,noise,-45,2,1.5878448000294156,1,2.0,2.895808000001125,True,1,17,A,2023-09-14_12h45.10.334,exp3,2022.2.2,
,,,,,,,,,,,,,,,,,,,,,,,,0,-2274,Invalid,signal,-45,2,3.141243799997028,0,3.0,6.83123179996619,True,2,17,A,2023-09-14_12h45.10.334,exp3,2022.2.2,
,,,,,,,,,,,,,,,,,,,,,,,,0,1158,Invalid,noise,45,1,4.906150800001342,0,3.0,6.213877700036392,True,1,17,A,2023-09-14_12h45.10.334,exp3,2022.2.2,
,,,,,,,,,,,,,,,,,,,,,,,,0,-2274,Valid,noise,-45,2,2.3219985000323504,1,4.0,3.629897200036794,True,1,17,A,2023-09-14_12h45.10.334,exp3,2022.2.2,
,,,,,,,,,,,,,,,,,,,,,,,,0,2274,Valid,noise,45,2,2.6882945999968797,1,3.0,3.9964307999471202,True,1,17,A,2023-09-14_12h45.10.334,exp3,2022.2.2,
,,,,,,,,,,,,,,,,,,,,,,,,0,-1716,Valid,noise,45,2,2.305265699978918,1,2.0,3.612999100005254,True,1,17,A,2023-09-14_12h45.10.334,exp3,2022.2.2,
,,,,,,,,,,,,,,,,,,,,,,,,0,-1716,Valid,signal,45,1,3.3560115000000224,1,2.0,4.663709799991921,True,1,17,A,2023-09-14_12h45.10.334,exp3,2022.2.2,
,,,,,,,,,,,,,,,,,,,,,,,,0,557,Valid,noise,-45,2,1.6555939000099897,1,3.0,2.9633765000035055,True,1,17,A,2023-09-14_12h45.10.334,exp3,2022.2.2,
,,,,,,,,,,,,,,,,,,,,,,,,0,-1716,Valid,signal,-45,2,1.9711826999555342,0,3.0,3.278999400034081,True,1,17,A,2023-09-14_12h45.10.334,exp3,2022.2.2,
,,,,,,,,,,,,,,,,,,,,,,,,0,-1158,Valid,noise,-45,2,2.271580400003586,1,3.0,3.5795025000115857,True,1,17,A,2023-09-14_12h45.10.334,exp3,2022.2.2,
,,,,,,,,,,,,,,,,,,,,,,,,0,-1716,Valid,signal,45,1,2.5395035999827087,1,4.0,3.84725549997529,True,1,17,A,2023-09-14_12h45.10.334,exp3,2022.2.2,
,,,,,,,,,,,,,,,,,,,,,,,,0,1716,Valid,signal,-45,1,3.1672026999876834,1,2.0,7.114679099991918,True,2,17,A,2023-09-14_12h45.10.334,exp3,2022.2.2,
,,,,,,,,,,,,,,,,,,,,,,,,0,1158,Valid,noise,-45,2,2.472254900028929,1,3.0,6.347122700011823,True,2,17,A,2023-09-14_12h45.10.334,exp3,2022.2.2,
,,,,,,,,,,,,,,,,,,,,,,,,0,557,Valid,signal,45,1,1.5550949000171386,1,4.0,2.862819399975706,True,1,17,A,2023-09-14_12h45.10.334,exp3,2022.2.2,
,,,,,,,,,,,,,,,,,,,,,,,,0,557,Valid,signal,-45,1,1.0875975000089966,1,4.0,2.395558800024446,True,1,17,A,2023-09-14_12h45.10.334,exp3,2022.2.2,
,,,,,,,,,,,,,,,,,,,,,,,,0,1716,Valid,signal,-45,1,2.2555801999988034,1,2.0,3.5633722000056878,True,1,17,A,2023-09-14_12h45.10.334,exp3,2022.2.2,
,,,,,,,,,,,,,,,,,,,,,,,,0,2274,Valid,noise,-45,2,4.339123899990227,1,1.0,5.6471040999749675,True,1,17,A,2023-09-14_12h45.10.334,exp3,2022.2.2,
,,,,,,,,,,,,,,,,,,,,,,,,0,2274,Valid,noise,45,1,4.5564185999683104,0,1.0,5.864220499992371,True,1,17,A,2023-09-14_12h45.10.334,exp3,2022.2.2,
,,,,,,,,,,,,,,,,,,,,,,,,0,-1158,Valid,signal,45,1,1.3213882999843918,1,4.0,2.6291485000401735,True,1,17,A,2023-09-14_12h45.10.334,exp3,2022.2.2,
,,,,,,,,,,,,,,,,,,,,,,,,0,-1158,Valid,signal,-45,1,2.271632599993609,1,4.0,3.579617400013376,True,1,17,A,2023-09-14_12h45.10.334,exp3,2022.2.2,
,,,,,,,,,,,,,,,,,,,,,,,,0,-2274,Invalid,signal,-45,2,3.8227578999940306,0,1.0,5.130647899990436,True,1,17,A,2023-09-14_12h45.10.334,exp3,2022.2.2,
,,,,,,,,,,,,,,,,,,,,,,,,0,1716,Valid,signal,45,1,2.6046684000175446,1,2.0,3.91266239999095,True,1,17,A,2023-09-14_12h45.10.334,exp3,2022.2.2,
,,,,,,,,,,,,,,,,,,,,,,,,0,-557,Valid,signal,45,1,1.5047847999958321,1,4.0,2.8129226000164635,True,1,17,A,2023-09-14_12h45.10.334,exp3,2022.2.2,
,,,,,,,,,,,,,,,,,,,,,,,,0,1158,Valid,signal,45,1,1.5050360999885015,1,4.0,2.812655499961693,True,1,17,A,2023-09-14_12h45.10.334,exp3,2022.2.2,
,,,,,,,,,,,,,,,,,,,,,,,,0,1158,Valid,signal,45,1,1.3547775999759324,1,4.0,2.662777499994263,True,1,17,A,2023-09-14_12h45.10.334,exp3,2022.2.2,
,,,,,,,,,,,,,,,,,,,,,,,,0,-1158,Valid,noise,-45,2,2.6554875999572687,1,2.0,3.963370399957057,True,1,17,A,2023-09-14_12h45.10.334,exp3,2022.2.2,
,,,,,,,,,,,,,,,,,,,,,,,,0,-1716,Invalid,noise,45,1,4.540296700026374,0,2.0,5.848016100004315,True,1,17,A,2023-09-14_12h45.10.334,exp3,2022.2.2,
,,,,,,,,,,,,,,,,,,,,,,,,0,2274,Valid,signal,45,2,3.10502809996251,0,1.0,4.412796100019477,True,1,17,A,2023-09-14_12h45.10.334,exp3,2022.2.2,
,,,,,,,,,,,,,,,,,,,,,,,,0,-557,Valid,noise,45,2,3.6894897999591194,1,2.0,4.997355800005607,True,1,17,A,2023-09-14_12h45.10.334,exp3,2022.2.2,
,,,,,,,,,,,,,,,,,,,,,,,,0,1716,Valid,signal,-45,2,1.9549120999872684,0,3.0,3.2626588999992236,True,1,17,A,2023-09-14_12h45.10.334,exp3,2022.2.2,
,,,,,,,,,,,,,,,,,,,,,,,,0,557,Valid,noise,-45,2,3.756312199984677,1,3.0,5.064021300000604,True,1,17,A,2023-09-14_12h45.10.334,exp3,2022.2.2,
,,,,,,,,,,,,,,,,,,,,,,,,0,2274,Valid,noise,-45,1,2.1552831000299193,0,1.0,3.46285460004583,True,1,17,A,2023-09-14_12h45.10.334,exp3,2022.2.2,
,,,,,,,,,,,,,,,,,,,,,,,,0,557,Valid,noise,45,2,2.2885209000087343,1,2.0,3.596353299973998,True,1,17,A,2023-09-14_12h45.10.334,exp3,2022.2.2,
,,,,,,,,,,,,,,,,,,,,,,,,0,1716,Valid,signal,-45,2,3.8766595000051893,0,3.0,7.747983300010674,True,2,17,A,2023-09-14_12h45.10.334,exp3,2022.2.2,
,,,,,,,,,,,,,,,,,,,,,,,,0,2274,Valid,noise,-45,1,2.6721235000295565,0,3.0,3.9802145000430755,True,1,17,A,2023-09-14_12h45.10.334,exp3,2022.2.2,
,,,,,,,,,,,,,,,,,,,,,,,,0,1716,Valid,noise,45,2,3.692456599965226,1,3.0,7.264897200046107,True,2,17,A,2023-09-14_12h45.10.334,exp3,2022.2.2,
,,,,,,,,,,,,,,,,,,,,,,,,0,-1158,Valid,noise,45,1,2.1715129999793135,0,2.0,3.479325100022834,True,1,17,A,2023-09-14_12h45.10.334,exp3,2022.2.2,
,,,,,,,,,,,,,,,,,,,,,,,,0,2274,Valid,noise,45,2,2.0053151000174694,1,3.0,3.3130824000108987,True,1,17,A,2023-09-14_12h45.10.334,exp3,2022.2.2,
,,,,,,,,,,,,,,,,,,,,,,,,0,1716,Valid,noise,45,2,2.2382601000135764,1,4.0,3.546126200002618,True,1,17,A,2023-09-14_12h45.10.334,exp3,2022.2.2,
,,,,,,,,,,,,,,,,,,,,,,,,0,1716,Valid,noise,-45,2,2.62262079998618,1,3.0,3.9300562999560498,True,1,17,A,2023-09-14_12h45.10.334,exp3,2022.2.2,
,,,,,,,,,,,,,,,,,,,,,,,,0,1158,Valid,noise,45,2,2.8052875999710523,1,3.0,4.113119099987671,True,1,17,A,2023-09-14_12h45.10.334,exp3,2022.2.2,
,,,,,,,,,,,,,,,,,,,,,,,,0,-557,Valid,noise,-45,2,3.873515799990855,1,4.0,5.180976799980272,True,1,17,A,2023-09-14_12h45.10.334,exp3,2022.2.2,
,,,,,,,,,,,,,,,,,,,,,,,,0,1158,Valid,noise,45,2,3.855311699968297,1,2.0,5.163220599992201,True,1,17,A,2023-09-14_12h45.10.334,exp3,2022.2.2,
,,,,,,,,,,,,,,,,,,,,,,,,0,-1716,Invalid,signal,45,1,2.072047499998007,1,4.0,3.3799171000136994,True,1,17,A,2023-09-14_12h45.10.334,exp3,2022.2.2,
,,,,,,,,,,,,,,,,,,,,,,,,0,-1716,Valid,noise,45,2,1.7044264000141993,1,3.0,3.0123735000379384,True,1,17,A,2023-09-14_12h45.10.334,exp3,2022.2.2,
,,,,,,,,,,,,,,,,,,,,,,,,0,1158,Valid,noise,-45,1,3.605909099976998,0,3.0,4.913691900030244,True,1,17,A,2023-09-14_12h45.10.334,exp3,2022.2.2,
,,,,,,,,,,,,,,,,,,,,,,,,0,557,Valid,signal,-45,1,2.472401999984868,1,3.0,3.780539300001692,True,1,17,A,2023-09-14_12h45.10.334,exp3,2022.2.2,
,,,,,,,,,,,,,,,,,,,,,,,,0,-557,Invalid,signal,45,1,5.162375800020527,1,3.0,8.681113800033927,True,2,17,A,2023-09-14_12h45.10.334,exp3,2022.2.2,
,,,,,,,,,,,,,,,,,,,,,,,,0,-557,Valid,signal,-45,1,2.768334100022912,1,4.0,7.064581299957354,True,2,17,A,2023-09-14_12h45.10.334,exp3,2022.2.2,
,,,,,,,,,,,,,,,,,,,,,,,,0,2274,Valid,noise,-45,1,2.7231169000151567,0,2.0,4.030909499968402,True,1,17,A,2023-09-14_12h45.10.334,exp3,2022.2.2,
,,,,,,,,,,,,,,,,,,,,,,,,0,-557,Valid,noise,45,1,10.758204100013245,0,4.0,12.065817399998195,True,1,17,A,2023-09-14_12h45.10.334,exp3,2022.2.2,
,,,,,,,,,,,,,,,,,,,,,,,,0,2274,Valid,signal,-45,2,3.5893974999780767,0,1.0,4.897132300015073,True,1,17,A,2023-09-14_12h45.10.334,exp3,2022.2.2,
,,,,,,,,,,,,,,,,,,,,,,,,0,-1158,Valid,signal,45,1,2.404890300007537,1,4.0,3.7126202999497764,True,1,17,A,2023-09-14_12h45.10.334,exp3,2022.2.2,
,,,,,,,,,,,,,,,,,,,,,,,,0,557,Invalid,signal,45,1,2.1887115000281483,1,4.0,3.496443000040017,True,1,17,A,2023-09-14_12h45.10.334,exp3,2022.2.2,
,,,,,,,,,,,,,,,,,,,,,,,,0,-1716,Valid,noise,-45,1,1.8884944999590516,0,2.0,3.1961853000102565,True,1,17,A,2023-09-14_12h45.10.334,exp3,2022.2.2,
,,,,,,,,,,,,,,,,,,,,,,,,0,-2274,Valid,noise,-45,2,2.2052957999985665,1,3.0,3.5129981999634765,True,1,17,A,2023-09-14_12h45.10.334,exp3,2022.2.2,
,,,,,,,,,,,,,,,,,,,,,,,,0,-1158,Invalid,noise,45,2,2.455100500024855,1,2.0,3.7630779000464827,True,1,17,A,2023-09-14_12h45.10.334,exp3,2022.2.2,
,,,,,,,,,,,,,,,,,,,,,,,,0,-1716,Valid,signal,45,1,2.0888509999495,1,3.0,3.3964464999735355,True,1,17,A,2023-09-14_12h45.10.334,exp3,2022.2.2,
,,,,,,,,,,,,,,,,,,,,,,,,0,1158,Valid,noise,45,1,3.5562168000033125,0,2.0,4.863859199977014,True,1,17,A,2023-09-14_12h45.10.334,exp3,2022.2.2,
,,,,,,,,,,,,,,,,,,,,,,,,0,557,Valid,noise,-45,2,4.153348000021651,1,4.0,8.031745499989484,True,2,17,A,2023-09-14_12h45.10.334,exp3,2022.2.2,
,,,,,,,,,,,,,,,,,,,,,,,,0,-1716,Valid,signal,45,2,2.688548600010108,0,2.0,3.99643440003274,True,1,17,A,2023-09-14_12h45.10.334,exp3,2022.2.2,
,,,,,,,,,,,,,,,,,,,,,,,,0,-1716,Invalid,signal,-45,2,3.3881539000431076,0,1.0,4.696273699984886,True,1,17,A,2023-09-14_12h45.10.334,exp3,2022.2.2,
,,,,,,,,,,,,,,,,,,,,,,,,0,-1158,Valid,noise,45,2,2.7393815999967046,1,3.0,4.047121100011282,True,1,17,A,2023-09-14_12h45.10.334,exp3,2022.2.2,
,,,,,,,,,,,,,,,,,,,,,,,,0,557,Valid,noise,-45,2,1.4217676999978721,1,3.0,2.7294741000514477,True,1,17,A,2023-09-14_12h45.10.334,exp3,2022.2.2,
,,,,,,,,,,,,,,,,,,,,,,,,0,-1158,Valid,signal,45,2,2.7223870999878272,0,2.0,4.030000799975824,True,1,17,A,2023-09-14_12h45.10.334,exp3,2022.2.2,
,,,,,,,,,,,,,,,,,,,,,,,,0,-2274,Valid,signal,-45,2,2.7380946000339463,0,1.0,4.0460098999901675,True,1,17,A,2023-09-14_12h45.10.334,exp3,2022.2.2,
,,,,,,,,,,,,,,,,,,,,,,,,0,-2274,Valid,noise,45,2,2.638782900001388,1,1.0,3.946671099984087,True,1,17,A,2023-09-14_12h45.10.334,exp3,2022.2.2,
,,,,,,,,,,,,,,,,,,,,,,,,0,2274,Valid,noise,45,2,4.873130999971181,1,1.0,6.181014900037553,True,1,17,A,2023-09-14_12h45.10.334,exp3,2022.2.2,
,,,,,,,,,,,,,,,,,,,,,,,,0,1158,Valid,signal,-45,1,2.638832100026775,1,4.0,6.164004100020975,True,2,17,A,2023-09-14_12h45.10.334,exp3,2022.2.2,
,,,,,,,,,,,,,,,,,,,,,,,,0,1158,Valid,noise,-45,2,2.90528920001816,1,4.0,6.397412699996494,True,2,17,A,2023-09-14_12h45.10.334,exp3,2022.2.2,
,,,,,,,,,,,,,,,,,,,,,,,,0,1158,Valid,signal,-45,1,3.505758799961768,1,4.0,4.8137499000295065,True,1,17,A,2023-09-14_12h45.10.334,exp3,2022.2.2,
,,,,,,,,,,,,,,,,,,,,,,,,0,-557,Invalid,noise,45,1,4.039660400012508,0,2.0,5.3474674000171944,True,1,17,A,2023-09-14_12h45.10.334,exp3,2022.2.2,
,,,,,,,,,,,,,,,,,,,,,,,,0,-2274,Valid,noise,45,2,24.363155899976846,1,1.0,25.67106220003916,True,1,17,A,2023-09-14_12h45.10.334,exp3,2022.2.2,
,,,,,,,,,,,,,,,,,,,,,,,,0,-2274,Valid,signal,-45,2,2.3387501999968663,0,1.0,3.6464886000030674,True,1,17,A,2023-09-14_12h45.10.334,exp3,2022.2.2,
,,,,,,,,,,,,,,,,,,,,,,,,0,-557,Valid,signal,45,1,1.972150599991437,1,4.0,3.279793800029438,True,1,17,A,2023-09-14_12h45.10.334,exp3,2022.2.2,
,,,,,,,,,,,,,,,,,,,,,,,,0,1158,Valid,signal,45,1,1.654869299964048,1,4.0,2.9626253999886103,True,1,17,A,2023-09-14_12h45.10.334,exp3,2022.2.2,
,,,,,,,,,,,,,,,,,,,,,,,,0,-557,Valid,noise,45,2,6.540316499944311,1,2.0,7.848033200018108,True,1,17,A,2023-09-14_12h45.10.334,exp3,2022.2.2,
,,,,,,,,,,,,,,,,,,,,,,,,0,-557,Valid,signal,-45,1,1.5222479000221938,1,4.0,2.82977850001771,True,1,17,A,2023-09-14_12h45.10.334,exp3,2022.2.2,
,,,,,,,,,,,,,,,,,,,,,,,,0,-1158,Valid,signal,45,1,1.1544205999816768,1,4.0,2.4621616999502294,True,1,17,A,2023-09-14_12h45.10.334,exp3,2022.2.2,
,,,,,,,,,,,,,,,,,,,,,,,,0,-2274,Valid,noise,-45,1,2.6721275000018068,0,3.0,3.9801662000245415,True,1,17,A,2023-09-14_12h45.10.334,exp3,2022.2.2,
,,,,,,,,,,,,,,,,,,,,,,,,0,-1716,Valid,signal,45,2,2.204939400020521,0,1.0,3.512963299988769,True,1,17,A,2023-09-14_12h45.10.334,exp3,2022.2.2,
,,,,,,,,,,,,,,,,,,,,,,,,0,-2274,Valid,signal,-45,2,3.805826800002251,0,3.0,5.11386180005502,True,1,17,A,2023-09-14_12h45.10.334,exp3,2022.2.2,
,,,,,,,,,,,,,,,,,,,,,,,,0,557,Valid,signal,45,1,2.4376657000393607,1,4.0,6.097577500040643,True,2,17,A,2023-09-14_12h45.10.334,exp3,2022.2.2,
,,,,,,,,,,,,,,,,,,,,,,,,0,-1158,Invalid,signal,45,1,2.071786599990446,1,4.0,3.380004100035876,True,1,17,A,2023-09-14_12h45.10.334,exp3,2022.2.2,
,,,,,,,,,,,,,,,,,,,,,,,,0,-557,Valid,noise,-45,2,2.4385593000333756,1,4.0,3.746494100021664,True,1,17,A,2023-09-14_12h45.10.334,exp3,2022.2.2,
,,,,,,,,,,,,,,,,,,,,,,,,0,1716,Valid,signal,-45,1,3.4389998999540694,1,1.0,4.747067399963271,True,1,17,A,2023-09-14_12h45.10.334,exp3,2022.2.2,
,,,,,,,,,,,,,,,,,,,,,,,,0,-1158,Valid,noise,-45,2,2.4886840999824926,1,2.0,3.7964725000201724,True,1,17,A,2023-09-14_12h45.10.334,exp3,2022.2.2,
,,,,,,,,,,,,,,,,,,,,,,,,0,1158,Valid,signal,-45,1,3.905917000025511,1,2.0,5.213735800003633,True,1,17,A,2023-09-14_12h45.10.334,exp3,2022.2.2,
,,,,,,,,,,,,,,,,,,,,,,,,0,1158,Valid,signal,-45,1,4.196727500006091,1,3.0,7.932024000037927,True,2,17,A,2023-09-14_12h45.10.334,exp3,2022.2.2,
,,,,,,,,,,,,,,,,,,,,,,,,0,-557,Valid,signal,45,1,1.8777381000109017,1,4.0,5.746950500004459,True,2,17,A,2023-09-14_12h45.10.334,exp3,2022.2.2,
,,,,,,,,,,,,,,,,,,,,,,,,0,2274,Valid,signal,45,1,6.2904867000179365,1,3.0,7.598311799985822,True,1,17,A,2023-09-14_12h45.10.334,exp3,2022.2.2,
,,,,,,,,,,,,,,,,,,,,,,,,0,1158,Invalid,signal,45,1,1.670709399972111,1,4.0,2.978766199958045,True,1,17,A,2023-09-14_12h45.10.334,exp3,2022.2.2,
,,,,,,,,,,,,,,,,,,,,,,,,0,1716,Valid,noise,45,2,2.2391123000415973,1,2.0,3.546843699994497,True,1,17,A,2023-09-14_12h45.10.334,exp3,2022.2.2,
,,,,,,,,,,,,,,,,,,,,,,,,0,2274,Invalid,noise,45,1,3.255278799973894,0,3.0,4.563160800025798,True,1,17,A,2023-09-14_12h45.10.334,exp3,2022.2.2,
,,,,,,,,,,,,,,,,,,,,,,,,0,-1158,Valid,signal,45,1,2.115311900037341,1,3.0,5.964383300044574,True,2,17,A,2023-09-14_12h45.10.334,exp3,2022.2.2,
,,,,,,,,,,,,,,,,,,,,,,,,0,-1716,Valid,noise,45,2,2.205559300025925,1,2.0,3.513458899979014,True,1,17,A,2023-09-14_12h45.10.334,exp3,2022.2.2,
,,,,,,,,,,,,,,,,,,,,,,,,0,-1716,Valid,signal,45,2,3.221967499994207,0,3.0,4.52972900000168,True,1,17,A,2023-09-14_12h45.10.334,exp3,2022.2.2,
,,,,,,,,,,,,,,,,,,,,,,,,0,2274,Invalid,signal,-45,2,3.222661000036169,0,3.0,4.530417500005569,True,1,17,A,2023-09-14_12h45.10.334,exp3,2022.2.2,
,,,,,,,,,,,,,,,,,,,,,,,,0,1158,Valid,signal,45,1,2.021290200005751,1,4.0,3.3293282999657094,True,1,17,A,2023-09-14_12h45.10.334,exp3,2022.2.2,
,,,,,,,,,,,,,,,,,,,,,,,,0,-2274,Invalid,noise,-45,2,3.5226963000022806,1,1.0,4.830398200021591,True,1,17,A,2023-09-14_12h45.10.334,exp3,2022.2.2,
,,,,,,,,,,,,,,,,,,,,,,,,0,1158,Valid,noise,45,2,2.438535299967043,1,3.0,3.7463978999876417,True,1,17,A,2023-09-14_12h45.10.334,exp3,2022.2.2,
,,,,,,,,,,,,,,,,,,,,,,,,0,557,Valid,noise,-45,2,2.466608599992469,1,4.0,6.098338800016791,True,2,17,A,2023-09-14_12h45.10.334,exp3,2022.2.2,
,,,,,,,,,,,,,,,,,,,,,,,,0,557,Invalid,noise,45,2,2.8056276999996044,1,2.0,6.230543299985584,True,2,17,A,2023-09-14_12h45.10.334,exp3,2022.2.2,
,,,,,,,,,,,,,,,,,,,,,,,,0,-2274,Valid,noise,-45,2,2.2715857999864966,1,4.0,3.579165000002831,True,1,17,A,2023-09-14_12h45.10.334,exp3,2022.2.2,
,,,,,,,,,,,,,,,,,,,,,,,,0,-1158,Valid,signal,45,1,1.72200760000851,1,4.0,3.029801399970893,True,1,17,A,2023-09-14_12h45.10.334,exp3,2022.2.2,
,,,,,,,,,,,,,,,,,,,,,,,,0,2274,Valid,noise,45,2,2.2880862999591045,1,2.0,3.595895200036466,True,1,17,A,2023-09-14_12h45.10.334,exp3,2022.2.2,
,,,,,,,,,,,,,,,,,,,,,,,,0,557,Invalid,signal,-45,1,2.2053236999781802,1,4.0,3.5132356000249274,True,1,17,A,2023-09-14_12h45.10.334,exp3,2022.2.2,
,,,,,,,,,,,,,,,,,,,,,,,,0,557,Valid,noise,-45,2,4.571995300007984,1,2.0,5.88002250000136,True,1,17,A,2023-09-14_12h45.10.334,exp3,2022.2.2,
,,,,,,,,,,,,,,,,,,,,,,,,0,1158,Valid,noise,45,2,2.6590527999796905,1,3.0,12.75017030001618,True,2,17,A,2023-09-14_12h45.10.334,exp3,2022.2.2,
,,,,,,,,,,,,,,,,,,,,,,,,0,-2274,Valid,signal,-45,2,4.156111399992369,0,4.0,5.463869800034445,True,1,17,A,2023-09-14_12h45.10.334,exp3,2022.2.2,
,,,,,,,,,,,,,,,,,,,,,,,,0,-1158,Valid,signal,-45,2,1.5889293000218458,0,2.0,2.896618800004944,True,1,17,A,2023-09-14_12h45.10.334,exp3,2022.2.2,
,,,,,,,,,,,,,,,,,,,,,,,,0,-557,Valid,signal,-45,1,1.4039846999803558,1,4.0,2.712160399998538,True,1,17,A,2023-09-14_12h45.10.334,exp3,2022.2.2,
,,,,,,,,,,,,,,,,,,,,,,,,0,2274,Valid,signal,-45,2,1.80549489997793,0,2.0,3.113173399993684,True,1,17,A,2023-09-14_12h45.10.334,exp3,2022.2.2,
,,,,,,,,,,,,,,,,,,,,,,,,0,-2274,Valid,signal,45,2,2.8059178999974392,0,3.0,4.113679000001866,True,1,17,A,2023-09-14_12h45.10.334,exp3,2022.2.2,
,,,,,,,,,,,,,,,,,,,,,,,,0,-1158,Invalid,noise,45,1,4.089051399962045,0,1.0,5.396726300008595,True,1,17,A,2023-09-14_12h45.10.334,exp3,2022.2.2,
,,,,,,,,,,,,,,,,,,,,,,,,0,-2274,Valid,noise,-45,2,2.3392512000282295,1,2.0,3.6470271999714896,True,1,17,A,2023-09-14_12h45.10.334,exp3,2022.2.2,
,,,,,,,,,,,,,,,,,,,,,,,,0,-2274,Valid,noise,45,2,1.6043340000323951,1,1.0,2.9121597000048496,True,1,17,A,2023-09-14_12h45.10.334,exp3,2022.2.2,
,,,,,,,,,,,,,,,,,,,,,,,,0,-1158,Valid,noise,45,1,3.4223207000177354,0,1.0,4.7303838999941945,True,1,17,A,2023-09-14_12h45.10.334,exp3,2022.2.2,
,,,,,,,,,,,,,,,,,,,,,,,,0,-1716,Valid,noise,45,2,2.322077699995134,1,2.0,3.629840199952014,True,1,17,A,2023-09-14_12h45.10.334,exp3,2022.2.2,
,,,,,,,,,,,,,,,,,,,,,,,,0,-1716,Valid,signal,-45,1,2.255443900008686,1,3.0,3.56338720000349,True,1,17,A,2023-09-14_12h45.10.334,exp3,2022.2.2,
,,,,,,,,,,,,,,,,,,,,,,,,0,-2274,Valid,signal,45,1,3.122071199992206,1,1.0,4.429853999987245,True,1,17,A,2023-09-14_12h45.10.334,exp3,2022.2.2,
,,,,,,,,,,,,,,,,,,,,,,,,0,1716,Valid,noise,-45,2,3.8391768999863416,1,3.0,5.147281899990048,True,1,17,A,2023-09-14_12h45.10.334,exp3,2022.2.2,
,,,,,,,,,,,,,,,,,,,,,,,,1,-1716,Valid,signal,-45,2,5.2478085000184365,0,2.0,6.555735100002494,True,1,17,A,2023-09-14_12h45.10.334,exp3,2022.2.2,
,,,,,,,,,,,,,,,,,,,,,,,,2,-1716,Invalid,noise,-45,1,2.2552823000005446,0,2.0,3.563369700044859,True,1,17,A,2023-09-14_12h45.10.334,exp3,2022.2.2,
,,,,,,,,,,,,,,,,,,,,,,,,3,-557,Valid,noise,45,2,2.5382843999541365,1,3.0,3.846566200023517,True,1,17,A,2023-09-14_12h45.10.334,exp3,2022.2.2,
,,,,,,,,,,,,,,,,,,,,,,,,4,1158,Valid,signal,45,1,2.2545558999991044,1,4.0,3.5625734999775887,True,1,17,A,2023-09-14_12h45.10.334,exp3,2022.2.2,
,,,,,,,,,,,,,,,,,,,,,,,,5,-1716,Valid,signal,45,1,1.2718659000238404,1,3.0,2.5798255000263453,True,1,17,A,2023-09-14_12h45.10.334,exp3,2022.2.2,
,,,,,,,,,,,,,,,,,,,,,,,,6,-1716,Valid,noise,-45,1,2.2211184999905527,0,2.0,3.5292917999904603,True,1,17,A,2023-09-14_12h45.10.334,exp3,2022.2.2,
,,,,,,,,,,,,,,,,,,,,,,,,7,-1158,Invalid,noise,-45,1,2.3711458000470884,0,2.0,3.679530900029931,True,1,17,A,2023-09-14_12h45.10.334,exp3,2022.2.2,
,,,,,,,,,,,,,,,,,,,,,,,,8,-557,Valid,signal,-45,1,1.6716345999739133,1,4.0,2.9797065000166185,True,1,17,A,2023-09-14_12h45.10.334,exp3,2022.2.2,
,,,,,,,,,,,,,,,,,,,,,,,,9,1158,Valid,signal,45,1,1.2883267999859527,1,4.0,2.596405699965544,True,1,17,A,2023-09-14_12h45.10.334,exp3,2022.2.2,
,,,,,,,,,,,,,,,,,,,,,,,,10,-2274,Valid,noise,45,2,2.477705099969171,1,2.0,6.16353750001872,True,2,17,A,2023-09-14_12h45.10.334,exp3,2022.2.2,
,,,,,,,,,,,,,,,,,,,,,,,,11,1158,Valid,noise,-45,1,2.568175699969288,0,2.0,6.014126599999145,True,2,17,A,2023-09-14_12h45.10.334,exp3,2022.2.2,
,,,,,,,,,,,,,,,,,,,,,,,,12,-2274,Valid,noise,-45,2,3.1057358999969438,1,1.0,4.414106099982746,True,1,17,A,2023-09-14_12h45.10.334,exp3,2022.2.2,
,,,,,,,,,,,,,,,,,,,,,,,,13,1716,Valid,noise,45,2,2.655509100004565,1,2.0,3.963406399998348,True,1,17,A,2023-09-14_12h45.10.334,exp3,2022.2.2,
,,,,,,,,,,,,,,,,,,,,,,,,14,557,Valid,noise,-45,2,2.037999199994374,1,3.0,3.3459123999928124,True,1,17,A,2023-09-14_12h45.10.334,exp3,2022.2.2,
,,,,,,,,,,,,,,,,,,,,,,,,15,1716,Valid,signal,45,1,1.888284599990584,1,4.0,3.196341500035487,True,1,17,A,2023-09-14_12h45.10.334,exp3,2022.2.2,
,,,,,,,,,,,,,,,,,,,,,,,,16,-2274,Valid,noise,-45,2,4.39173870004015,1,2.0,114.40554949996294,True,22,17,A,2023-09-14_12h45.10.334,exp3,2022.2.2,
,,,,,,,,,,,,,,,,,,,,,,,,17,1158,Valid,signal,45,1,11.941765399998985,1,3.0,13.250139599957038,True,1,17,A,2023-09-14_12h45.10.334,exp3,2022.2.2,
,,,,,,,,,,,,,,,,,,,,,,,,18,557,Valid,noise,45,2,1.6386475000181235,1,4.0,2.94677340000635,True,1,17,A,2023-09-14_12h45.10.334,exp3,2022.2.2,
,,,,,,,,,,,,,,,,,,,,,,,,19,-1158,Valid,signal,45,1,0.9382842999766581,1,4.0,2.2461391999968328,True,1,17,A,2023-09-14_12h45.10.334,exp3,2022.2.2,
,,,,,,,,,,,,,,,,,,,,,,,,20,-2274,Valid,signal,45,2,1.9876737000304274,0,3.0,3.2959458000259474,True,1,17,A,2023-09-14_12h45.10.334,exp3,2022.2.2,
,,,,,,,,,,,,,,,,,,,,,,,,21,1158,Invalid,noise,-45,1,2.0883341999724507,0,3.0,3.396496700006537,True,1,17,A,2023-09-14_12h45.10.334,exp3,2022.2.2,
,,,,,,,,,,,,,,,,,,,,,,,,22,1716,Valid,signal,45,1,1.3211032999679446,1,4.0,2.6294989999732934,True,1,17,A,2023-09-14_12h45.10.334,exp3,2022.2.2,
,,,,,,,,,,,,,,,,,,,,,,,,23,-1158,Valid,signal,-45,2,2.8392880000174046,0,2.0,4.147238400008064,True,1,17,A,2023-09-14_12h45.10.334,exp3,2022.2.2,
,,,,,,,,,,,,,,,,,,,,,,,,24,-2274,Valid,noise,-45,1,1.3040946000255644,0,3.0,2.6122801000019535,True,1,17,A,2023-09-14_12h45.10.334,exp3,2022.2.2,
,,,,,,,,,,,,,,,,,,,,,,,,25,-2274,Invalid,noise,45,1,2.8891345000010915,0,2.0,4.197263500012923,True,1,17,A,2023-09-14_12h45.10.334,exp3,2022.2.2,
,,,,,,,,,,,,,,,,,,,,,,,,26,-557,Valid,noise,-45,1,2.1040947000146843,0,1.0,3.412474100012332,True,1,17,A,2023-09-14_12h45.10.334,exp3,2022.2.2,
,,,,,,,,,,,,,,,,,,,,,,,,27,1158,Valid,signal,45,1,2.2899460999760777,1,4.0,5.680626899993513,True,2,17,A,2023-09-14_12h45.10.334,exp3,2022.2.2,
,,,,,,,,,,,,,,,,,,,,,,,,28,-557,Valid,noise,45,2,1.654661100008525,1,4.0,2.9628631999948993,True,1,17,A,2023-09-14_12h45.10.334,exp3,2022.2.2,
,,,,,,,,,,,,,,,,,,,,,,,,29,557,Valid,noise,-45,2,1.7535527999862097,1,4.0,5.13067460001912,True,2,17,A,2023-09-14_12h45.10.334,exp3,2022.2.2,
,,,,,,,,,,,,,,,,,,,,,,,,30,-1716,Valid,signal,45,2,2.0382548000197858,0,3.0,3.346595300012268,True,1,17,A,2023-09-14_12h45.10.334,exp3,2022.2.2,
,,,,,,,,,,,,,,,,,,,,,,,,31,-1158,Invalid,noise,45,1,2.138150200014934,0,2.0,3.4464197999914177,True,1,17,A,2023-09-14_12h45.10.334,exp3,2022.2.2,
,,,,,,,,,,,,,,,,,,,,,,,,32,-1158,Valid,noise,45,2,1.971341399999801,1,3.0,3.279616800020449,True,1,17,A,2023-09-14_12h45.10.334,exp3,2022.2.2,
,,,,,,,,,,,,,,,,,,,,,,,,33,-1158,Invalid,signal,-45,1,2.6385028999648057,1,4.0,3.9465723000466824,True,1,17,A,2023-09-14_12h45.10.334,exp3,2022.2.2,
,,,,,,,,,,,,,,,,,,,,,,,,34,1158,Valid,noise,45,2,3.073780699982308,1,3.0,11.666327400016598,True,4,17,A,2023-09-14_12h45.10.334,exp3,2022.2.2,
,,,,,,,,,,,,,,,,,,,,,,,,35,-557,Valid,signal,45,1,2.5227435000124387,1,4.0,3.8306994999875315,True,1,17,A,2023-09-14_12h45.10.334,exp3,2022.2.2,
,,,,,,,,,,,,,,,,,,,,,,,,36,1158,Valid,signal,-45,1,1.1698790999944322,1,4.0,2.4782799999811687,True,1,17,A,2023-09-14_12h45.10.334,exp3,2022.2.2,
,,,,,,,,,,,,,,,,,,,,,,,,37,1158,Valid,signal,45,1,0.9886203999631107,1,4.0,2.29663990001427,True,1,17,A,2023-09-14_12h45.10.334,exp3,2022.2.2,
,,,,,,,,,,,,,,,,,,,,,,,,38,-1158,Valid,signal,-45,2,1.4538830999517813,0,4.0,2.761966699967161,True,1,17,A,2023-09-14_12h45.10.334,exp3,2022.2.2,
,,,,,,,,,,,,,,,,,,,,,,,,39,-1716,Invalid,signal,-45,1,1.5714802999864332,1,3.0,2.87961569998879,True,1,17,A,2023-09-14_12h45.10.334,exp3,2022.2.2,
,,,,,,,,,,,,,,,,,,,,,,,,40,2274,Valid,noise,-45,1,2.4383081999840215,0,1.0,3.7465244000195526,True,1,17,A,2023-09-14_12h45.10.334,exp3,2022.2.2,
,,,,,,,,,,,,,,,,,,,,,,,,41,-1158,Valid,noise,-45,2,2.4549118999857455,1,3.0,3.763070599990897,True,1,17,A,2023-09-14_12h45.10.334,exp3,2022.2.2,
,,,,,,,,,,,,,,,,,,,,,,,,42,-1158,Valid,noise,-45,2,1.8043492999859154,1,2.0,3.1125285000307485,True,1,17,A,2023-09-14_12h45.10.334,exp3,2022.2.2,
,,,,,,,,,,,,,,,,,,,,,,,,43,-1158,Invalid,signal,-45,1,2.3721355000161566,1,4.0,3.680469400016591,True,1,17,A,2023-09-14_12h45.10.334,exp3,2022.2.2,
,,,,,,,,,,,,,,,,,,,,,,,,44,557,Valid,signal,-45,1,1.5215612000320107,1,4.0,2.829478100000415,True,1,17,A,2023-09-14_12h45.10.334,exp3,2022.2.2,
,,,,,,,,,,,,,,,,,,,,,,,,45,-2274,Valid,signal,45,2,2.238199999963399,0,3.0,3.5463963999645784,True,1,17,A,2023-09-14_12h45.10.334,exp3,2022.2.2,
,,,,,,,,,,,,,,,,,,,,,,,,46,557,Invalid,noise,45,2,3.417799000046216,1,4.0,7.097714899980929,True,2,17,A,2023-09-14_12h45.10.334,exp3,2022.2.2,
,,,,,,,,,,,,,,,,,,,,,,,,47,-2274,Valid,signal,-45,1,3.051882100000512,1,4.0,6.581189599994104,True,2,17,A,2023-09-14_12h45.10.334,exp3,2022.2.2,
,,,,,,,,,,,,,,,,,,,,,,,,48,-557,Valid,noise,45,2,1.4041204000241123,1,4.0,2.712176000000909,True,1,17,A,2023-09-14_12h45.10.334,exp3,2022.2.2,
,,,,,,,,,,,,,,,,,,,,,,,,49,1158,Valid,noise,45,2,1.154724600026384,1,4.0,2.462986300000921,True,1,17,A,2023-09-14_12h45.10.334,exp3,2022.2.2,
,,,,,,,,,,,,,,,,,,,,,,,,50,2274,Valid,signal,45,2,2.2381612000172026,0,2.0,3.5465841999975964,True,1,17,A,2023-09-14_12h45.10.334,exp3,2022.2.2,
,,,,,,,,,,,,,,,,,,,,,,,,51,-1158,Valid,noise,-45,2,2.821666300005745,1,1.0,4.129848599957768,True,1,17,A,2023-09-14_12h45.10.334,exp3,2022.2.2,
,,,,,,,,,,,,,,,,,,,,,,,,52,557,Invalid,signal,-45,1,3.188345799979288,1,4.0,4.496873900003266,True,1,17,A,2023-09-14_12h45.10.334,exp3,2022.2.2,
,,,,,,,,,,,,,,,,,,,,,,,,53,1716,Valid,signal,-45,2,5.339558099978603,0,3.0,6.647870499989949,True,1,17,A,2023-09-14_12h45.10.334,exp3,2022.2.2,
,,,,,,,,,,,,,,,,,,,,,,,,54,2274,Valid,signal,-45,2,2.5213558000396006,0,1.0,3.8297280999831855,True,1,17,A,2023-09-14_12h45.10.334,exp3,2022.2.2,
,,,,,,,,,,,,,,,,,,,,,,,,55,-1716,Valid,noise,-45,2,2.071595099987462,1,2.0,3.379841400019359,True,1,17,A,2023-09-14_12h45.10.334,exp3,2022.2.2,
,,,,,,,,,,,,,,,,,,,,,,,,56,1716,Valid,signal,-45,2,2.438355299993418,0,2.0,3.746533899975475,True,1,17,A,2023-09-14_12h45.10.334,exp3,2022.2.2,
,,,,,,,,,,,,,,,,,,,,,,,,57,-1158,Valid,noise,45,2,2.3886922000092454,1,3.0,3.6967118000029586,True,1,17,A,2023-09-14_12h45.10.334,exp3,2022.2.2,
,,,,,,,,,,,,,,,,,,,,,,,,58,-1716,Valid,noise,-45,2,4.439780100015923,1,2.0,5.747808100015391,True,1,17,A,2023-09-14_12h45.10.334,exp3,2022.2.2,
,,,,,,,,,,,,,,,,,,,,,,,,59,1158,Invalid,noise,-45,2,2.8878763000248,1,1.0,4.196021999989171,True,1,17,A,2023-09-14_12h45.10.334,exp3,2022.2.2,
,,,,,,,,,,,,,,,,,,,,,,,,60,-557,Valid,signal,45,1,1.4552284000092186,1,4.0,2.7632989999838173,True,1,17,A,2023-09-14_12h45.10.334,exp3,2022.2.2,
,,,,,,,,,,,,,,,,,,,,,,,,61,1716,Valid,noise,-45,2,3.1047281000064686,1,3.0,4.412776300043333,True,1,17,A,2023-09-14_12h45.10.334,exp3,2022.2.2,
,,,,,,,,,,,,,,,,,,,,,,,,62,557,Invalid,signal,45,1,2.738848099950701,1,4.0,4.047472900012508,True,1,17,A,2023-09-14_12h45.10.334,exp3,2022.2.2,
,,,,,,,,,,,,,,,,,,,,,,,,63,-2274,Valid,noise,-45,2,6.373118499992415,1,2.0,7.681134599959478,True,1,17,A,2023-09-14_12h45.10.334,exp3,2022.2.2,
,,,,,,,,,,,,,,,,,,,,,,,,64,-1716,Valid,signal,-45,1,2.854931299982127,1,2.0,4.162914800050203,True,1,17,A,2023-09-14_12h45.10.334,exp3,2022.2.2,
,,,,,,,,,,,,,,,,,,,,,,,,65,-1716,Valid,signal,45,2,3.672641000011936,0,2.0,4.9805931999580935,True,1,17,A,2023-09-14_12h45.10.334,exp3,2022.2.2,
,,,,,,,,,,,,,,,,,,,,,,,,66,1716,Invalid,noise,-45,2,2.487973899987992,1,3.0,3.796055199985858,True,1,17,A,2023-09-14_12h45.10.334,exp3,2022.2.2,
,,,,,,,,,,,,,,,,,,,,,,,,67,-1716,Valid,noise,45,1,3.1723858999903314,0,1.0,4.480298799986485,True,1,17,A,2023-09-14_12h45.10.334,exp3,2022.2.2,
,,,,,,,,,,,,,,,,,,,,,,,,68,-2274,Valid,signal,-45,2,2.0708878000150435,0,2.0,3.3790522000053898,True,1,17,A,2023-09-14_12h45.10.334,exp3,2022.2.2,
,,,,,,,,,,,,,,,,,,,,,,,,69,-557,Valid,signal,45,1,2.054932600003667,1,4.0,3.3631514000007883,True,1,17,A,2023-09-14_12h45.10.334,exp3,2022.2.2,
,,,,,,,,,,,,,,,,,,,,,,,,70,1716,Valid,signal,-45,2,2.288239000015892,0,2.0,3.596558500023093,True,1,17,A,2023-09-14_12h45.10.334,exp3,2022.2.2,
,,,,,,,,,,,,,,,,,,,,,,,,71,-2274,Valid,signal,45,2,1.7382661000010557,0,3.0,3.046287000004668,True,1,17,A,2023-09-14_12h45.10.334,exp3,2022.2.2,
,,,,,,,,,,,,,,,,,,,,,,,,72,2274,Valid,noise,-45,2,2.42180280003231,1,1.0,3.729918600001838,True,1,17,A,2023-09-14_12h45.10.334,exp3,2022.2.2,
,,,,,,,,,,,,,,,,,,,,,,,,73,1716,Valid,noise,-45,2,2.071749800001271,1,3.0,3.3798779000062495,True,1,17,A,2023-09-14_12h45.10.334,exp3,2022.2.2,
,,,,,,,,,,,,,,,,,,,,,,,,74,-1716,Valid,signal,-45,2,2.9048254000372253,0,1.0,4.213160499988589,True,1,17,A,2023-09-14_12h45.10.334,exp3,2022.2.2,
,,,,,,,,,,,,,,,,,,,,,,,,75,1158,Invalid,signal,-45,1,1.7215525000356138,1,4.0,3.029565199976787,True,1,17,A,2023-09-14_12h45.10.334,exp3,2022.2.2,
,,,,,,,,,,,,,,,,,,,,,,,,76,-1716,Valid,signal,-45,2,1.4709909000084735,0,3.0,2.7791788000031374,True,1,17,A,2023-09-14_12h45.10.334,exp3,2022.2.2,
,,,,,,,,,,,,,,,,,,,,,,,,77,-2274,Valid,signal,-45,1,1.788337700010743,1,4.0,3.0966198000242002,True,1,17,A,2023-09-14_12h45.10.334,exp3,2022.2.2,
,,,,,,,,,,,,,,,,,,,,,,,,78,2274,Valid,noise,-45,1,3.088921600021422,0,3.0,4.396938499994576,True,1,17,A,2023-09-14_12h45.10.334,exp3,2022.2.2,
,,,,,,,,,,,,,,,,,,,,,,,,79,-2274,Valid,signal,45,2,1.154399299994111,0,2.0,2.462607300025411,True,1,17,A,2023-09-14_12h45.10.334,exp3,2022.2.2,
,,,,,,,,,,,,,,,,,,,,,,,,80,1158,Valid,noise,-45,2,1.7551653999835253,1,3.0,3.0632512000156567,True,1,17,A,2023-09-14_12h45.10.334,exp3,2022.2.2,
,,,,,,,,,,,,,,,,,,,,,,,,81,557,Valid,noise,45,2,2.8382566000218503,1,2.0,4.146351300005335,True,1,17,A,2023-09-14_12h45.10.334,exp3,2022.2.2,
,,,,,,,,,,,,,,,,,,,,,,,,82,-1716,Invalid,signal,45,1,3.4720552999642678,1,3.0,4.7802008999860846,True,1,17,A,2023-09-14_12h45.10.334,exp3,2022.2.2,
,,,,,,,,,,,,,,,,,,,,,,,,83,-1158,Valid,signal,-45,1,1.7047302999999374,1,3.0,3.012958300008904,True,1,17,A,2023-09-14_12h45.10.334,exp3,2022.2.2,
,,,,,,,,,,,,,,,,,,,,,,,,84,-2274,Valid,noise,-45,2,1.6722950999974273,1,2.0,2.980203800019808,True,1,17,A,2023-09-14_12h45.10.334,exp3,2022.2.2,
,,,,,,,,,,,,,,,,,,,,,,,,85,-2274,Valid,signal,45,2,4.90593649999937,0,1.0,6.213943300012033,True,1,17,A,2023-09-14_12h45.10.334,exp3,2022.2.2,
,,,,,,,,,,,,,,,,,,,,,,,,86,2274,Valid,signal,-45,2,2.3410896999994293,0,2.0,10.815489200002048,True,2,17,A,2023-09-14_12h45.10.334,exp3,2022.2.2,
,,,,,,,,,,,,,,,,,,,,,,,,87,-557,Valid,signal,45,1,11.391787400003523,1,4.0,12.700189199997112,True,1,17,A,2023-09-14_12h45.10.334,exp3,2022.2.2,
,,,,,,,,,,,,,,,,,,,,,,,,88,1716,Valid,noise,45,2,1.6211065000388771,1,2.0,2.9294161000289023,True,1,17,A,2023-09-14_12h45.10.334,exp3,2022.2.2,
,,,,,,,,,,,,,,,,,,,,,,,,89,557,Valid,noise,45,2,2.8889587000012398,1,1.0,4.197185700002592,True,1,17,A,2023-09-14_12h45.10.334,exp3,2022.2.2,
,,,,,,,,,,,,,,,,,,,,,,,,90,-2274,Valid,noise,-45,1,2.5548323999973945,0,3.0,3.8628489999682643,True,1,17,A,2023-09-14_12h45.10.334,exp3,2022.2.2,
,,,,,,,,,,,,,,,,,,,,,,,,91,2274,Valid,noise,-45,2,1.7377128000371158,1,3.0,3.0462581999599934,True,1,17,A,2023-09-14_12h45.10.334,exp3,2022.2.2,
,,,,,,,,,,,,,,,,,,,,,,,,92,-2274,Invalid,noise,-45,1,4.05571789998794,0,2.0,5.364054600009695,True,1,17,A,2023-09-14_12h45.10.334,exp3,2022.2.2,
,,,,,,,,,,,,,,,,,,,,,,,,93,-557,Valid,noise,45,1,1.8865649999934249,0,2.0,5.480491800000891,True,2,17,A,2023-09-14_12h45.10.334,exp3,2022.2.2,
,,,,,,,,,,,,,,,,,,,,,,,,94,-2274,Valid,noise,-45,2,1.9379553000326268,1,3.0,3.2463442000444047,True,1,17,A,2023-09-14_12h45.10.334,exp3,2022.2.2,
,,,,,,,,,,,,,,,,,,,,,,,,95,-1158,Valid,noise,45,2,1.754593499994371,1,3.0,3.0629226000164635,True,1,17,A,2023-09-14_12h45.10.334,exp3,2022.2.2,
,,,,,,,,,,,,,,,,,,,,,,,,96,-1158,Valid,signal,45,2,4.955479199998081,0,4.0,6.263922500016633,True,1,17,A,2023-09-14_12h45.10.334,exp3,2022.2.2,
,,,,,,,,,,,,,,,,,,,,,,,,97,1158,Valid,signal,-45,1,1.1046917999628931,1,4.0,2.412845799990464,True,1,17,A,2023-09-14_12h45.10.334,exp3,2022.2.2,
,,,,,,,,,,,,,,,,,,,,,,,,98,-1158,Valid,signal,45,2,1.621667700004764,0,3.0,2.9297969000181183,True,1,17,A,2023-09-14_12h45.10.334,exp3,2022.2.2,
,,,,,,,,,,,,,,,,,,,,,,,,99,2274,Valid,noise,45,1,5.789811299997382,0,2.0,7.098017399956007,True,1,17,A,2023-09-14_12h45.10.334,exp3,2022.2.2,
,,,,,,,,,,,,,,,,,,,,,,,,100,1716,Valid,noise,-45,2,3.5122982999891974,1,3.0,7.0142264000023715,True,2,17,A,2023-09-14_12h45.10.334,exp3,2022.2.2,
,,,,,,,,,,,,,,,,,,,,,,,,101,-557,Valid,noise,-45,2,2.5385338999913074,1,1.0,3.8465606999816373,True,1,17,A,2023-09-14_12h45.10.334,exp3,2022.2.2,
,,,,,,,,,,,,,,,,,,,,,,,,102,1158,Valid,noise,45,2,2.1390121000004,1,3.0,3.4471918999915943,True,1,17,A,2023-09-14_12h45.10.334,exp3,2022.2.2,
,,,,,,,,,,,,,,,,,,,,,,,,103,2274,Valid,noise,45,2,5.388424699951429,1,2.0,6.6969534999807365,True,1,17,A,2023-09-14_12h45.10.334,exp3,2022.2.2,
,,,,,,,,,,,,,,,,,,,,,,,,104,-557,Invalid,noise,-45,2,1.8291922000353225,1,4.0,5.68080239999108,True,2,17,A,2023-09-14_12h45.10.334,exp3,2022.2.2,
,,,,,,,,,,,,,,,,,,,,,,,,105,1716,Valid,noise,-45,2,2.947680399985984,1,3.0,6.097507999977097,True,2,17,A,2023-09-14_12h45.10.334,exp3,2022.2.2,
,,,,,,,,,,,,,,,,,,,,,,,,106,557,Valid,signal,45,1,1.855316299945116,1,3.0,3.1634753000107594,True,1,17,A,2023-09-14_12h45.10.334,exp3,2022.2.2,
,,,,,,,,,,,,,,,,,,,,,,,,107,1158,Valid,signal,45,1,1.3870924999937415,1,4.0,2.6954340999946,True,1,17,A,2023-09-14_12h45.10.334,exp3,2022.2.2,
,,,,,,,,,,,,,,,,,,,,,,,,108,2274,Valid,noise,-45,1,2.8223580000340007,0,2.0,4.130240800033789,True,1,17,A,2023-09-14_12h45.10.334,exp3,2022.2.2,
,,,,,,,,,,,,,,,,,,,,,,,,109,2274,Valid,signal,-45,1,2.6889605000033043,1,2.0,3.9969414000515826,True,1,17,A,2023-09-14_12h45.10.334,exp3,2022.2.2,
,,,,,,,,,,,,,,,,,,,,,,,,110,-2274,Valid,noise,45,2,3.404411900031846,1,2.0,4.713046900054906,True,1,17,A,2023-09-14_12h45.10.334,exp3,2022.2.2,
,,,,,,,,,,,,,,,,,,,,,,,,111,1158,Valid,noise,45,2,2.54307549999794,1,1.0,6.080520200019237,True,2,17,A,2023-09-14_12h45.10.334,exp3,2022.2.2,
,,,,,,,,,,,,,,,,,,,,,,,,112,2274,Valid,noise,-45,1,1.7881864000228234,0,1.0,3.0964546999894083,True,1,17,A,2023-09-14_12h45.10.334,exp3,2022.2.2,
,,,,,,,,,,,,,,,,,,,,,,,,113,557,Valid,signal,45,1,2.622410600015428,1,4.0,3.930377899960149,True,1,17,A,2023-09-14_12h45.10.334,exp3,2022.2.2,
,,,,,,,,,,,,,,,,,,,,,,,,114,2274,Valid,signal,45,1,3.3551060000318103,1,3.0,4.663330299954396,True,1,17,A,2023-09-14_12h45.10.334,exp3,2022.2.2,
,,,,,,,,,,,,,,,,,,,,,,,,115,-1716,Valid,noise,45,2,17.49409019999439,1,2.0,18.801969899970572,True,1,17,A,2023-09-14_12h45.10.334,exp3,2022.2.2,
,,,,,,,,,,,,,,,,,,,,,,,,116,2274,Invalid,signal,45,1,2.4050227999687195,1,3.0,3.713299499999266,True,1,17,A,2023-09-14_12h45.10.334,exp3,2022.2.2,
,,,,,,,,,,,,,,,,,,,,,,,,117,2274,Valid,noise,-45,2,3.2056533999857493,1,1.0,4.513678100018296,True,1,17,A,2023-09-14_12h45.10.334,exp3,2022.2.2,
,,,,,,,,,,,,,,,,,,,,,,,,118,557,Valid,signal,-45,1,1.1709292000159621,1,4.0,2.4792219000519253,True,1,17,A,2023-09-14_12h45.10.334,exp3,2022.2.2,
,,,,,,,,,,,,,,,,,,,,,,,,119,1716,Valid,signal,45,2,1.838670999975875,0,2.0,3.146618300001137,True,1,17,A,2023-09-14_12h45.10.334,exp3,2022.2.2,
,,,,,,,,,,,,,,,,,,,,,,,,120,-1716,Valid,noise,-45,2,1.3203373999567702,1,3.0,2.6287905999924988,True,1,17,A,2023-09-14_12h45.10.334,exp3,2022.2.2,
,,,,,,,,,,,,,,,,,,,,,,,,121,-1716,Valid,noise,-45,2,1.9888706000056118,1,2.0,3.2970206000027247,True,1,17,A,2023-09-14_12h45.10.334,exp3,2022.2.2,
,,,,,,,,,,,,,,,,,,,,,,,,122,-557,Valid,noise,45,2,2.804277600022033,1,3.0,4.112646399997175,True,1,17,A,2023-09-14_12h45.10.334,exp3,2022.2.2,
,,,,,,,,,,,,,,,,,,,,,,,,123,1158,Invalid,signal,-45,1,2.0715122999972664,1,2.0,3.379779500013683,True,1,17,A,2023-09-14_12h45.10.334,exp3,2022.2.2,
,,,,,,,,,,,,,,,,,,,,,,,,124,1716,Valid,noise,-45,2,1.7386153999832459,1,3.0,3.04669449996436,True,1,17,A,2023-09-14_12h45.10.334,exp3,2022.2.2,
,,,,,,,,,,,,,,,,,,,,,,,,125,2274,Invalid,noise,45,1,3.138649499975145,0,2.0,4.446821500023361,True,1,17,A,2023-09-14_12h45.10.334,exp3,2022.2.2,
,,,,,,,,,,,,,,,,,,,,,,,,126,-557,Valid,noise,-45,1,2.42096360004507,0,3.0,3.7293824999942444,True,1,17,A,2023-09-14_12h45.10.334,exp3,2022.2.2,
,,,,,,,,,,,,,,,,,,,,,,,,127,-557,Valid,signal,-45,1,3.5225066000130028,1,4.0,4.830520499963313,True,1,17,A,2023-09-14_12h45.10.334,exp3,2022.2.2,
,,,,,,,,,,,,,,,,,,,,,,,,128,1158,Valid,noise,-45,2,1.909451799991075,1,3.0,5.1471600999939255,True,2,17,A,2023-09-14_12h45.10.334,exp3,2022.2.2,
,,,,,,,,,,,,,,,,,,,,,,,,129,-1716,Invalid,noise,-45,2,2.3056139999534935,1,2.0,3.61369669996202,True,1,17,A,2023-09-14_12h45.10.334,exp3,2022.2.2,
,,,,,,,,,,,,,,,,,,,,,,,,130,1716,Invalid,signal,45,2,3.5597395000513643,0,2.0,24.537760000035632,True,2,17,A,2023-09-14_12h45.10.334,exp3,2022.2.2,
,,,,,,,,,,,,,,,,,,,,,,,,131,1158,Valid,noise,45,2,1.7880282999831252,1,3.0,3.09622299997136,True,1,17,A,2023-09-14_12h45.10.334,exp3,2022.2.2,
,,,,,,,,,,,,,,,,,,,,,,,,132,557,Valid,signal,-45,1,1.703902100038249,1,4.0,3.012315999949351,True,1,17,A,2023-09-14_12h45.10.334,exp3,2022.2.2,
,,,,,,,,,,,,,,,,,,,,,,,,133,2274,Valid,signal,45,2,3.0560963000170887,0,1.0,4.364085300010629,True,1,17,A,2023-09-14_12h45.10.334,exp3,2022.2.2,
,,,,,,,,,,,,,,,,,,,,,,,,134,-557,Valid,signal,45,1,1.303848800016567,1,4.0,2.612055399978999,True,1,17,A,2023-09-14_12h45.10.334,exp3,2022.2.2,
,,,,,,,,,,,,,,,,,,,,,,,,135,2274,Invalid,signal,-45,1,2.621488499979023,1,2.0,3.930005300033372,True,1,17,A,2023-09-14_12h45.10.334,exp3,2022.2.2,
,,,,,,,,,,,,,,,,,,,,,,,,136,1716,Valid,noise,-45,2,2.3386250999756157,1,3.0,3.6468814999680035,True,1,17,A,2023-09-14_12h45.10.334,exp3,2022.2.2,
,,,,,,,,,,,,,,,,,,,,,,,,137,2274,Valid,signal,-45,1,1.9135514000081457,1,2.0,5.647201799962204,True,2,17,A,2023-09-14_12h45.10.334,exp3,2022.2.2,
,,,,,,,,,,,,,,,,,,,,,,,,138,-1158,Valid,noise,-45,2,3.055668600019999,1,3.0,4.363708699995186,True,1,17,A,2023-09-14_12h45.10.334,exp3,2022.2.2,
,,,,,,,,,,,,,,,,,,,,,,,,139,1716,Valid,signal,45,1,1.5883455000002868,1,4.0,2.89644420001423,True,1,17,A,2023-09-14_12h45.10.334,exp3,2022.2.2,
,,,,,,,,,,,,,,,,,,,,,,,,140,-2274,Invalid,signal,-45,2,1.7046321000088938,0,3.0,3.0125950999790803,True,1,17,A,2023-09-14_12h45.10.334,exp3,2022.2.2,
,,,,,,,,,,,,,,,,,,,,,,,,141,557,Invalid,noise,45,1,1.6709220999618992,0,4.0,2.979235799983144,True,1,17,A,2023-09-14_12h45.10.334,exp3,2022.2.2,
,,,,,,,,,,,,,,,,,,,,,,,,142,557,Valid,signal,45,1,1.971629900042899,1,4.0,3.279878900037147,True,1,17,A,2023-09-14_12h45.10.334,exp3,2022.2.2,
,,,,,,,,,,,,,,,,,,,,,,,,143,-1716,Valid,signal,45,2,1.8054700000211596,0,3.0,3.1133545000338927,True,1,17,A,2023-09-14_12h45.10.334,exp3,2022.2.2,
,,,,,,,,,,,,,,,,,,,,,,,,144,557,Valid,signal,-45,1,1.5207994999946095,1,4.0,2.829069300030824,True,1,17,A,2023-09-14_12h45.10.334,exp3,2022.2.2,
,,,,,,,,,,,,,,,,,,,,,,,,145,1716,Valid,noise,45,2,2.138559899991378,1,3.0,3.4464734999928623,True,1,17,A,2023-09-14_12h45.10.334,exp3,2022.2.2,
,,,,,,,,,,,,,,,,,,,,,,,,146,-2274,Valid,signal,45,2,4.005948099948,0,2.0,5.313952199998312,True,1,17,A,2023-09-14_12h45.10.334,exp3,2022.2.2,
,,,,,,,,,,,,,,,,,,,,,,,,147,557,Valid,noise,-45,2,1.5377780999988317,1,3.0,2.84581619995879,True,1,17,A,2023-09-14_12h45.10.334,exp3,2022.2.2,
,,,,,,,,,,,,,,,,,,,,,,,,148,-557,Valid,signal,-45,1,1.3883122999686748,1,4.0,2.696505600004457,True,1,17,A,2023-09-14_12h45.10.334,exp3,2022.2.2,
,,,,,,,,,,,,,,,,,,,,,,,,149,1716,Valid,signal,-45,2,2.3213897999958135,0,3.0,3.6297111000167206,True,1,17,A,2023-09-14_12h45.10.334,exp3,2022.2.2,
,,,,,,,,,,,,,,,,,,,,,,,,150,2274,Valid,signal,-45,2,1.604538900020998,0,4.0,2.912886400008574,True,1,17,A,2023-09-14_12h45.10.334,exp3,2022.2.2,
,,,,,,,,,,,,,,,,,,,,,,,,151,557,Valid,noise,-45,2,1.221704600029625,1,3.0,2.529862300027162,True,1,17,A,2023-09-14_12h45.10.334,exp3,2022.2.2,
,,,,,,,,,,,,,,,,,,,,,,,,152,-1158,Valid,signal,45,2,3.271938699996099,0,3.0,4.580034799990244,True,1,17,A,2023-09-14_12h45.10.334,exp3,2022.2.2,
,,,,,,,,,,,,,,,,,,,,,,,,153,557,Valid,signal,-45,1,1.7378716999664903,1,4.0,3.046016599982977,True,1,17,A,2023-09-14_12h45.10.334,exp3,2022.2.2,
,,,,,,,,,,,,,,,,,,,,,,,,154,557,Valid,noise,45,2,1.9099695999757387,1,3.0,5.0634883000166155,True,2,17,A,2023-09-14_12h45.10.334,exp3,2022.2.2,
,,,,,,,,,,,,,,,,,,,,,,,,155,-2274,Invalid,signal,-45,2,2.3719626999809407,0,4.0,3.680068100045901,True,1,17,A,2023-09-14_12h45.10.334,exp3,2022.2.2,
,,,,,,,,,,,,,,,,,,,,,,,,156,-557,Invalid,noise,-45,1,2.939118599984795,0,2.0,4.24693170003593,True,1,17,A,2023-09-14_12h45.10.334,exp3,2022.2.2,
,,,,,,,,,,,,,,,,,,,,,,,,157,1716,Invalid,signal,45,1,1.9044397000106983,1,3.0,3.2124990000156686,True,1,17,A,2023-09-14_12h45.10.334,exp3,2022.2.2,
,,,,,,,,,,,,,,,,,,,,,,,,158,-557,Invalid,signal,-45,1,1.8715266999788582,1,4.0,3.17967799998587,True,1,17,A,2023-09-14_12h45.10.334,exp3,2022.2.2,
,,,,,,,,,,,,,,,,,,,,,,,,159,-557,Valid,noise,45,2,1.7213043000083417,1,3.0,3.0296535999514163,True,1,17,A,2023-09-14_12h45.10.334,exp3,2022.2.2,
,,,,,,,,,,,,,,,,,,,,,,,,160,-1716,Valid,noise,-45,2,1.7877102000056766,1,4.0,3.0961000999668613,True,1,17,A,2023-09-14_12h45.10.334,exp3,2022.2.2,
,,,,,,,,,,,,,,,,,,,,,,,,161,-557,Valid,signal,45,1,1.6720210000057705,1,4.0,2.980058699962683,True,1,17,A,2023-09-14_12h45.10.334,exp3,2022.2.2,
,,,,,,,,,,,,,,,,,,,,,,,,162,-1158,Valid,noise,-45,2,1.5384267000481486,1,3.0,2.846508599992376,True,1,17,A,2023-09-14_12h45.10.334,exp3,2022.2.2,
,,,,,,,,,,,,,,,,,,,,,,,,163,557,Valid,noise,-45,2,2.954538699996192,1,3.0,4.262545700010378,True,1,17,A,2023-09-14_12h45.10.334,exp3,2022.2.2,
,,,,,,,,,,,,,,,,,,,,,,,,164,557,Valid,signal,45,1,1.7720729000284337,1,3.0,3.080332699988503,True,1,17,A,2023-09-14_12h45.10.334,exp3,2022.2.2,
,,,,,,,,,,,,,,,,,,,,,,,,165,1158,Valid,noise,-45,2,1.1544250000151806,1,3.0,2.4624391000252217,True,1,17,A,2023-09-14_12h45.10.334,exp3,2022.2.2,
,,,,,,,,,,,,,,,,,,,,,,,,166,-1158,Valid,signal,-45,2,1.3208481000037864,0,3.0,2.62900419998914,True,1,17,A,2023-09-14_12h45.10.334,exp3,2022.2.2,
,,,,,,,,,,,,,,,,,,,,,,,,167,-557,Invalid,signal,-45,1,3.6879247999750078,1,4.0,6.914559500000905,True,2,17,A,2023-09-14_12h45.10.334,exp3,2022.2.2,
,,,,,,,,,,,,,,,,,,,,,,,,168,-1716,Valid,noise,45,2,1.521918500016909,1,3.0,2.829953900014516,True,1,17,A,2023-09-14_12h45.10.334,exp3,2022.2.2,
,,,,,,,,,,,,,,,,,,,,,,,,169,1716,Invalid,noise,-45,1,3.188237000023946,0,1.0,4.496510399971157,True,1,17,A,2023-09-14_12h45.10.334,exp3,2022.2.2,
,,,,,,,,,,,,,,,,,,,,,,,,170,2274,Invalid,noise,-45,2,2.021468700026162,1,3.0,3.329459299973678,True,1,17,A,2023-09-14_12h45.10.334,exp3,2022.2.2,
,,,,,,,,,,,,,,,,,,,,,,,,171,-1158,Valid,signal,-45,2,3.272464400040917,0,2.0,4.58034010004485,True,1,17,A,2023-09-14_12h45.10.334,exp3,2022.2.2,
,,,,,,,,,,,,,,,,,,,,,,,,172,2274,Valid,signal,-45,2,3.3048864999436773,0,1.0,4.613275300012901,True,1,17,A,2023-09-14_12h45.10.334,exp3,2022.2.2,
,,,,,,,,,,,,,,,,,,,,,,,,173,1716,Valid,signal,-45,1,1.5553077000076883,1,3.0,2.8633314999751747,True,1,17,A,2023-09-14_12h45.10.334,exp3,2022.2.2,
,,,,,,,,,,,,,,,,,,,,,,,,174,1158,Valid,signal,-45,1,1.1876981999957934,1,4.0,2.4958146000280976,True,1,17,A,2023-09-14_12h45.10.334,exp3,2022.2.2,
,,,,,,,,,,,,,,,,,,,,,,,,175,-1716,Valid,signal,45,2,1.9377444999990985,0,3.0,3.2459305999800563,True,1,17,A,2023-09-14_12h45.10.334,exp3,2022.2.2,
,,,,,,,,,,,,,,,,,,,,,,,,176,-1158,Valid,noise,45,1,4.047242400003597,0,1.0,8.265035599994007,True,2,17,A,2023-09-14_12h45.10.334,exp3,2022.2.2,
,,,,,,,,,,,,,,,,,,,,,,,,2,-1716,Valid,signal,45,1,2.938425100001041,1,2.0,4.247280099953059,True,1,17,A,2023-09-14_12h45.10.334,exp3,2022.2.2,
,,,,,,,,,,,,,,,,,,,,,,,,4,-2274,Invalid,signal,45,2,1.671464700018987,0,3.0,2.979863699991256,True,1,17,A,2023-09-14_12h45.10.334,exp3,2022.2.2,
,,,,,,,,,,,,,,,,,,,,,,,,6,-557,Valid,signal,45,1,1.1208722000010312,1,4.0,2.429316299967468,True,1,17,A,2023-09-14_12h45.10.334,exp3,2022.2.2,
,,,,,,,,,,,,,,,,,,,,,,,,8,2274,Valid,signal,-45,2,1.720728299987968,0,3.0,3.0295323999598622,True,1,17,A,2023-09-14_12h45.10.334,exp3,2022.2.2,
,,,,,,,,,,,,,,,,,,,,,,,,10,-557,Valid,noise,45,2,2.20527099998435,1,3.0,3.5136477999622002,True,1,17,A,2023-09-14_12h45.10.334,exp3,2022.2.2,
,,,,,,,,,,,,,,,,,,,,,,,,12,-557,Valid,signal,45,1,1.2531574000022374,1,4.0,2.5617919999640435,True,1,17,A,2023-09-14_12h45.10.334,exp3,2022.2.2,
,,,,,,,,,,,,,,,,,,,,,,,,14,2274,Invalid,signal,-45,1,1.6720841999631375,1,3.0,2.9803536999970675,True,1,17,A,2023-09-14_12h45.10.334,exp3,2022.2.2,
,,,,,,,,,,,,,,,,,,,,,,,,16,-1716,Valid,signal,-45,2,1.6872930999961682,0,2.0,2.995624899980612,True,1,17,A,2023-09-14_12h45.10.334,exp3,2022.2.2,
,,,,,,,,,,,,,,,,,,,,,,,,18,1716,Valid,signal,45,1,1.270957900036592,1,3.0,2.5795023000100628,True,1,17,A,2023-09-14_12h45.10.334,exp3,2022.2.2,
,,,,,,,,,,,,,,,,,,,,,,,,20,-1158,Valid,noise,45,2,2.537740900006611,1,2.0,3.846361599978991,True,1,17,A,2023-09-14_12h45.10.334,exp3,2022.2.2,
,,,,,,,,,,,,,,,,,,,,,,,,22,2274,Valid,signal,45,2,1.387802399985958,0,3.0,2.696501000027638,True,1,17,A,2023-09-14_12h45.10.334,exp3,2022.2.2,
,,,,,,,,,,,,,,,,,,,,,,,,24,557,Valid,noise,45,2,2.355258200026583,1,4.0,3.6636821000138298,True,1,17,A,2023-09-14_12h45.10.334,exp3,2022.2.2,
,,,,,,,,,,,,,,,,,,,,,,,,26,557,Valid,noise,-45,2,2.0537416999577545,1,4.0,3.3623947000014596,True,1,17,A,2023-09-14_12h45.10.334,exp3,2022.2.2,
,,,,,,,,,,,,,,,,,,,,,,,,28,1716,Invalid,signal,45,1,2.8216047000023536,1,2.0,4.130144900002051,True,1,17,A,2023-09-14_12h45.10.334,exp3,2022.2.2,
,,,,,,,,,,,,,,,,,,,,,,,,30,1716,Valid,noise,-45,2,1.421538700000383,1,3.0,2.730181300023105,True,1,17,A,2023-09-14_12h45.10.334,exp3,2022.2.2,
,,,,,,,,,,,,,,,,,,,,,,,,32,1158,Valid,noise,-45,2,1.4871797000523657,1,1.0,2.7957380000152625,True,1,17,A,2023-09-14_12h45.10.334,exp3,2022.2.2,
,,,,,,,,,,,,,,,,,,,,,,,,34,-2274,Valid,noise,45,2,2.021320800005924,1,3.0,3.3298183000297286,True,1,17,A,2023-09-14_12h45.10.334,exp3,2022.2.2,
,,,,,,,,,,,,,,,,,,,,,,,,36,-2274,Valid,signal,45,2,2.672154599975329,0,4.0,3.980507700005546,True,1,17,A,2023-09-14_12h45.10.334,exp3,2022.2.2,
,,,,,,,,,,,,,,,,,,,,,,,,38,2274,Valid,signal,45,2,2.7877433000248857,0,2.0,4.096074800007045,True,1,17,A,2023-09-14_12h45.10.334,exp3,2022.2.2,
,,,,,,,,,,,,,,,,,,,,,,,,40,2274,Valid,signal,-45,2,1.4877524999901652,0,1.0,2.7964262000168674,True,1,17,A,2023-09-14_12h45.10.334,exp3,2022.2.2,
,,,,,,,,,,,,,,,,,,,,,,,,42,1158,Valid,signal,-45,1,2.083074399968609,1,4.0,5.597123000014108,True,2,17,A,2023-09-14_12h45.10.334,exp3,2022.2.2,
,,,,,,,,,,,,,,,,,,,,,,,,44,557,Invalid,signal,45,1,1.7216162999975495,1,4.0,3.029771699977573,True,1,17,A,2023-09-14_12h45.10.334,exp3,2022.2.2,
,,,,,,,,,,,,,,,,,,,,,,,,46,-557,Valid,signal,45,1,1.1038549999939278,1,4.0,2.4123076999676414,True,1,17,A,2023-09-14_12h45.10.334,exp3,2022.2.2,
,,,,,,,,,,,,,,,,,,,,,,,,48,2274,Valid,noise,45,2,1.9377636999706738,1,3.0,3.2464332999661565,True,1,17,A,2023-09-14_12h45.10.334,exp3,2022.2.2,
,,,,,,,,,,,,,,,,,,,,,,,,50,-1716,Valid,signal,45,2,2.1551027999958023,0,4.0,3.4635755000053905,True,1,17,A,2023-09-14_12h45.10.334,exp3,2022.2.2,
,,,,,,,,,,,,,,,,,,,,,,,,52,-557,Valid,signal,45,1,0.9837155000423081,1,4.0,4.362911399977747,True,2,17,A,2023-09-14_12h45.10.334,exp3,2022.2.2,
,,,,,,,,,,,,,,,,,,,,,,,,54,-557,Invalid,noise,-45,2,1.4212197000160813,1,3.0,2.729660699958913,True,1,17,A,2023-09-14_12h45.10.334,exp3,2022.2.2,
,,,,,,,,,,,,,,,,,,,,,,,,56,557,Valid,noise,-45,2,1.4207896000007167,1,2.0,2.72946459997911,True,1,17,A,2023-09-14_12h45.10.334,exp3,2022.2.2,
,,,,,,,,,,,,,,,,,,,,,,,,58,-557,Valid,noise,-45,2,1.3209121999680065,1,3.0,2.6296062000328675,True,1,17,A,2023-09-14_12h45.10.334,exp3,2022.2.2,
,,,,,,,,,,,,,,,,,,,,,,,,60,1158,Valid,signal,-45,2,3.054589599953033,0,4.0,4.363398600020446,True,1,17,A,2023-09-14_12h45.10.334,exp3,2022.2.2,
,,,,,,,,,,,,,,,,,,,,,,,,62,-1158,Valid,signal,-45,2,1.3544783999677747,0,2.0,2.6630425000330433,True,1,17,A,2023-09-14_12h45.10.334,exp3,2022.2.2,
,,,,,,,,,,,,,,,,,,,,,,,,64,-2274,Valid,noise,-45,2,1.254546999989543,1,3.0,2.5630381999653764,True,1,17,A,2023-09-14_12h45.10.334,exp3,2022.2.2,
,,,,,,,,,,,,,,,,,,,,,,,,66,2274,Valid,noise,45,1,1.0700899999937974,0,2.0,2.3787759999977425,True,1,17,A,2023-09-14_12h45.10.334,exp3,2022.2.2,
,,,,,,,,,,,,,,,,,,,,,,,,68,1716,Valid,signal,-45,1,1.588388699979987,1,3.0,2.8968430000240915,True,1,17,A,2023-09-14_12h45.10.334,exp3,2022.2.2,
,,,,,,,,,,,,,,,,,,,,,,,,70,-557,Valid,signal,45,1,0.970079299993813,1,4.0,2.278729400015436,True,1,17,A,2023-09-14_12h45.10.334,exp3,2022.2.2,
,,,,,,,,,,,,,,,,,,,,,,,,72,1716,Valid,signal,-45,1,1.437789999996312,1,4.0,2.746249399962835,True,1,17,A,2023-09-14_12h45.10.334,exp3,2022.2.2,
,,,,,,,,,,,,,,,,,,,,,,,,74,-1716,Valid,signal,-45,2,1.4379411999834701,0,3.0,2.746555800025817,True,1,17,A,2023-09-14_12h45.10.334,exp3,2022.2.2,
,,,,,,,,,,,,,,,,,,,,,,,,76,-2274,Valid,noise,45,1,2.732401999994181,0,2.0,6.480362600006629,True,2,17,A,2023-09-14_12h45.10.334,exp3,2022.2.2,
,,,,,,,,,,,,,,,,,,,,,,,,78,1158,Valid,noise,-45,2,0.7705238999915309,1,2.0,2.0793176000006497,True,1,17,A,2023-09-14_12h45.10.334,exp3,2022.2.2,
,,,,,,,,,,,,,,,,,,,,,,,,80,-1158,Invalid,noise,-45,1,2.237568199983798,0,1.0,3.546187400002964,True,1,17,A,2023-09-14_12h45.10.334,exp3,2022.2.2,
,,,,,,,,,,,,,,,,,,,,,,,,82,-557,Valid,noise,-45,2,1.1875717000220902,1,3.0,2.496279000013601,True,1,17,A,2023-09-14_12h45.10.334,exp3,2022.2.2,
,,,,,,,,,,,,,,,,,,,,,,,,84,557,Valid,noise,45,2,2.1046532000182196,1,3.0,3.4132266000378877,True,1,17,A,2023-09-14_12h45.10.334,exp3,2022.2.2,
