trials.label,trials.startVal,trials.maxVal,trials.minVal,trials.startValSd,trials.pthreshold,trials.beta,trials.delta,trials.gamma,trials.grain,trials.stepSize,trials.range,trials.cue,trials.thisIndex,trials.thisRepN,trials.thisN,trials.direction,trials.stepType,trials.intensity,signalOpacity,level,trials.response,stair_eye_ok,nTrial,position,validity,Stimulus,orientation,response_key,response_rt,response_correct,confidence,confidence_rt,eye_ok,participant,session,date,expName,psychopyVersion,
high_opac_v,0.01,1,0.01,3,0.82,3.5,0.01,0,0.01,4,5,Valid,1,1,0,start,lin,0.01,0.01,0.01,0,True,,,,,,,,,,,,8,A,2023-09-05_14h31.50.555,exp3,2022.2.2,
low_opac_v,0.4,1,0.01,3,0.82,3.5,0.01,0,0.01,4,5,Valid,0,1,1,start,lin,0.4,0,0.4,0,True,,,,,,,,,,,,8,A,2023-09-05_14h31.50.555,exp3,2022.2.2,
low_opac_i,0.4,1,0.01,3,0.82,3.5,0.01,0,0.01,4,5,Invalid,2,1,2,start,lin,0.4,0,0.4,0,True,,,,,,,,,,,,8,A,2023-09-05_14h31.50.555,exp3,2022.2.2,
low_opac_i,0.4,1,0.01,3,0.82,3.5,0.01,0,0.01,4,5,Invalid,2,2,3,start,lin,1,0,1,0,True,,,,,,,,,,,,8,A,2023-09-05_14h31.50.555,exp3,2022.2.2,
high_opac_v,0.01,1,0.01,3,0.82,3.5,0.01,0,0.01,4,5,Valid,1,2,4,start,lin,1,1,1,1,True,,,,,,,,,,,,8,A,2023-09-05_14h31.50.555,exp3,2022.2.2,
low_opac_v,0.4,1,0.01,3,0.82,3.5,0.01,0,0.01,4,5,Valid,0,2,5,start,lin,1,1,1,1,True,,,,,,,,,,,,8,A,2023-09-05_14h31.50.555,exp3,2022.2.2,
low_opac_v,0.4,1,0.01,3,0.82,3.5,0.01,0,0.01,4,5,Valid,0,3,6,start,lin,0.8091950431803865,0,0.8091950431803865,1,True,,,,,,,,,,,,8,A,2023-09-05_14h31.50.555,exp3,2022.2.2,
high_opac_v,0.01,1,0.01,3,0.82,3.5,0.01,0,0.01,4,5,Valid,1,3,7,start,lin,0.6092784667527542,0.6092784667527542,0.6092784667527542,1,True,,,,,,,,,,,,8,A,2023-09-05_14h31.50.555,exp3,2022.2.2,
low_opac_i,0.4,1,0.01,3,0.82,3.5,0.01,0,0.01,4,5,Invalid,2,3,8,start,lin,1,0,1,0,True,,,,,,,,,,,,8,A,2023-09-05_14h31.50.555,exp3,2022.2.2,
low_opac_i,0.4,1,0.01,3,0.82,3.5,0.01,0,0.01,4,5,Invalid,2,4,9,start,lin,1,1,1,1,True,,,,,,,,,,,,8,A,2023-09-05_14h31.50.555,exp3,2022.2.2,
high_opac_v,0.01,1,0.01,3,0.82,3.5,0.01,0,0.01,4,5,Valid,1,4,10,start,lin,0.41662067589367746,0.41662067589367746,0.41662067589367746,1,True,,,,,,,,,,,,8,A,2023-09-05_14h31.50.555,exp3,2022.2.2,
low_opac_v,0.4,1,0.01,3,0.82,3.5,0.01,0,0.01,4,5,Valid,0,4,11,start,lin,0.6973591848232542,0.6973591848232542,0.6973591848232542,1,True,,,,,,,,,,,,8,A,2023-09-05_14h31.50.555,exp3,2022.2.2,
low_opac_i,0.4,1,0.01,3,0.82,3.5,0.01,0,0.01,4,5,Invalid,2,5,12,start,lin,1,1,1,1,True,,,,,,,,,,,,8,A,2023-09-05_14h31.50.555,exp3,2022.2.2,
high_opac_v,0.01,1,0.01,3,0.82,3.5,0.01,0,0.01,4,5,Valid,1,5,13,start,lin,0.3073330120243674,0.3073330120243674,0.3073330120243674,1,True,,,,,,,,,,,,8,A,2023-09-05_14h31.50.555,exp3,2022.2.2,
low_opac_v,0.4,1,0.01,3,0.82,3.5,0.01,0,0.01,4,5,Valid,0,5,14,start,lin,0.6246282260865603,0,0.6246282260865603,1,True,,,,,,,,,,,,8,A,2023-09-05_14h31.50.555,exp3,2022.2.2,
high_opac_v,0.01,1,0.01,3,0.82,3.5,0.01,0,0.01,4,5,Valid,1,6,15,start,lin,0.2346279982429363,0.2346279982429363,0.2346279982429363,1,True,,,,,,,,,,,,8,A,2023-09-05_14h31.50.555,exp3,2022.2.2,
low_opac_v,0.4,1,0.01,3,0.82,3.5,0.01,0,0.01,4,5,Valid,0,6,16,start,lin,0.5683883945097726,0.5683883945097726,0.5683883945097726,1,True,,,,,,,,,,,,8,A,2023-09-05_14h31.50.555,exp3,2022.2.2,
low_opac_i,0.4,1,0.01,3,0.82,3.5,0.01,0,0.01,4,5,Invalid,2,6,17,start,lin,1,1,1,1,True,,,,,,,,,,,,8,A,2023-09-05_14h31.50.555,exp3,2022.2.2,
low_opac_v,0.4,1,0.01,3,0.82,3.5,0.01,0,0.01,4,5,Valid,0,7,18,start,lin,0.5245929095863051,0,0.5245929095863051,1,True,,,,,,,,,,,,8,A,2023-09-05_14h31.50.555,exp3,2022.2.2,
low_opac_i,0.4,1,0.01,3,0.82,3.5,0.01,0,0.01,4,5,Invalid,2,7,19,start,lin,1,0,1,0,True,,,,,,,,,,,,8,A,2023-09-05_14h31.50.555,exp3,2022.2.2,
high_opac_v,0.01,1,0.01,3,0.82,3.5,0.01,0,0.01,4,5,Valid,1,7,20,start,lin,0.1783883928663719,0,0.1783883928663719,1,True,,,,,,,,,,,,8,A,2023-09-05_14h31.50.555,exp3,2022.2.2,
high_opac_v,0.01,1,0.01,3,0.82,3.5,0.01,0,0.01,4,5,Valid,1,8,21,start,lin,0.13459290957572173,0,0.13459290957572173,1,True,,,,,,,,,,,,8,A,2023-09-05_14h31.50.555,exp3,2022.2.2,
low_opac_i,0.4,1,0.01,3,0.82,3.5,0.01,0,0.01,4,5,Invalid,2,8,22,start,lin,1,0,1,0,True,,,,,,,,,,,,8,A,2023-09-05_14h31.50.555,exp3,2022.2.2,
low_opac_v,0.4,1,0.01,3,0.82,3.5,0.01,0,0.01,4,5,Valid,0,8,23,start,lin,0.4846151596189739,0,0.4846151596189739,1,True,,,,,,,,,,,,8,A,2023-09-05_14h31.50.555,exp3,2022.2.2,
low_opac_i,0.4,1,0.01,3,0.82,3.5,0.01,0,0.01,4,5,Invalid,2,9,24,start,lin,1,1,1,1,True,,,,,,,,,,,,8,A,2023-09-05_14h31.50.555,exp3,2022.2.2,
low_opac_v,0.4,1,0.01,3,0.82,3.5,0.01,0,0.01,4,5,Valid,0,9,25,start,lin,0.4462051828824988,0,0.4462051828824988,1,True,,,,,,,,,,,,8,A,2023-09-05_14h31.50.555,exp3,2022.2.2,
high_opac_v,0.01,1,0.01,3,0.82,3.5,0.01,0,0.01,4,5,Valid,1,9,26,start,lin,0.09461515961891341,0.09461515961891341,0.09461515961891341,0,True,,,,,,,,,,,,8,A,2023-09-05_14h31.50.555,exp3,2022.2.2,
low_opac_i,0.4,1,0.01,3,0.82,3.5,0.01,0,0.01,4,5,Invalid,2,10,27,start,lin,1,1,1,1,True,,,,,,,,,,,,8,A,2023-09-05_14h31.50.555,exp3,2022.2.2,
high_opac_v,0.01,1,0.01,3,0.82,3.5,0.01,0,0.01,4,5,Valid,1,10,28,start,lin,0.18464869852036603,0.18464869852036603,0.18464869852036603,1,True,,,,,,,,,,,,8,A,2023-09-05_14h31.50.555,exp3,2022.2.2,
low_opac_v,0.4,1,0.01,3,0.82,3.5,0.01,0,0.01,4,5,Valid,0,10,29,start,lin,0.4072186841576921,0,0.4072186841576921,1,True,,,,,,,,,,,,8,A,2023-09-05_14h31.50.555,exp3,2022.2.2,
low_opac_i,0.4,1,0.01,3,0.82,3.5,0.01,0,0.01,4,5,Invalid,2,11,30,start,lin,1,0,1,0,True,,,,,,,,,,,,8,A,2023-09-05_14h31.50.555,exp3,2022.2.2,
low_opac_v,0.4,1,0.01,3,0.82,3.5,0.01,0,0.01,4,5,Valid,0,11,31,start,lin,0.35300861066848543,0.35300861066848543,0.35300861066848543,1,True,,,,,,,,,,,,8,A,2023-09-05_14h31.50.555,exp3,2022.2.2,
high_opac_v,0.01,1,0.01,3,0.82,3.5,0.01,0,0.01,4,5,Valid,1,11,32,start,lin,0.16676008312784868,0.16676008312784868,0.16676008312784868,1,True,,,,,,,,,,,,8,A,2023-09-05_14h31.50.555,exp3,2022.2.2,
low_opac_i,0.4,1,0.01,3,0.82,3.5,0.01,0,0.01,4,5,Invalid,2,12,33,start,lin,1,1,1,1,True,,,,,,,,,,,,8,A,2023-09-05_14h31.50.555,exp3,2022.2.2,
high_opac_v,0.01,1,0.01,3,0.82,3.5,0.01,0,0.01,4,5,Valid,1,12,34,start,lin,0.15232797370509968,0.15232797370509968,0.15232797370509968,1,True,,,,,,,,,,,,8,A,2023-09-05_14h31.50.555,exp3,2022.2.2,
low_opac_v,0.4,1,0.01,3,0.82,3.5,0.01,0,0.01,4,5,Valid,0,12,35,start,lin,0.024992697061074542,0.024992697061074542,0.024992697061074542,0,True,,,,,,,,,,,,8,A,2023-09-05_14h31.50.555,exp3,2022.2.2,
low_opac_i,0.4,1,0.01,3,0.82,3.5,0.01,0,0.01,4,5,Invalid,2,13,36,start,lin,1,0,1,0,True,,,,,,,,,,,,8,A,2023-09-05_14h31.50.555,exp3,2022.2.2,
low_opac_v,0.4,1,0.01,3,0.82,3.5,0.01,0,0.01,4,5,Valid,0,13,37,start,lin,0.40487015599605314,0.40487015599605314,0.40487015599605314,1,True,,,,,,,,,,,,8,A,2023-09-05_14h31.50.555,exp3,2022.2.2,
high_opac_v,0.01,1,0.01,3,0.82,3.5,0.01,0,0.01,4,5,Valid,1,13,38,start,lin,0.1390613634821869,0,0.1390613634821869,1,True,,,,,,,,,,,,8,A,2023-09-05_14h31.50.555,exp3,2022.2.2,
low_opac_v,0.4,1,0.01,3,0.82,3.5,0.01,0,0.01,4,5,Valid,0,14,39,start,lin,0.38782360378282504,0,0.38782360378282504,1,True,,,,,,,,,,,,8,A,2023-09-05_14h31.50.555,exp3,2022.2.2,
high_opac_v,0.01,1,0.01,3,0.82,3.5,0.01,0,0.01,4,5,Valid,1,14,40,start,lin,0.1274255541932022,0.1274255541932022,0.1274255541932022,1,True,,,,,,,,,,,,8,A,2023-09-05_14h31.50.555,exp3,2022.2.2,
low_opac_i,0.4,1,0.01,3,0.82,3.5,0.01,0,0.01,4,5,Invalid,2,14,41,start,lin,1,1,1,1,True,,,,,,,,,,,,8,A,2023-09-05_14h31.50.555,exp3,2022.2.2,
low_opac_i,0.4,1,0.01,3,0.82,3.5,0.01,0,0.01,4,5,Invalid,2,15,42,start,lin,1,1,1,1,True,,,,,,,,,,,,8,A,2023-09-05_14h31.50.555,exp3,2022.2.2,
high_opac_v,0.01,1,0.01,3,0.82,3.5,0.01,0,0.01,4,5,Valid,1,15,43,start,lin,0.11691243853393146,0,0.11691243853393146,1,True,,,,,,,,,,,,8,A,2023-09-05_14h31.50.555,exp3,2022.2.2,
low_opac_v,0.4,1,0.01,3,0.82,3.5,0.01,0,0.01,4,5,Valid,0,15,44,start,lin,0.3723068795551985,0.3723068795551985,0.3723068795551985,1,True,,,,,,,,,,,,8,A,2023-09-05_14h31.50.555,exp3,2022.2.2,
low_opac_v,0.4,1,0.01,3,0.82,3.5,0.01,0,0.01,4,5,Valid,0,16,45,start,lin,0.356239707858624,0.356239707858624,0.356239707858624,1,True,,,,,,,,,,,,8,A,2023-09-05_14h31.50.555,exp3,2022.2.2,
low_opac_i,0.4,1,0.01,3,0.82,3.5,0.01,0,0.01,4,5,Invalid,2,16,46,start,lin,1,1,1,1,True,,,,,,,,,,,,8,A,2023-09-05_14h31.50.555,exp3,2022.2.2,
high_opac_v,0.01,1,0.01,3,0.82,3.5,0.01,0,0.01,4,5,Valid,1,16,47,start,lin,0.10717954955464777,0.10717954955464777,0.10717954955464777,0,True,,,,,,,,,,,,8,A,2023-09-05_14h31.50.555,exp3,2022.2.2,
high_opac_v,0.01,1,0.01,3,0.82,3.5,0.01,0,0.01,4,5,Valid,1,17,48,start,lin,0.1415117568516724,0.1415117568516724,0.1415117568516724,1,True,,,,,,,,,,,,8,A,2023-09-05_14h31.50.555,exp3,2022.2.2,
low_opac_v,0.4,1,0.01,3,0.82,3.5,0.01,0,0.01,4,5,Valid,0,17,49,start,lin,0.34050074206842484,0.34050074206842484,0.34050074206842484,1,True,,,,,,,,,,,,8,A,2023-09-05_14h31.50.555,exp3,2022.2.2,
low_opac_i,0.4,1,0.01,3,0.82,3.5,0.01,0,0.01,4,5,Invalid,2,17,50,start,lin,1,0,1,0,True,,,,,,,,,,,,8,A,2023-09-05_14h31.50.555,exp3,2022.2.2,
high_opac_v,0.01,1,0.01,3,0.82,3.5,0.01,0,0.01,4,5,Valid,1,18,51,start,lin,0.13416495610891685,0,0.13416495610891685,1,True,,,,,,,,,,,,8,A,2023-09-05_14h31.50.555,exp3,2022.2.2,
low_opac_v,0.4,1,0.01,3,0.82,3.5,0.01,0,0.01,4,5,Valid,0,18,52,start,lin,0.32259436142549763,0,0.32259436142549763,1,True,,,,,,,,,,,,8,A,2023-09-05_14h31.50.555,exp3,2022.2.2,
low_opac_i,0.4,1,0.01,3,0.82,3.5,0.01,0,0.01,4,5,Invalid,2,18,53,start,lin,1,1,1,1,True,,,,,,,,,,,,8,A,2023-09-05_14h31.50.555,exp3,2022.2.2,
low_opac_i,0.4,1,0.01,3,0.82,3.5,0.01,0,0.01,4,5,Invalid,2,19,54,start,lin,1,0,1,1,True,,,,,,,,,,,,8,A,2023-09-05_14h31.50.555,exp3,2022.2.2,
low_opac_v,0.4,1,0.01,3,0.82,3.5,0.01,0,0.01,4,5,Valid,0,19,55,start,lin,0.3012186328164147,0.3012186328164147,0.3012186328164147,1,True,,,,,,,,,,,,8,A,2023-09-05_14h31.50.555,exp3,2022.2.2,
high_opac_v,0.01,1,0.01,3,0.82,3.5,0.01,0,0.01,4,5,Valid,1,19,56,start,lin,0.1271720263682759,0,0.1271720263682759,1,True,,,,,,,,,,,,8,A,2023-09-05_14h31.50.555,exp3,2022.2.2,
low_opac_v,0.4,1,0.01,3,0.82,3.5,0.01,0,0.01,4,5,Valid,0,20,57,start,lin,0.273636787424012,0,0.273636787424012,1,True,,,,,,,,,,,,8,A,2023-09-05_14h31.50.555,exp3,2022.2.2,
low_opac_i,0.4,1,0.01,3,0.82,3.5,0.01,0,0.01,4,5,Invalid,2,20,58,start,lin,1,0,1,0,True,,,,,,,,,,,,8,A,2023-09-05_14h31.50.555,exp3,2022.2.2,
high_opac_v,0.01,1,0.01,3,0.82,3.5,0.01,0,0.01,4,5,Valid,1,20,59,start,lin,0.12099886191444274,0.12099886191444274,0.12099886191444274,0,True,,,,,,,,,,,,8,A,2023-09-05_14h31.50.555,exp3,2022.2.2,
low_opac_v,0.4,1,0.01,3,0.82,3.5,0.01,0,0.01,4,5,Valid,0,21,60,start,lin,0.23501454219247891,0,0.23501454219247891,1,True,,,,,,,,,,,,8,A,2023-09-05_14h31.50.555,exp3,2022.2.2,
high_opac_v,0.01,1,0.01,3,0.82,3.5,0.01,0,0.01,4,5,Valid,1,21,61,start,lin,0.14372393952285437,0.14372393952285437,0.14372393952285437,1,True,,,,,,,,,,,,8,A,2023-09-05_14h31.50.555,exp3,2022.2.2,
low_opac_i,0.4,1,0.01,3,0.82,3.5,0.01,0,0.01,4,5,Invalid,2,21,62,start,lin,1,1,1,1,True,,,,,,,,,,,,8,A,2023-09-05_14h31.50.555,exp3,2022.2.2,
low_opac_i,0.4,1,0.01,3,0.82,3.5,0.01,0,0.01,4,5,Invalid,2,22,63,start,lin,1,0,1,1,True,,,,,,,,,,,,8,A,2023-09-05_14h31.50.555,exp3,2022.2.2,
low_opac_v,0.4,1,0.01,3,0.82,3.5,0.01,0,0.01,4,5,Valid,0,22,64,start,lin,0.19295709987052317,0.19295709987052317,0.19295709987052317,1,True,,,,,,,,,,,,8,A,2023-09-05_14h31.50.555,exp3,2022.2.2,
high_opac_v,0.01,1,0.01,3,0.82,3.5,0.01,0,0.01,4,5,Valid,1,22,65,start,lin,0.1382681392231778,0.1382681392231778,0.1382681392231778,1,True,,,,,,,,,,,,8,A,2023-09-05_14h31.50.555,exp3,2022.2.2,
high_opac_v,0.01,1,0.01,3,0.82,3.5,0.01,0,0.01,4,5,Valid,1,23,66,start,lin,0.1333707903277283,0.1333707903277283,0.1333707903277283,1,True,,,,,,,,,,,,8,A,2023-09-05_14h31.50.555,exp3,2022.2.2,
low_opac_v,0.4,1,0.01,3,0.82,3.5,0.01,0,0.01,4,5,Valid,0,23,67,start,lin,0.1505374428730966,0.1505374428730966,0.1505374428730966,1,True,,,,,,,,,,,,8,A,2023-09-05_14h31.50.555,exp3,2022.2.2,
low_opac_i,0.4,1,0.01,3,0.82,3.5,0.01,0,0.01,4,5,Invalid,2,23,68,start,lin,1,0,1,0,True,,,,,,,,,,,,8,A,2023-09-05_14h31.50.555,exp3,2022.2.2,
low_opac_i,0.4,1,0.01,3,0.82,3.5,0.01,0,0.01,4,5,Invalid,2,24,69,start,lin,1,0,1,0,True,,,,,,,,,,,,8,A,2023-09-05_14h31.50.555,exp3,2022.2.2,
low_opac_v,0.4,1,0.01,3,0.82,3.5,0.01,0,0.01,4,5,Valid,0,24,70,start,lin,0.11287663662837127,0.11287663662837127,0.11287663662837127,1,True,,,,,,,,,,,,8,A,2023-09-05_14h31.50.555,exp3,2022.2.2,
high_opac_v,0.01,1,0.01,3,0.82,3.5,0.01,0,0.01,4,5,Valid,1,24,71,start,lin,0.12848958025144006,0.12848958025144006,0.12848958025144006,1,True,,,,,,,,,,,,8,A,2023-09-05_14h31.50.555,exp3,2022.2.2,
low_opac_i,0.4,1,0.01,3,0.82,3.5,0.01,0,0.01,4,5,Invalid,2,25,72,start,lin,1,0,1,1,True,,,,,,,,,,,,8,A,2023-09-05_14h31.50.555,exp3,2022.2.2,
low_opac_v,0.4,1,0.01,3,0.82,3.5,0.01,0,0.01,4,5,Valid,0,25,73,start,lin,0.07769411752192773,0,0.07769411752192773,0,True,,,,,,,,,,,,8,A,2023-09-05_14h31.50.555,exp3,2022.2.2,
high_opac_v,0.01,1,0.01,3,0.82,3.5,0.01,0,0.01,4,5,Valid,1,25,74,start,lin,0.12405340862211495,0,0.12405340862211495,1,True,,,,,,,,,,,,8,A,2023-09-05_14h31.50.555,exp3,2022.2.2,
high_opac_v,0.01,1,0.01,3,0.82,3.5,0.01,0,0.01,4,5,Valid,1,26,75,start,lin,0.1195907376687039,0,0.1195907376687039,1,True,,,,,,,,,,,,8,A,2023-09-05_14h31.50.555,exp3,2022.2.2,
low_opac_v,0.4,1,0.01,3,0.82,3.5,0.01,0,0.01,4,5,Valid,0,26,76,start,lin,0.16294245874216204,0,0.16294245874216204,1,True,,,,,,,,,,,,8,A,2023-09-05_14h31.50.555,exp3,2022.2.2,
low_opac_i,0.4,1,0.01,3,0.82,3.5,0.01,0,0.01,4,5,Invalid,2,26,77,start,lin,1,1,1,1,True,,,,,,,,,,,,8,A,2023-09-05_14h31.50.555,exp3,2022.2.2,
high_opac_v,0.01,1,0.01,3,0.82,3.5,0.01,0,0.01,4,5,Valid,1,27,78,start,lin,0.1154700207904304,0.1154700207904304,0.1154700207904304,1,True,,,,,,,,,,,,8,A,2023-09-05_14h31.50.555,exp3,2022.2.2,
low_opac_v,0.4,1,0.01,3,0.82,3.5,0.01,0,0.01,4,5,Valid,0,27,79,start,lin,0.14668728616319665,0.14668728616319665,0.14668728616319665,1,True,,,,,,,,,,,,8,A,2023-09-05_14h31.50.555,exp3,2022.2.2,
low_opac_i,0.4,1,0.01,3,0.82,3.5,0.01,0,0.01,4,5,Invalid,2,27,80,start,lin,1,1,1,1,True,,,,,,,,,,,,8,A,2023-09-05_14h31.50.555,exp3,2022.2.2,
low_opac_v,0.4,1,0.01,3,0.82,3.5,0.01,0,0.01,4,5,Valid,0,28,81,start,lin,0.13349553404303133,0,0.13349553404303133,1,True,,,,,,,,,,,,8,A,2023-09-05_14h31.50.555,exp3,2022.2.2,
low_opac_i,0.4,1,0.01,3,0.82,3.5,0.01,0,0.01,4,5,Invalid,2,28,82,start,lin,1,0,1,0,True,,,,,,,,,,,,8,A,2023-09-05_14h31.50.555,exp3,2022.2.2,
high_opac_v,0.01,1,0.01,3,0.82,3.5,0.01,0,0.01,4,5,Valid,1,28,83,start,lin,0.11166179355655523,0.11166179355655523,0.11166179355655523,1,True,,,,,,,,,,,,8,A,2023-09-05_14h31.50.555,exp3,2022.2.2,
high_opac_v,0.01,1,0.01,3,0.82,3.5,0.01,0,0.01,4,5,Valid,1,29,84,start,lin,0.10774668703895747,0,0.10774668703895747,1,True,,,,,,,,,,,,8,A,2023-09-05_14h31.50.555,exp3,2022.2.2,
low_opac_i,0.4,1,0.01,3,0.82,3.5,0.01,0,0.01,4,5,Invalid,2,29,85,start,lin,1,0,1,1,True,,,,,,,,,,,,8,A,2023-09-05_14h31.50.555,exp3,2022.2.2,
low_opac_v,0.4,1,0.01,3,0.82,3.5,0.01,0,0.01,4,5,Valid,0,29,86,start,lin,0.12132114829316515,0.12132114829316515,0.12132114829316515,1,True,,,,,,,,,,,,8,A,2023-09-05_14h31.50.555,exp3,2022.2.2,
high_opac_v,0.01,1,0.01,3,0.82,3.5,0.01,0,0.01,4,5,Valid,1,30,87,start,lin,0.10412500360019633,0,0.10412500360019633,1,True,,,,,,,,,,,,8,A,2023-09-05_14h31.50.555,exp3,2022.2.2,
low_opac_i,0.4,1,0.01,3,0.82,3.5,0.01,0,0.01,4,5,Invalid,2,30,88,start,lin,1,1,1,1,True,,,,,,,,,,,,8,A,2023-09-05_14h31.50.555,exp3,2022.2.2,
low_opac_v,0.4,1,0.01,3,0.82,3.5,0.01,0,0.01,4,5,Valid,0,30,89,start,lin,0.11054528887020215,0.11054528887020215,0.11054528887020215,1,True,,,,,,,,,,,,8,A,2023-09-05_14h31.50.555,exp3,2022.2.2,
high_opac_v,0.01,1,0.01,3,0.82,3.5,0.01,0,0.01,4,5,Valid,1,31,90,start,lin,0.10041243666174465,0,0.10041243666174465,1,True,,,,,,,,,,,,8,A,2023-09-05_14h31.50.555,exp3,2022.2.2,
low_opac_i,0.4,1,0.01,3,0.82,3.5,0.01,0,0.01,4,5,Invalid,2,31,91,start,lin,1,0,1,0,True,,,,,,,,,,,,8,A,2023-09-05_14h31.50.555,exp3,2022.2.2,
low_opac_v,0.4,1,0.01,3,0.82,3.5,0.01,0,0.01,4,5,Valid,0,31,92,start,lin,0.10068592287779643,0,0.10068592287779643,0,True,,,,,,,,,,,,8,A,2023-09-05_14h31.50.555,exp3,2022.2.2,
high_opac_v,0.01,1,0.01,3,0.82,3.5,0.01,0,0.01,4,5,Valid,1,32,93,start,lin,0.0968827407202869,0.0968827407202869,0.0968827407202869,0,True,,,,,,,,,,,,8,A,2023-09-05_14h31.50.555,exp3,2022.2.2,
low_opac_i,0.4,1,0.01,3,0.82,3.5,0.01,0,0.01,4,5,Invalid,2,32,94,start,lin,1,0,1,0,True,,,,,,,,,,,,8,A,2023-09-05_14h31.50.555,exp3,2022.2.2,
low_opac_v,0.4,1,0.01,3,0.82,3.5,0.01,0,0.01,4,5,Valid,0,32,95,start,lin,0.13374812227366123,0,0.13374812227366123,1,True,,,,,,,,,,,,8,A,2023-09-05_14h31.50.555,exp3,2022.2.2,
low_opac_i,0.4,1,0.01,3,0.82,3.5,0.01,0,0.01,4,5,Invalid,2,33,96,start,lin,1,0,1,1,True,,,,,,,,,,,,8,A,2023-09-05_14h31.50.555,exp3,2022.2.2,
low_opac_v,0.4,1,0.01,3,0.82,3.5,0.01,0,0.01,4,5,Valid,0,33,97,start,lin,0.1262692195534033,0.1262692195534033,0.1262692195534033,1,True,,,,,,,,,,,,8,A,2023-09-05_14h31.50.555,exp3,2022.2.2,
high_opac_v,0.01,1,0.01,3,0.82,3.5,0.01,0,0.01,4,5,Valid,1,33,98,start,lin,0.11062313963723228,0.11062313963723228,0.11062313963723228,0,True,,,,,,,,,,,,8,A,2023-09-05_14h31.50.555,exp3,2022.2.2,
low_opac_v,0.4,1,0.01,3,0.82,3.5,0.01,0,0.01,4,5,Valid,0,34,99,start,lin,0.11976749076467458,0,0.11976749076467458,1,True,,,,,,,,,,,,8,A,2023-09-05_14h31.50.555,exp3,2022.2.2,
high_opac_v,0.01,1,0.01,3,0.82,3.5,0.01,0,0.01,4,5,Valid,1,34,100,start,lin,0.12285150583519072,0.12285150583519072,0.12285150583519072,1,True,,,,,,,,,,,,8,A,2023-09-05_14h31.50.555,exp3,2022.2.2,
low_opac_i,0.4,1,0.01,3,0.82,3.5,0.01,0,0.01,4,5,Invalid,2,34,101,start,lin,1,0,1,0,True,,,,,,,,,,,,8,A,2023-09-05_14h31.50.555,exp3,2022.2.2,
low_opac_v,0.4,1,0.01,3,0.82,3.5,0.01,0,0.01,4,5,Valid,0,35,102,start,lin,0.11351595518974894,0,0.11351595518974894,1,True,,,,,,,,,,,,8,A,2023-09-05_14h31.50.555,exp3,2022.2.2,
high_opac_v,0.01,1,0.01,3,0.82,3.5,0.01,0,0.01,4,5,Valid,1,35,103,start,lin,0.11989106985971182,0,0.11989106985971182,1,True,,,,,,,,,,,,8,A,2023-09-05_14h31.50.555,exp3,2022.2.2,
low_opac_i,0.4,1,0.01,3,0.82,3.5,0.01,0,0.01,4,5,Invalid,2,35,104,start,lin,1,0,1,0,True,,,,,,,,,,,,8,A,2023-09-05_14h31.50.555,exp3,2022.2.2,
low_opac_i,0.4,1,0.01,3,0.82,3.5,0.01,0,0.01,4,5,Invalid,2,36,105,start,lin,1,1,1,1,True,,,,,,,,,,,,8,A,2023-09-05_14h31.50.555,exp3,2022.2.2,
high_opac_v,0.01,1,0.01,3,0.82,3.5,0.01,0,0.01,4,5,Valid,1,36,106,start,lin,0.1170905059502879,0,0.1170905059502879,1,True,,,,,,,,,,,,8,A,2023-09-05_14h31.50.555,exp3,2022.2.2,
low_opac_v,0.4,1,0.01,3,0.82,3.5,0.01,0,0.01,4,5,Valid,0,36,107,start,lin,0.1074236944258643,0,0.1074236944258643,1,True,,,,,,,,,,,,8,A,2023-09-05_14h31.50.555,exp3,2022.2.2,
low_opac_v,0.4,1,0.01,3,0.82,3.5,0.01,0,0.01,4,5,Valid,0,37,108,start,lin,0.10195738449643438,0,0.10195738449643438,1,True,,,,,,,,,,,,8,A,2023-09-05_14h31.50.555,exp3,2022.2.2,
low_opac_i,0.4,1,0.01,3,0.82,3.5,0.01,0,0.01,4,5,Invalid,2,37,109,start,lin,1,1,1,1,True,,,,,,,,,,,,8,A,2023-09-05_14h31.50.555,exp3,2022.2.2,
high_opac_v,0.01,1,0.01,3,0.82,3.5,0.01,0,0.01,4,5,Valid,1,37,110,start,lin,0.1144698585845179,0,0.1144698585845179,1,True,,,,,,,,,,,,8,A,2023-09-05_14h31.50.555,exp3,2022.2.2,
low_opac_i,0.4,1,0.01,3,0.82,3.5,0.01,0,0.01,4,5,Invalid,2,38,111,start,lin,1,0,1,1,True,,,,,,,,,,,,8,A,2023-09-05_14h31.50.555,exp3,2022.2.2,
high_opac_v,0.01,1,0.01,3,0.82,3.5,0.01,0,0.01,4,5,Valid,1,38,112,start,lin,0.11175215326933724,0,0.11175215326933724,1,True,,,,,,,,,,,,8,A,2023-09-05_14h31.50.555,exp3,2022.2.2,
low_opac_v,0.4,1,0.01,3,0.82,3.5,0.01,0,0.01,4,5,Valid,0,38,113,start,lin,0.09650587104049346,0.09650587104049346,0.09650587104049346,0,True,,,,,,,,,,,,8,A,2023-09-05_14h31.50.555,exp3,2022.2.2,
high_opac_v,0.01,1,0.01,3,0.82,3.5,0.01,0,0.01,4,5,Valid,1,39,114,start,lin,0.10911906339097403,0,0.10911906339097403,1,True,,,,,,,,,,,,8,A,2023-09-05_14h31.50.555,exp3,2022.2.2,
low_opac_i,0.4,1,0.01,3,0.82,3.5,0.01,0,0.01,4,5,Invalid,2,39,115,start,lin,1,0,1,1,True,,,,,,,,,,,,8,A,2023-09-05_14h31.50.555,exp3,2022.2.2,
low_opac_v,0.4,1,0.01,3,0.82,3.5,0.01,0,0.01,4,5,Valid,0,39,116,start,lin,0.11668789909132349,0,0.11668789909132349,1,True,,,,,,,,,,,,8,A,2023-09-05_14h31.50.555,exp3,2022.2.2,
low_opac_v,0.4,1,0.01,3,0.82,3.5,0.01,0,0.01,4,5,Valid,0,40,117,start,lin,0.11235456793310672,0,0.11235456793310672,1,True,,,,,,,,,,,,8,A,2023-09-05_14h31.50.555,exp3,2022.2.2,
low_opac_i,0.4,1,0.01,3,0.82,3.5,0.01,0,0.01,4,5,Invalid,2,40,118,start,lin,1,1,1,1,True,,,,,,,,,,,,8,A,2023-09-05_14h31.50.555,exp3,2022.2.2,
high_opac_v,0.01,1,0.01,3,0.82,3.5,0.01,0,0.01,4,5,Valid,1,40,119,start,lin,0.10663259566843651,0,0.10663259566843651,0,True,,,,,,,,,,,,8,A,2023-09-05_14h31.50.555,exp3,2022.2.2,
high_opac_v,0.01,1,0.01,3,0.82,3.5,0.01,0,0.01,4,5,Valid,1,41,120,start,lin,0.11669112997577986,0,0.11669112997577986,0,True,,,,,,,,,,,,8,A,2023-09-05_14h31.50.555,exp3,2022.2.2,
low_opac_i,0.4,1,0.01,3,0.82,3.5,0.01,0,0.01,4,5,Invalid,2,41,121,start,lin,1,1,1,1,True,,,,,,,,,,,,8,A,2023-09-05_14h31.50.555,exp3,2022.2.2,
low_opac_v,0.4,1,0.01,3,0.82,3.5,0.01,0,0.01,4,5,Valid,0,41,122,start,lin,0.10796940929746074,0,0.10796940929746074,1,True,,,,,,,,,,,,8,A,2023-09-05_14h31.50.555,exp3,2022.2.2,
low_opac_v,0.4,1,0.01,3,0.82,3.5,0.01,0,0.01,4,5,Valid,0,42,123,start,lin,0.10395236930177965,0,0.10395236930177965,1,True,,,,,,,,,,,,8,A,2023-09-05_14h31.50.555,exp3,2022.2.2,
high_opac_v,0.01,1,0.01,3,0.82,3.5,0.01,0,0.01,4,5,Valid,1,42,124,start,lin,0.12623605013935396,0,0.12623605013935396,1,True,,,,,,,,,,,,8,A,2023-09-05_14h31.50.555,exp3,2022.2.2,
low_opac_i,0.4,1,0.01,3,0.82,3.5,0.01,0,0.01,4,5,Invalid,2,42,125,start,lin,1,1,1,1,True,,,,,,,,,,,,8,A,2023-09-05_14h31.50.555,exp3,2022.2.2,
low_opac_i,0.4,1,0.01,3,0.82,3.5,0.01,0,0.01,4,5,Invalid,2,43,126,start,lin,1,0,1,0,True,,,,,,,,,,,,8,A,2023-09-05_14h31.50.555,exp3,2022.2.2,
low_opac_v,0.4,1,0.01,3,0.82,3.5,0.01,0,0.01,4,5,Valid,0,43,127,start,lin,0.0998711992137567,0.0998711992137567,0.0998711992137567,0,True,,,,,,,,,,,,8,A,2023-09-05_14h31.50.555,exp3,2022.2.2,
high_opac_v,0.01,1,0.01,3,0.82,3.5,0.01,0,0.01,4,5,Valid,1,43,128,start,lin,0.1241254858514114,0,0.1241254858514114,1,True,,,,,,,,,,,,8,A,2023-09-05_14h31.50.555,exp3,2022.2.2,
low_opac_v,0.4,1,0.01,3,0.82,3.5,0.01,0,0.01,4,5,Valid,0,44,129,start,lin,0.11489043066716531,0.11489043066716531,0.11489043066716531,1,True,,,,,,,,,,,,8,A,2023-09-05_14h31.50.555,exp3,2022.2.2,
low_opac_i,0.4,1,0.01,3,0.82,3.5,0.01,0,0.01,4,5,Invalid,2,44,130,start,lin,1,0,1,1,True,,,,,,,,,,,,8,A,2023-09-05_14h31.50.555,exp3,2022.2.2,
high_opac_v,0.01,1,0.01,3,0.82,3.5,0.01,0,0.01,4,5,Valid,1,44,131,start,lin,0.12191352151317703,0,0.12191352151317703,1,True,,,,,,,,,,,,8,A,2023-09-05_14h31.50.555,exp3,2022.2.2,
low_opac_i,0.4,1,0.01,3,0.82,3.5,0.01,0,0.01,4,5,Invalid,2,45,132,start,lin,1,1,1,1,True,,,,,,,,,,,,8,A,2023-09-05_14h31.50.555,exp3,2022.2.2,
low_opac_v,0.4,1,0.01,3,0.82,3.5,0.01,0,0.01,4,5,Valid,0,45,133,start,lin,0.11127483261112808,0,0.11127483261112808,1,True,,,,,,,,,,,,8,A,2023-09-05_14h31.50.555,exp3,2022.2.2,
high_opac_v,0.01,1,0.01,3,0.82,3.5,0.01,0,0.01,4,5,Valid,1,45,134,start,lin,0.1197520293152401,0.1197520293152401,0.1197520293152401,1,True,,,,,,,,,,,,8,A,2023-09-05_14h31.50.555,exp3,2022.2.2,
high_opac_v,0.01,1,0.01,3,0.82,3.5,0.01,0,0.01,4,5,Valid,1,46,135,start,lin,0.11768500512544773,0,0.11768500512544773,1,True,,,,,,,,,,,,8,A,2023-09-05_14h31.50.555,exp3,2022.2.2,
low_opac_i,0.4,1,0.01,3,0.82,3.5,0.01,0,0.01,4,5,Invalid,2,46,136,start,lin,1,1,1,1,True,,,,,,,,,,,,8,A,2023-09-05_14h31.50.555,exp3,2022.2.2,
low_opac_v,0.4,1,0.01,3,0.82,3.5,0.01,0,0.01,4,5,Valid,0,46,137,start,lin,0.10785046759013123,0.10785046759013123,0.10785046759013123,0,True,,,,,,,,,,,,8,A,2023-09-05_14h31.50.555,exp3,2022.2.2,
low_opac_v,0.4,1,0.01,3,0.82,3.5,0.01,0,0.01,4,5,Valid,0,47,138,start,lin,0.12100635914908009,0,0.12100635914908009,1,True,,,,,,,,,,,,8,A,2023-09-05_14h31.50.555,exp3,2022.2.2,
high_opac_v,0.01,1,0.01,3,0.82,3.5,0.01,0,0.01,4,5,Valid,1,47,139,start,lin,0.11573186985715954,0,0.11573186985715954,1,True,,,,,,,,,,,,8,A,2023-09-05_14h31.50.555,exp3,2022.2.2,
low_opac_i,0.4,1,0.01,3,0.82,3.5,0.01,0,0.01,4,5,Invalid,2,47,140,start,lin,1,0,1,1,True,,,,,,,,,,,,8,A,2023-09-05_14h31.50.555,exp3,2022.2.2,
low_opac_i,0.4,1,0.01,3,0.82,3.5,0.01,0,0.01,4,5,Invalid,2,48,141,start,lin,1,0,1,1,True,,,,,,,,,,,,8,A,2023-09-05_14h31.50.555,exp3,2022.2.2,
high_opac_v,0.01,1,0.01,3,0.82,3.5,0.01,0,0.01,4,5,Valid,1,48,142,start,lin,0.11386275491154983,0.11386275491154983,0.11386275491154983,1,True,,,,,,,,,,,,8,A,2023-09-05_14h31.50.555,exp3,2022.2.2,
low_opac_v,0.4,1,0.01,3,0.82,3.5,0.01,0,0.01,4,5,Valid,0,48,143,start,lin,0.11791236866979454,0,0.11791236866979454,1,True,,,,,,,,,,,,8,A,2023-09-05_14h31.50.555,exp3,2022.2.2,
low_opac_v,0.4,1,0.01,3,0.82,3.5,0.01,0,0.01,4,5,Valid,0,49,144,start,lin,0.11503960585012263,0.11503960585012263,0.11503960585012263,1,True,,,,,,,,,,,,8,A,2023-09-05_14h31.50.555,exp3,2022.2.2,
high_opac_v,0.01,1,0.01,3,0.82,3.5,0.01,0,0.01,4,5,Valid,1,49,145,start,lin,0.11188860981648369,0,0.11188860981648369,1,True,,,,,,,,,,,,8,A,2023-09-05_14h31.50.555,exp3,2022.2.2,
low_opac_i,0.4,1,0.01,3,0.82,3.5,0.01,0,0.01,4,5,Invalid,2,49,146,start,lin,1,0,1,1,True,,,,,,,,,,,,8,A,2023-09-05_14h31.50.555,exp3,2022.2.2,
low_opac_i,0.4,1,0.01,3,0.82,3.5,0.01,0,0.01,4,5,Invalid,2,50,147,start,lin,1,1,1,1,True,,,,,,,,,,,,8,A,2023-09-05_14h31.50.555,exp3,2022.2.2,
low_opac_v,0.4,1,0.01,3,0.82,3.5,0.01,0,0.01,4,5,Valid,0,50,148,start,lin,0.11232769343609633,0.11232769343609633,0.11232769343609633,1,True,,,,,,,,,,,,8,A,2023-09-05_14h31.50.555,exp3,2022.2.2,
high_opac_v,0.01,1,0.01,3,0.82,3.5,0.01,0,0.01,4,5,Valid,1,50,149,start,lin,0.10994818933179626,0,0.10994818933179626,1,True,,,,,,,,,,,,8,A,2023-09-05_14h31.50.555,exp3,2022.2.2,
low_opac_i,0.4,1,0.01,3,0.82,3.5,0.01,0,0.01,4,5,Invalid,2,51,150,start,lin,1,0,1,1,True,,,,,,,,,,,,8,A,2023-09-05_14h31.50.555,exp3,2022.2.2,
high_opac_v,0.01,1,0.01,3,0.82,3.5,0.01,0,0.01,4,5,Valid,1,51,151,start,lin,0.10807031740799322,0.10807031740799322,0.10807031740799322,1,True,,,,,,,,,,,,8,A,2023-09-05_14h31.50.555,exp3,2022.2.2,
low_opac_v,0.4,1,0.01,3,0.82,3.5,0.01,0,0.01,4,5,Valid,0,51,152,start,lin,0.10948458013876888,0.10948458013876888,0.10948458013876888,1,True,,,,,,,,,,,,8,A,2023-09-05_14h31.50.555,exp3,2022.2.2,
low_opac_v,0.4,1,0.01,3,0.82,3.5,0.01,0,0.01,4,5,Valid,0,52,153,start,lin,0.10680191404517331,0,0.10680191404517331,1,True,,,,,,,,,,,,8,A,2023-09-05_14h31.50.555,exp3,2022.2.2,
high_opac_v,0.01,1,0.01,3,0.82,3.5,0.01,0,0.01,4,5,Valid,1,52,154,start,lin,0.10629161541670908,0,0.10629161541670908,1,True,,,,,,,,,,,,8,A,2023-09-05_14h31.50.555,exp3,2022.2.2,
low_opac_i,0.4,1,0.01,3,0.82,3.5,0.01,0,0.01,4,5,Invalid,2,52,155,start,lin,1,0,1,1,True,,,,,,,,,,,,8,A,2023-09-05_14h31.50.555,exp3,2022.2.2,
low_opac_v,0.4,1,0.01,3,0.82,3.5,0.01,0,0.01,4,5,Valid,0,53,156,start,lin,0.10428156055644333,0.10428156055644333,0.10428156055644333,0,True,,,,,,,,,,,,8,A,2023-09-05_14h31.50.555,exp3,2022.2.2,
high_opac_v,0.01,1,0.01,3,0.82,3.5,0.01,0,0.01,4,5,Valid,1,53,157,start,lin,0.10458761220810651,0.10458761220810651,0.10458761220810651,0,True,,,,,,,,,,,,8,A,2023-09-05_14h31.50.555,exp3,2022.2.2,
low_opac_i,0.4,1,0.01,3,0.82,3.5,0.01,0,0.01,4,5,Invalid,2,53,158,start,lin,1,1,1,1,True,,,,,,,,,,,,8,A,2023-09-05_14h31.50.555,exp3,2022.2.2,
high_opac_v,0.01,1,0.01,3,0.82,3.5,0.01,0,0.01,4,5,Valid,1,54,159,start,lin,0.1115222098502955,0,0.1115222098502955,1,True,,,,,,,,,,,,8,A,2023-09-05_14h31.50.555,exp3,2022.2.2,
low_opac_v,0.4,1,0.01,3,0.82,3.5,0.01,0,0.01,4,5,Valid,0,54,160,start,lin,0.11422868974073147,0.11422868974073147,0.11422868974073147,0,True,,,,,,,,,,,,8,A,2023-09-05_14h31.50.555,exp3,2022.2.2,
low_opac_i,0.4,1,0.01,3,0.82,3.5,0.01,0,0.01,4,5,Invalid,2,54,161,start,lin,1,1,1,1,True,,,,,,,,,,,,8,A,2023-09-05_14h31.50.555,exp3,2022.2.2,
low_opac_i,0.4,1,0.01,3,0.82,3.5,0.01,0,0.01,4,5,Invalid,2,55,162,start,lin,1,0,1,1,True,,,,,,,,,,,,8,A,2023-09-05_14h31.50.555,exp3,2022.2.2,
high_opac_v,0.01,1,0.01,3,0.82,3.5,0.01,0,0.01,4,5,Valid,1,55,163,start,lin,0.10978610669253983,0,0.10978610669253983,1,True,,,,,,,,,,,,8,A,2023-09-05_14h31.50.555,exp3,2022.2.2,
low_opac_v,0.4,1,0.01,3,0.82,3.5,0.01,0,0.01,4,5,Valid,0,55,164,start,lin,0.1236985408207607,0.1236985408207607,0.1236985408207607,0,True,,,,,,,,,,,,8,A,2023-09-05_14h31.50.555,exp3,2022.2.2,
high_opac_v,0.01,1,0.01,3,0.82,3.5,0.01,0,0.01,4,5,Valid,1,56,165,start,lin,0.10810826110210145,0,0.10810826110210145,1,True,,,,,,,,,,,,8,A,2023-09-05_14h31.50.555,exp3,2022.2.2,
low_opac_i,0.4,1,0.01,3,0.82,3.5,0.01,0,0.01,4,5,Invalid,2,56,166,start,lin,1,1,1,1,True,,,,,,,,,,,,8,A,2023-09-05_14h31.50.555,exp3,2022.2.2,
low_opac_v,0.4,1,0.01,3,0.82,3.5,0.01,0,0.01,4,5,Valid,0,56,167,start,lin,0.13282403693641814,0,0.13282403693641814,1,True,,,,,,,,,,,,8,A,2023-09-05_14h31.50.555,exp3,2022.2.2,
low_opac_v,0.4,1,0.01,3,0.82,3.5,0.01,0,0.01,4,5,Valid,0,57,168,start,lin,0.13053153450074972,0,0.13053153450074972,1,True,,,,,,,,,,,,8,A,2023-09-05_14h31.50.555,exp3,2022.2.2,
high_opac_v,0.01,1,0.01,3,0.82,3.5,0.01,0,0.01,4,5,Valid,1,57,169,start,lin,0.106513950492436,0.106513950492436,0.106513950492436,0,True,,,,,,,,,,,,8,A,2023-09-05_14h31.50.555,exp3,2022.2.2,
low_opac_i,0.4,1,0.01,3,0.82,3.5,0.01,0,0.01,4,5,Invalid,2,57,170,start,lin,1,1,1,1,True,,,,,,,,,,,,8,A,2023-09-05_14h31.50.555,exp3,2022.2.2,
high_opac_v,0.01,1,0.01,3,0.82,3.5,0.01,0,0.01,4,5,Valid,1,58,171,start,lin,0.11325738883096693,0.11325738883096693,0.11325738883096693,1,True,,,,,,,,,,,,8,A,2023-09-05_14h31.50.555,exp3,2022.2.2,
low_opac_v,0.4,1,0.01,3,0.82,3.5,0.01,0,0.01,4,5,Valid,0,58,172,start,lin,0.12832162155775295,0.12832162155775295,0.12832162155775295,1,True,,,,,,,,,,,,8,A,2023-09-05_14h31.50.555,exp3,2022.2.2,
low_opac_i,0.4,1,0.01,3,0.82,3.5,0.01,0,0.01,4,5,Invalid,2,58,173,start,lin,1,0,1,1,True,,,,,,,,,,,,8,A,2023-09-05_14h31.50.555,exp3,2022.2.2,
high_opac_v,0.01,1,0.01,3,0.82,3.5,0.01,0,0.01,4,5,Valid,1,59,174,start,lin,0.1116791781821179,0,0.1116791781821179,0,True,,,,,,,,,,,,8,A,2023-09-05_14h31.50.555,exp3,2022.2.2,
low_opac_v,0.4,1,0.01,3,0.82,3.5,0.01,0,0.01,4,5,Valid,0,59,175,start,lin,0.12624659787770698,0,0.12624659787770698,1,True,,,,,,,,,,,,8,A,2023-09-05_14h31.50.555,exp3,2022.2.2,
low_opac_i,0.4,1,0.01,3,0.82,3.5,0.01,0,0.01,4,5,Invalid,2,59,176,start,lin,1,0,1,1,True,,,,,,,,,,,,8,A,2023-09-05_14h31.50.555,exp3,2022.2.2,
high_opac_v,0.01,1,0.01,3,0.82,3.5,0.01,0,0.01,4,5,Valid,1,60,177,start,lin,0.11775108581688944,0.11775108581688944,0.11775108581688944,1,True,,,,,,,,,,,,8,A,2023-09-05_14h31.50.555,exp3,2022.2.2,
low_opac_v,0.4,1,0.01,3,0.82,3.5,0.01,0,0.01,4,5,Valid,0,60,178,start,lin,0.12427384016097426,0.12427384016097426,0.12427384016097426,1,True,,,,,,,,,,,,8,A,2023-09-05_14h31.50.555,exp3,2022.2.2,
low_opac_i,0.4,1,0.01,3,0.82,3.5,0.01,0,0.01,4,5,Invalid,2,60,179,start,lin,1,1,1,1,True,,,,,,,,,,,,8,A,2023-09-05_14h31.50.555,exp3,2022.2.2,
high_opac_v,0.01,1,0.01,3,0.82,3.5,0.01,0,0.01,4,5,Valid,1,61,180,start,lin,0.1163182428917131,0,0.1163182428917131,1,True,,,,,,,,,,,,8,A,2023-09-05_14h31.50.555,exp3,2022.2.2,
low_opac_i,0.4,1,0.01,3,0.82,3.5,0.01,0,0.01,4,5,Invalid,2,61,181,start,lin,1,1,1,1,True,,,,,,,,,,,,8,A,2023-09-05_14h31.50.555,exp3,2022.2.2,
low_opac_v,0.4,1,0.01,3,0.82,3.5,0.01,0,0.01,4,5,Valid,0,61,182,start,lin,0.12220370636746286,0.12220370636746286,0.12220370636746286,1,True,,,,,,,,,,,,8,A,2023-09-05_14h31.50.555,exp3,2022.2.2,
low_opac_v,0.4,1,0.01,3,0.82,3.5,0.01,0,0.01,4,5,Valid,0,62,183,start,lin,0.12017962499101031,0,0.12017962499101031,1,True,,,,,,,,,,,,8,A,2023-09-05_14h31.50.555,exp3,2022.2.2,
low_opac_i,0.4,1,0.01,3,0.82,3.5,0.01,0,0.01,4,5,Invalid,2,62,184,start,lin,1,0,1,1,True,,,,,,,,,,,,8,A,2023-09-05_14h31.50.555,exp3,2022.2.2,
high_opac_v,0.01,1,0.01,3,0.82,3.5,0.01,0,0.01,4,5,Valid,1,62,185,start,lin,0.1149385955821315,0,0.1149385955821315,1,True,,,,,,,,,,,,8,A,2023-09-05_14h31.50.555,exp3,2022.2.2,
high_opac_v,0.01,1,0.01,3,0.82,3.5,0.01,0,0.01,4,5,Valid,1,63,186,start,lin,0.11347862770713643,0.11347862770713643,0.11347862770713643,1,True,,,,,,,,,,,,8,A,2023-09-05_14h31.50.555,exp3,2022.2.2,
low_opac_v,0.4,1,0.01,3,0.82,3.5,0.01,0,0.01,4,5,Valid,0,63,187,start,lin,0.11822300827376214,0,0.11822300827376214,1,True,,,,,,,,,,,,8,A,2023-09-05_14h31.50.555,exp3,2022.2.2,
low_opac_i,0.4,1,0.01,3,0.82,3.5,0.01,0,0.01,4,5,Invalid,2,63,188,start,lin,1,1,1,1,True,,,,,,,,,,,,8,A,2023-09-05_14h31.50.555,exp3,2022.2.2,
high_opac_v,0.01,1,0.01,3,0.82,3.5,0.01,0,0.01,4,5,Valid,1,64,189,start,lin,0.11204566723958985,0,0.11204566723958985,1,True,,,,,,,,,,,,8,A,2023-09-05_14h31.50.555,exp3,2022.2.2,
low_opac_v,0.4,1,0.01,3,0.82,3.5,0.01,0,0.01,4,5,Valid,0,64,190,start,lin,0.11637596435183228,0,0.11637596435183228,1,True,,,,,,,,,,,,8,A,2023-09-05_14h31.50.555,exp3,2022.2.2,
low_opac_i,0.4,1,0.01,3,0.82,3.5,0.01,0,0.01,4,5,Invalid,2,64,191,start,lin,1,1,1,1,True,,,,,,,,,,,,8,A,2023-09-05_14h31.50.555,exp3,2022.2.2,
low_opac_v,0.4,1,0.01,3,0.82,3.5,0.01,0,0.01,4,5,Valid,0,65,192,start,lin,0.11461197563565323,0,0.11461197563565323,1,True,,,,,,,,,,,,8,A,2023-09-05_14h31.50.555,exp3,2022.2.2,
high_opac_v,0.01,1,0.01,3,0.82,3.5,0.01,0,0.01,4,5,Valid,1,65,193,start,lin,0.11062522475759533,0.11062522475759533,0.11062522475759533,1,True,,,,,,,,,,,,8,A,2023-09-05_14h31.50.555,exp3,2022.2.2,
low_opac_i,0.4,1,0.01,3,0.82,3.5,0.01,0,0.01,4,5,Invalid,2,65,194,start,lin,1,0,1,1,True,,,,,,,,,,,,8,A,2023-09-05_14h31.50.555,exp3,2022.2.2,
low_opac_v,0.4,1,0.01,3,0.82,3.5,0.01,0,0.01,4,5,Valid,0,66,195,start,lin,0.11275552197343286,0.11275552197343286,0.11275552197343286,1,True,,,,,,,,,,,,8,A,2023-09-05_14h31.50.555,exp3,2022.2.2,
high_opac_v,0.01,1,0.01,3,0.82,3.5,0.01,0,0.01,4,5,Valid,1,66,196,start,lin,0.10921389537537338,0.10921389537537338,0.10921389537537338,1,True,,,,,,,,,,,,8,A,2023-09-05_14h31.50.555,exp3,2022.2.2,
low_opac_i,0.4,1,0.01,3,0.82,3.5,0.01,0,0.01,4,5,Invalid,2,66,197,start,lin,1,0,1,0,True,,,,,,,,,,,,8,A,2023-09-05_14h31.50.555,exp3,2022.2.2,
low_opac_i,0.4,1,0.01,3,0.82,3.5,0.01,0,0.01,4,5,Invalid,2,67,198,start,lin,1,0,1,1,True,,,,,,,,,,,,8,A,2023-09-05_14h31.50.555,exp3,2022.2.2,
low_opac_v,0.4,1,0.01,3,0.82,3.5,0.01,0,0.01,4,5,Valid,0,67,199,start,lin,0.11093810465350684,0.11093810465350684,0.11093810465350684,1,True,,,,,,,,,,,,8,A,2023-09-05_14h31.50.555,exp3,2022.2.2,
high_opac_v,0.01,1,0.01,3,0.82,3.5,0.01,0,0.01,4,5,Valid,1,67,200,start,lin,0.10786359911944923,0,0.10786359911944923,1,True,,,,,,,,,,,,8,A,2023-09-05_14h31.50.555,exp3,2022.2.2,
high_opac_v,0.01,1,0.01,3,0.82,3.5,0.01,0,0.01,4,5,Valid,1,68,201,start,lin,0.10657146054288222,0,0.10657146054288222,1,True,,,,,,,,,,,,8,A,2023-09-05_14h31.50.555,exp3,2022.2.2,
low_opac_i,0.4,1,0.01,3,0.82,3.5,0.01,0,0.01,4,5,Invalid,2,68,202,start,lin,1,0,1,1,True,,,,,,,,,,,,8,A,2023-09-05_14h31.50.555,exp3,2022.2.2,
low_opac_v,0.4,1,0.01,3,0.82,3.5,0.01,0,0.01,4,5,Valid,0,68,203,start,lin,0.10914669788707104,0.10914669788707104,0.10914669788707104,1,True,,,,,,,,,,,,8,A,2023-09-05_14h31.50.555,exp3,2022.2.2,
high_opac_v,0.01,1,0.01,3,0.82,3.5,0.01,0,0.01,4,5,Valid,1,69,204,start,lin,0.1053248826931298,0,0.1053248826931298,1,True,,,,,,,,,,,,8,A,2023-09-05_14h31.50.555,exp3,2022.2.2,
low_opac_v,0.4,1,0.01,3,0.82,3.5,0.01,0,0.01,4,5,Valid,0,69,205,start,lin,0.10744091327966565,0,0.10744091327966565,1,True,,,,,,,,,,,,8,A,2023-09-05_14h31.50.555,exp3,2022.2.2,
low_opac_i,0.4,1,0.01,3,0.82,3.5,0.01,0,0.01,4,5,Invalid,2,69,206,start,lin,1,1,1,1,True,,,,,,,,,,,,8,A,2023-09-05_14h31.50.555,exp3,2022.2.2,
low_opac_i,0.4,1,0.01,3,0.82,3.5,0.01,0,0.01,4,5,Invalid,2,70,207,start,lin,1,1,1,1,True,,,,,,,,,,,,8,A,2023-09-05_14h31.50.555,exp3,2022.2.2,
low_opac_v,0.4,1,0.01,3,0.82,3.5,0.01,0,0.01,4,5,Valid,0,70,208,start,lin,0.10581561573318554,0.10581561573318554,0.10581561573318554,0,True,,,,,,,,,,,,8,A,2023-09-05_14h31.50.555,exp3,2022.2.2,
high_opac_v,0.01,1,0.01,3,0.82,3.5,0.01,0,0.01,4,5,Valid,1,70,209,start,lin,0.10411258040490172,0,0.10411258040490172,1,True,,,,,,,,,,,,8,A,2023-09-05_14h31.50.555,exp3,2022.2.2,
low_opac_i,0.4,1,0.01,3,0.82,3.5,0.01,0,0.01,4,5,Invalid,2,71,210,start,lin,1,1,1,1,True,,,,,,,,,,,,8,A,2023-09-05_14h31.50.555,exp3,2022.2.2,
low_opac_v,0.4,1,0.01,3,0.82,3.5,0.01,0,0.01,4,5,Valid,0,71,211,start,lin,0.11278508150310529,0.11278508150310529,0.11278508150310529,1,True,,,,,,,,,,,,8,A,2023-09-05_14h31.50.555,exp3,2022.2.2,
high_opac_v,0.01,1,0.01,3,0.82,3.5,0.01,0,0.01,4,5,Valid,1,71,212,start,lin,0.10281680456688244,0,0.10281680456688244,1,True,,,,,,,,,,,,8,A,2023-09-05_14h31.50.555,exp3,2022.2.2,
low_opac_i,0.4,1,0.01,3,0.82,3.5,0.01,0,0.01,4,5,Invalid,2,72,213,start,lin,1,1,1,0,True,,,,,,,,,,,,8,A,2023-09-05_14h31.50.555,exp3,2022.2.2,
low_opac_v,0.4,1,0.01,3,0.82,3.5,0.01,0,0.01,4,5,Valid,0,72,214,start,lin,0.11115619205391652,0.11115619205391652,0.11115619205391652,0,True,,,,,,,,,,,,8,A,2023-09-05_14h31.50.555,exp3,2022.2.2,
high_opac_v,0.01,1,0.01,3,0.82,3.5,0.01,0,0.01,4,5,Valid,1,72,215,start,lin,0.10153466261403071,0,0.10153466261403071,1,True,,,,,,,,,,,,8,A,2023-09-05_14h31.50.555,exp3,2022.2.2,
high_opac_v,0.01,1,0.01,3,0.82,3.5,0.01,0,0.01,4,5,Valid,1,73,216,start,lin,0.10025495533483185,0.10025495533483185,0.10025495533483185,0,True,,,,,,,,,,,,8,A,2023-09-05_14h31.50.555,exp3,2022.2.2,
low_opac_v,0.4,1,0.01,3,0.82,3.5,0.01,0,0.01,4,5,Valid,0,73,217,start,lin,0.11743719278693421,0,0.11743719278693421,1,True,,,,,,,,,,,,8,A,2023-09-05_14h31.50.555,exp3,2022.2.2,
low_opac_i,0.4,1,0.01,3,0.82,3.5,0.01,0,0.01,4,5,Invalid,2,73,218,start,lin,1,0,1,1,True,,,,,,,,,,,,8,A,2023-09-05_14h31.50.555,exp3,2022.2.2,
high_opac_v,0.01,1,0.01,3,0.82,3.5,0.01,0,0.01,4,5,Valid,1,74,219,start,lin,0.10525496212710297,0,0.10525496212710297,1,True,,,,,,,,,,,,8,A,2023-09-05_14h31.50.555,exp3,2022.2.2,
low_opac_i,0.4,1,0.01,3,0.82,3.5,0.01,0,0.01,4,5,Invalid,2,74,220,start,lin,1,0,1,1,True,,,,,,,,,,,,8,A,2023-09-05_14h31.50.555,exp3,2022.2.2,
low_opac_v,0.4,1,0.01,3,0.82,3.5,0.01,0,0.01,4,5,Valid,0,74,221,start,lin,0.11596963551961853,0.11596963551961853,0.11596963551961853,1,True,,,,,,,,,,,,8,A,2023-09-05_14h31.50.555,exp3,2022.2.2,
high_opac_v,0.01,1,0.01,3,0.82,3.5,0.01,0,0.01,4,5,Valid,1,75,222,start,lin,0.10413848364630203,0.10413848364630203,0.10413848364630203,1,True,,,,,,,,,,,,8,A,2023-09-05_14h31.50.555,exp3,2022.2.2,
low_opac_i,0.4,1,0.01,3,0.82,3.5,0.01,0,0.01,4,5,Invalid,2,75,223,start,lin,1,1,1,1,True,,,,,,,,,,,,8,A,2023-09-05_14h31.50.555,exp3,2022.2.2,
low_opac_v,0.4,1,0.01,3,0.82,3.5,0.01,0,0.01,4,5,Valid,0,75,224,start,lin,0.11455492928403604,0.11455492928403604,0.11455492928403604,0,True,,,,,,,,,,,,8,A,2023-09-05_14h31.50.555,exp3,2022.2.2,
,,,,,,,,,,,,,,,,,,,,,,,0,-1716,Valid,signal,0,1,1031.4794159003068,1,1.0,41.876873299945146,True,8,A,2023-09-05_14h31.50.555,exp3,2022.2.2,
,,,,,,,,,,,,,,,,,,,,,,,0,-1158,Valid,noise,0,2,1046.8879134003073,1,3.0,5.514092700090259,True,8,A,2023-09-05_14h31.50.555,exp3,2022.2.2,
,,,,,,,,,,,,,,,,,,,,,,,0,1158,Valid,noise,0,2,1056.1512579002883,1,3.0,7.414350299863145,True,8,A,2023-09-05_14h31.50.555,exp3,2022.2.2,
,,,,,,,,,,,,,,,,,,,,,,,0,2274,Invalid,noise,0,2,1061.4804379001725,1,2.0,3.847410400165245,True,8,A,2023-09-05_14h31.50.555,exp3,2022.2.2,
,,,,,,,,,,,,,,,,,,,,,,,0,2274,Valid,noise,0,2,1066.9523252001964,1,2.0,5.529850699938834,True,8,A,2023-09-05_14h31.50.555,exp3,2022.2.2,
,,,,,,,,,,,,,,,,,,,,,,,0,-2274,Valid,noise,0,2,1072.2326307003386,1,3.0,2.8464687999803573,True,8,A,2023-09-05_14h31.50.555,exp3,2022.2.2,
,,,,,,,,,,,,,,,,,,,,,,,0,1716,Invalid,signal,0,2,1076.632541200146,0,2.0,4.3462964000646025,True,8,A,2023-09-05_14h31.50.555,exp3,2022.2.2,
,,,,,,,,,,,,,,,,,,,,,,,0,2274,Valid,signal,0,2,1081.5759605001658,0,3.0,3.1795070997904986,True,8,A,2023-09-05_14h31.50.555,exp3,2022.2.2,
,,,,,,,,,,,,,,,,,,,,,,,0,-557,Valid,noise,0,2,1085.479449200211,1,4.0,3.413332700030878,True,8,A,2023-09-05_14h31.50.555,exp3,2022.2.2,
,,,,,,,,,,,,,,,,,,,,,,,0,1158,Valid,signal,0,1,1090.7282296002377,1,2.0,3.7298849001526833,True,8,A,2023-09-05_14h31.50.555,exp3,2022.2.2,
,,,,,,,,,,,,,,,,,,,,,,,0,2274,Valid,signal,0,2,1094.6482043003198,0,3.0,3.1624974999576807,True,8,A,2023-09-05_14h31.50.555,exp3,2022.2.2,
,,,,,,,,,,,,,,,,,,,,,,,0,1158,Valid,noise,0,2,1098.8560493001714,1,3.0,2.9124857001006603,True,8,A,2023-09-05_14h31.50.555,exp3,2022.2.2,
,,,,,,,,,,,,,,,,,,,,,,,0,1158,Invalid,signal,0,1,1103.544348800322,1,2.0,3.5631044001784176,True,8,A,2023-09-05_14h31.50.555,exp3,2022.2.2,
,,,,,,,,,,,,,,,,,,,,,,,0,-1158,Valid,signal,0,1,1107.4953271001577,1,2.0,3.063073799945414,True,8,A,2023-09-05_14h31.50.555,exp3,2022.2.2,
,,,,,,,,,,,,,,,,,,,,,,,0,557,Valid,signal,0,1,1112.0886469001416,1,2.0,3.429206799948588,True,8,A,2023-09-05_14h31.50.555,exp3,2022.2.2,
,,,,,,,,,,,,,,,,,,,,,,,0,2274,Valid,noise,0,2,1116.2325493001845,1,2.0,3.380027800099924,True,8,A,2023-09-05_14h31.50.555,exp3,2022.2.2,
,,,,,,,,,,,,,,,,,,,,,,,0,-2274,Valid,signal,0,2,1120.1679880002048,0,2.0,2.629543300019577,True,8,A,2023-09-05_14h31.50.555,exp3,2022.2.2,
,,,,,,,,,,,,,,,,,,,,,,,0,-557,Valid,noise,0,2,1124.1041037002578,1,3.0,3.496787399984896,True,8,A,2023-09-05_14h31.50.555,exp3,2022.2.2,
,,,,,,,,,,,,,,,,,,,,,,,0,-1158,Valid,noise,0,2,1128.3600242002867,1,3.0,2.7289696000516415,True,8,A,2023-09-05_14h31.50.555,exp3,2022.2.2,
,,,,,,,,,,,,,,,,,,,,,,,0,-1158,Valid,noise,0,2,1131.896330700256,1,3.0,2.7961158000398427,True,8,A,2023-09-05_14h31.50.555,exp3,2022.2.2,
,,,,,,,,,,,,,,,,,,,,,,,0,-1716,Valid,signal,0,2,1135.8004330003168,0,2.0,3.1466626999899745,True,8,A,2023-09-05_14h31.50.555,exp3,2022.2.2,
,,,,,,,,,,,,,,,,,,,,,,,0,1158,Valid,noise,0,2,1139.8641159001272,1,2.0,2.6624750001356006,True,8,A,2023-09-05_14h31.50.555,exp3,2022.2.2,
,,,,,,,,,,,,,,,,,,,,,,,0,-2274,Valid,noise,0,2,1143.463742900174,1,2.0,2.6463659999426454,True,8,A,2023-09-05_14h31.50.555,exp3,2022.2.2,
,,,,,,,,,,,,,,,,,,,,,,,0,-2274,Valid,signal,0,2,1147.3033824001905,0,2.0,3.279827699996531,True,8,A,2023-09-05_14h31.50.555,exp3,2022.2.2,
,,,,,,,,,,,,,,,,,,,,,,,0,1716,Valid,signal,0,2,1152.0406289002858,0,2.0,3.4633967000991106,True,8,A,2023-09-05_14h31.50.555,exp3,2022.2.2,
,,,,,,,,,,,,,,,,,,,,,,,0,1158,Valid,signal,0,1,1156.2483475003392,1,2.0,3.2626486998051405,True,8,A,2023-09-05_14h31.50.555,exp3,2022.2.2,
,,,,,,,,,,,,,,,,,,,,,,,0,-557,Valid,noise,0,2,1160.7594302003272,1,3.0,3.762855499982834,True,8,A,2023-09-05_14h31.50.555,exp3,2022.2.2,
,,,,,,,,,,,,,,,,,,,,,,,0,1716,Valid,noise,0,2,1164.9523480001371,1,3.0,2.8964823000133038,True,8,A,2023-09-05_14h31.50.555,exp3,2022.2.2,
,,,,,,,,,,,,,,,,,,,,,,,0,-557,Valid,signal,0,2,1169.5752308003139,0,2.0,3.629660699982196,True,8,A,2023-09-05_14h31.50.555,exp3,2022.2.2,
,,,,,,,,,,,,,,,,,,,,,,,0,-1716,Invalid,noise,0,2,1174.0404073002283,1,2.0,3.512962100096047,True,8,A,2023-09-05_14h31.50.555,exp3,2022.2.2,
,,,,,,,,,,,,,,,,,,,,,,,0,-1716,Valid,signal,0,2,1178.664573600283,0,2.0,3.2630801999475807,True,8,A,2023-09-05_14h31.50.555,exp3,2022.2.2,
,,,,,,,,,,,,,,,,,,,,,,,0,2274,Valid,noise,0,2,1182.7760102001484,1,2.0,3.5791764999739826,True,8,A,2023-09-05_14h31.50.555,exp3,2022.2.2,
,,,,,,,,,,,,,,,,,,,,,,,0,-1158,Valid,noise,0,2,1188.2957551002037,1,2.0,4.413827399956062,True,8,A,2023-09-05_14h31.50.555,exp3,2022.2.2,
,,,,,,,,,,,,,,,,,,,,,,,0,557,Valid,noise,0,2,1192.5194873001892,1,2.0,2.762722099898383,True,8,A,2023-09-05_14h31.50.555,exp3,2022.2.2,
,,,,,,,,,,,,,,,,,,,,,,,0,-1716,Valid,noise,0,2,1197.5915702001657,1,2.0,5.213721700012684,True,8,A,2023-09-05_14h31.50.555,exp3,2022.2.2,
,,,,,,,,,,,,,,,,,,,,,,,0,557,Valid,noise,0,2,1202.44012140017,1,4.0,4.947086799889803,True,8,A,2023-09-05_14h31.50.555,exp3,2022.2.2,
,,,,,,,,,,,,,,,,,,,,,,,0,-1158,Invalid,noise,0,2,1209.2079432001337,1,3.0,3.4628677000291646,True,8,A,2023-09-05_14h31.50.555,exp3,2022.2.2,
,,,,,,,,,,,,,,,,,,,,,,,0,1716,Valid,signal,0,1,1212.8723983003292,1,2.0,2.7962398000527173,True,8,A,2023-09-05_14h31.50.555,exp3,2022.2.2,
,,,,,,,,,,,,,,,,,,,,,,,0,-1158,Invalid,signal,0,1,1216.9518066002056,1,3.0,3.6630229000002146,True,8,A,2023-09-05_14h31.50.555,exp3,2022.2.2,
,,,,,,,,,,,,,,,,,,,,,,,0,2274,Valid,signal,0,2,1221.9920245001558,0,2.0,3.5634405000600964,True,8,A,2023-09-05_14h31.50.555,exp3,2022.2.2,
,,,,,,,,,,,,,,,,,,,,,,,0,1716,Invalid,noise,0,2,1227.4632768002339,1,2.0,4.746593599906191,True,8,A,2023-09-05_14h31.50.555,exp3,2022.2.2,
,,,,,,,,,,,,,,,,,,,,,,,0,-1716,Invalid,signal,0,1,1232.4404482003301,1,1.0,4.1803492999169976,True,8,A,2023-09-05_14h31.50.555,exp3,2022.2.2,
,,,,,,,,,,,,,,,,,,,,,,,0,2274,Valid,noise,0,2,1237.128229800146,1,2.0,3.0794732000213116,True,8,A,2023-09-05_14h31.50.555,exp3,2022.2.2,
,,,,,,,,,,,,,,,,,,,,,,,0,2274,Valid,signal,0,2,1241.319162600208,0,2.0,3.1295729000121355,True,8,A,2023-09-05_14h31.50.555,exp3,2022.2.2,
,,,,,,,,,,,,,,,,,,,,,,,0,-1158,Invalid,signal,0,1,1245.4004998002201,1,3.0,7.6646719998680055,True,8,A,2023-09-05_14h31.50.555,exp3,2022.2.2,
,,,,,,,,,,,,,,,,,,,,,,,0,-557,Invalid,noise,0,2,1256.2313540002797,1,2.0,7.514429199974984,True,8,A,2023-09-05_14h31.50.555,exp3,2022.2.2,
,,,,,,,,,,,,,,,,,,,,,,,0,557,Valid,noise,0,2,1262.9045755001716,1,3.0,3.796555200126022,True,8,A,2023-09-05_14h31.50.555,exp3,2022.2.2,
,,,,,,,,,,,,,,,,,,,,,,,0,-2274,Valid,noise,0,2,1267.1595337002072,1,2.0,3.063405699795112,True,8,A,2023-09-05_14h31.50.555,exp3,2022.2.2,
,,,,,,,,,,,,,,,,,,,,,,,0,-557,Valid,signal,0,2,1271.4791618001182,0,2.0,3.6796830999664962,True,8,A,2023-09-05_14h31.50.555,exp3,2022.2.2,
,,,,,,,,,,,,,,,,,,,,,,,0,-2274,Valid,noise,0,2,1276.1191639001481,1,2.0,2.946342899929732,True,8,A,2023-09-05_14h31.50.555,exp3,2022.2.2,
,,,,,,,,,,,,,,,,,,,,,,,0,1158,Invalid,noise,0,2,1280.2954366002232,1,2.0,3.0794592001475394,True,8,A,2023-09-05_14h31.50.555,exp3,2022.2.2,
,,,,,,,,,,,,,,,,,,,,,,,0,2274,Valid,signal,0,2,1283.9444312001579,0,2.0,3.6465501999482512,True,8,A,2023-09-05_14h31.50.555,exp3,2022.2.2,
,,,,,,,,,,,,,,,,,,,,,,,0,2274,Valid,noise,0,2,1289.1603289002087,1,2.0,3.3960178000852466,True,8,A,2023-09-05_14h31.50.555,exp3,2022.2.2,
,,,,,,,,,,,,,,,,,,,,,,,0,-1716,Valid,signal,0,2,1292.8235882001463,0,2.0,2.596164399990812,True,8,A,2023-09-05_14h31.50.555,exp3,2022.2.2,
,,,,,,,,,,,,,,,,,,,,,,,0,-2274,Invalid,noise,0,2,1297.0642620001454,1,2.0,3.213092900114134,True,8,A,2023-09-05_14h31.50.555,exp3,2022.2.2,
,,,,,,,,,,,,,,,,,,,,,,,0,-1716,Invalid,noise,0,2,1300.8237882002722,1,2.0,2.8799805999733508,True,8,A,2023-09-05_14h31.50.555,exp3,2022.2.2,
,,,,,,,,,,,,,,,,,,,,,,,0,-2274,Valid,signal,0,2,1304.7915781002957,0,2.0,5.163074699928984,True,8,A,2023-09-05_14h31.50.555,exp3,2022.2.2,
,,,,,,,,,,,,,,,,,,,,,,,0,1716,Valid,signal,0,2,1313.0003599002957,0,3.0,5.88079970004037,True,8,A,2023-09-05_14h31.50.555,exp3,2022.2.2,
,,,,,,,,,,,,,,,,,,,,,,,0,1158,Valid,noise,0,2,1318.071612100117,1,3.0,3.3962562000378966,True,8,A,2023-09-05_14h31.50.555,exp3,2022.2.2,
,,,,,,,,,,,,,,,,,,,,,,,0,1716,Invalid,signal,0,2,1323.3521150001325,0,3.0,4.446913100080565,True,8,A,2023-09-05_14h31.50.555,exp3,2022.2.2,
,,,,,,,,,,,,,,,,,,,,,,,0,-1158,Valid,signal,0,1,1327.7835638001561,1,3.0,2.8964851000346243,True,8,A,2023-09-05_14h31.50.555,exp3,2022.2.2,
,,,,,,,,,,,,,,,,,,,,,,,0,1158,Valid,noise,0,2,1331.2233285002876,1,2.0,3.012731300201267,True,8,A,2023-09-05_14h31.50.555,exp3,2022.2.2,
,,,,,,,,,,,,,,,,,,,,,,,0,-1716,Valid,noise,0,2,1335.2071257003117,1,2.0,2.6458888999186456,True,8,A,2023-09-05_14h31.50.555,exp3,2022.2.2,
,,,,,,,,,,,,,,,,,,,,,,,0,1158,Valid,signal,0,1,1340.2324781003408,1,3.0,4.080243399832398,True,8,A,2023-09-05_14h31.50.555,exp3,2022.2.2,
,,,,,,,,,,,,,,,,,,,,,,,0,-1716,Valid,noise,0,2,1343.9920664001256,1,2.0,3.0299576001707464,True,8,A,2023-09-05_14h31.50.555,exp3,2022.2.2,
,,,,,,,,,,,,,,,,,,,,,,,0,1158,Valid,signal,0,1,1348.2156277003232,1,3.0,3.345622600056231,True,8,A,2023-09-05_14h31.50.555,exp3,2022.2.2,
,,,,,,,,,,,,,,,,,,,,,,,0,2274,Invalid,signal,0,2,1353.127444300335,0,2.0,3.963873199885711,True,8,A,2023-09-05_14h31.50.555,exp3,2022.2.2,
,,,,,,,,,,,,,,,,,,,,,,,0,557,Invalid,noise,0,2,1357.9591798002366,1,3.0,3.4298138001468033,True,8,A,2023-09-05_14h31.50.555,exp3,2022.2.2,
,,,,,,,,,,,,,,,,,,,,,,,0,557,Valid,noise,0,2,1362.3756879002322,1,4.0,3.4458610999863595,True,8,A,2023-09-05_14h31.50.555,exp3,2022.2.2,
,,,,,,,,,,,,,,,,,,,,,,,0,2274,Invalid,signal,0,2,1367.0481973001733,0,2.0,3.9971100001130253,True,8,A,2023-09-05_14h31.50.555,exp3,2022.2.2,
,,,,,,,,,,,,,,,,,,,,,,,0,1158,Valid,signal,0,1,1371.4643076001666,1,2.0,2.563011300051585,True,8,A,2023-09-05_14h31.50.555,exp3,2022.2.2,
,,,,,,,,,,,,,,,,,,,,,,,0,-1716,Valid,noise,0,2,1374.9190964002628,1,2.0,2.829039999982342,True,8,A,2023-09-05_14h31.50.555,exp3,2022.2.2,
,,,,,,,,,,,,,,,,,,,,,,,0,557,Invalid,signal,0,2,1378.9036377002485,0,3.0,3.1792858000844717,True,8,A,2023-09-05_14h31.50.555,exp3,2022.2.2,
,,,,,,,,,,,,,,,,,,,,,,,0,557,Valid,signal,0,1,1383.703400600236,1,2.0,3.363399799913168,True,8,A,2023-09-05_14h31.50.555,exp3,2022.2.2,
,,,,,,,,,,,,,,,,,,,,,,,0,-1716,Valid,noise,0,2,1387.351901500253,1,2.0,7.632083799922839,True,8,A,2023-09-05_14h31.50.555,exp3,2022.2.2,
,,,,,,,,,,,,,,,,,,,,,,,0,-557,Valid,signal,0,1,1396.8241872002836,1,2.0,4.396613999968395,True,8,A,2023-09-05_14h31.50.555,exp3,2022.2.2,
,,,,,,,,,,,,,,,,,,,,,,,0,-1716,Valid,noise,0,2,1401.6719329003245,1,2.0,3.562874000053853,True,8,A,2023-09-05_14h31.50.555,exp3,2022.2.2,
,,,,,,,,,,,,,,,,,,,,,,,0,1716,Valid,signal,0,1,1406.0880249002948,1,2.0,2.7294263001531363,True,8,A,2023-09-05_14h31.50.555,exp3,2022.2.2,
,,,,,,,,,,,,,,,,,,,,,,,0,557,Valid,signal,0,1,1410.5201910003088,1,2.0,3.4792250997852534,True,8,A,2023-09-05_14h31.50.555,exp3,2022.2.2,
,,,,,,,,,,,,,,,,,,,,,,,0,-557,Valid,signal,0,2,1414.3910718001425,0,2.0,2.7966030000243336,True,8,A,2023-09-05_14h31.50.555,exp3,2022.2.2,
,,,,,,,,,,,,,,,,,,,,,,,0,-1716,Valid,noise,0,2,1417.9921772002708,1,2.0,2.6464325999841094,True,8,A,2023-09-05_14h31.50.555,exp3,2022.2.2,
,,,,,,,,,,,,,,,,,,,,,,,0,1716,Valid,signal,0,1,1421.975699600298,1,2.0,3.9464869000948966,True,8,A,2023-09-05_14h31.50.555,exp3,2022.2.2,
,,,,,,,,,,,,,,,,,,,,,,,0,2274,Valid,noise,0,2,1426.9831043002196,1,2.0,3.146409699926153,True,8,A,2023-09-05_14h31.50.555,exp3,2022.2.2,
,,,,,,,,,,,,,,,,,,,,,,,0,-2274,Valid,noise,0,2,1430.871545500122,1,2.0,2.7457801999989897,True,8,A,2023-09-05_14h31.50.555,exp3,2022.2.2,
,,,,,,,,,,,,,,,,,,,,,,,0,-557,Invalid,signal,0,2,1459.3513649001252,0,2.0,27.97266610013321,True,8,A,2023-09-05_14h31.50.555,exp3,2022.2.2,
,,,,,,,,,,,,,,,,,,,,,,,0,-2274,Valid,signal,0,2,1464.2474858001806,0,3.0,3.5636285000946373,True,8,A,2023-09-05_14h31.50.555,exp3,2022.2.2,
,,,,,,,,,,,,,,,,,,,,,,,0,-557,Valid,noise,0,2,1468.0240287003107,1,3.0,2.5785244000144303,True,8,A,2023-09-05_14h31.50.555,exp3,2022.2.2,
,,,,,,,,,,,,,,,,,,,,,,,0,-557,Valid,noise,0,2,1471.4800838001538,1,3.0,2.396666099783033,True,8,A,2023-09-05_14h31.50.555,exp3,2022.2.2,
,,,,,,,,,,,,,,,,,,,,,,,0,-557,Valid,noise,0,2,1475.0157016001176,1,4.0,3.8799935998395085,True,8,A,2023-09-05_14h31.50.555,exp3,2022.2.2,
,,,,,,,,,,,,,,,,,,,,,,,0,-1158,Valid,noise,0,2,1479.7524746002164,1,3.0,2.5455506001599133,True,8,A,2023-09-05_14h31.50.555,exp3,2022.2.2,
,,,,,,,,,,,,,,,,,,,,,,,0,-1158,Valid,signal,0,1,1483.7196979001164,1,2.0,3.1962242000736296,True,8,A,2023-09-05_14h31.50.555,exp3,2022.2.2,
,,,,,,,,,,,,,,,,,,,,,,,0,1716,Valid,signal,0,1,1487.7678606002592,1,2.0,3.046115100150928,True,8,A,2023-09-05_14h31.50.555,exp3,2022.2.2,
,,,,,,,,,,,,,,,,,,,,,,,0,-1716,Valid,signal,0,2,1491.6715058002155,0,2.0,2.4792674998752773,True,8,A,2023-09-05_14h31.50.555,exp3,2022.2.2,
,,,,,,,,,,,,,,,,,,,,,,,0,-557,Invalid,signal,0,1,1495.368014600128,1,2.0,2.846521400148049,True,8,A,2023-09-05_14h31.50.555,exp3,2022.2.2,
,,,,,,,,,,,,,,,,,,,,,,,0,-1716,Valid,signal,0,1,1499.7353527001105,1,2.0,3.2793727999087423,True,8,A,2023-09-05_14h31.50.555,exp3,2022.2.2,
,,,,,,,,,,,,,,,,,,,,,,,0,2274,Valid,noise,0,2,1503.4795536003076,1,1.0,2.9293896998278797,True,8,A,2023-09-05_14h31.50.555,exp3,2022.2.2,
,,,,,,,,,,,,,,,,,,,,,,,0,1716,Valid,noise,0,2,1507.52773980028,1,2.0,3.246711099985987,True,8,A,2023-09-05_14h31.50.555,exp3,2022.2.2,
,,,,,,,,,,,,,,,,,,,,,,,0,1158,Valid,signal,0,1,1511.687980600167,1,2.0,2.763426900142804,True,8,A,2023-09-05_14h31.50.555,exp3,2022.2.2,
,,,,,,,,,,,,,,,,,,,,,,,0,557,Valid,noise,0,2,1515.1281346001197,1,2.0,2.8122791000641882,True,8,A,2023-09-05_14h31.50.555,exp3,2022.2.2,
,,,,,,,,,,,,,,,,,,,,,,,0,1716,Valid,noise,0,2,1519.30330590019,1,2.0,2.629442400066182,True,8,A,2023-09-05_14h31.50.555,exp3,2022.2.2,
,,,,,,,,,,,,,,,,,,,,,,,0,2274,Valid,signal,0,2,1522.7272203001194,0,2.0,2.6458994999993593,True,8,A,2023-09-05_14h31.50.555,exp3,2022.2.2,
,,,,,,,,,,,,,,,,,,,,,,,0,-2274,Valid,noise,0,2,1526.7115518001374,1,2.0,2.8966179999988526,True,8,A,2023-09-05_14h31.50.555,exp3,2022.2.2,
,,,,,,,,,,,,,,,,,,,,,,,0,1716,Valid,signal,0,1,1531.1274303002283,1,2.0,3.512617399916053,True,8,A,2023-09-05_14h31.50.555,exp3,2022.2.2,
,,,,,,,,,,,,,,,,,,,,,,,0,-1716,Invalid,signal,0,1,1535.479596900288,1,2.0,3.546529100043699,True,8,A,2023-09-05_14h31.50.555,exp3,2022.2.2,
,,,,,,,,,,,,,,,,,,,,,,,0,-1158,Valid,signal,0,1,1539.527710400289,1,3.0,3.329526900080964,True,8,A,2023-09-05_14h31.50.555,exp3,2022.2.2,
,,,,,,,,,,,,,,,,,,,,,,,0,-1158,Valid,noise,0,2,1544.3592456001788,1,2.0,3.4635827001184225,True,8,A,2023-09-05_14h31.50.555,exp3,2022.2.2,
,,,,,,,,,,,,,,,,,,,,,,,0,-2274,Valid,signal,0,2,1548.6152194002643,0,2.0,3.2794706001877785,True,8,A,2023-09-05_14h31.50.555,exp3,2022.2.2,
,,,,,,,,,,,,,,,,,,,,,,,0,-1158,Valid,signal,0,1,1552.567575200228,1,3.0,2.963410200085491,True,8,A,2023-09-05_14h31.50.555,exp3,2022.2.2,
,,,,,,,,,,,,,,,,,,,,,,,0,1158,Valid,signal,0,1,1556.663845800329,1,2.0,2.9460857999511063,True,8,A,2023-09-05_14h31.50.555,exp3,2022.2.2,
,,,,,,,,,,,,,,,,,,,,,,,0,557,Invalid,signal,0,1,1561.7030331001151,1,2.0,3.9295405000448227,True,8,A,2023-09-05_14h31.50.555,exp3,2022.2.2,
,,,,,,,,,,,,,,,,,,,,,,,0,1716,Valid,noise,0,2,1566.0074083001819,1,2.0,3.679527300177142,True,8,A,2023-09-05_14h31.50.555,exp3,2022.2.2,
,,,,,,,,,,,,,,,,,,,,,,,0,-557,Valid,signal,0,1,1571.896208600141,1,2.0,4.996764200041071,True,8,A,2023-09-05_14h31.50.555,exp3,2022.2.2,
,,,,,,,,,,,,,,,,,,,,,,,0,-1158,Valid,noise,0,2,1588.2636344002094,1,2.0,15.134619600139558,True,8,A,2023-09-05_14h31.50.555,exp3,2022.2.2,
,,,,,,,,,,,,,,,,,,,,,,,0,-1716,Valid,noise,0,2,1592.375892800279,1,2.0,12.732862500008196,True,8,A,2023-09-05_14h31.50.555,exp3,2022.2.2,
,,,,,,,,,,,,,,,,,,,,,,,0,1158,Valid,noise,0,2,1606.6952803002205,1,2.0,3.5466563999652863,True,8,A,2023-09-05_14h31.50.555,exp3,2022.2.2,
,,,,,,,,,,,,,,,,,,,,,,,0,557,Valid,noise,0,2,1610.4717213001568,1,2.0,2.5967287002131343,True,8,A,2023-09-05_14h31.50.555,exp3,2022.2.2,
,,,,,,,,,,,,,,,,,,,,,,,0,-2274,Valid,noise,0,2,1613.9109366002958,1,2.0,2.545452299993485,True,8,A,2023-09-05_14h31.50.555,exp3,2022.2.2,
,,,,,,,,,,,,,,,,,,,,,,,0,-1158,Valid,noise,0,2,1617.9109155002516,1,2.0,4.680230800062418,True,8,A,2023-09-05_14h31.50.555,exp3,2022.2.2,
,,,,,,,,,,,,,,,,,,,,,,,0,557,Valid,noise,0,2,1623.8471052001696,1,2.0,3.2634864000137895,True,8,A,2023-09-05_14h31.50.555,exp3,2022.2.2,
,,,,,,,,,,,,,,,,,,,,,,,0,1716,Invalid,noise,0,2,1628.535080200294,1,2.0,3.579666999867186,True,8,A,2023-09-05_14h31.50.555,exp3,2022.2.2,
,,,,,,,,,,,,,,,,,,,,,,,0,-1716,Valid,noise,0,2,1632.4396751001477,1,2.0,3.1634855000302196,True,8,A,2023-09-05_14h31.50.555,exp3,2022.2.2,
,,,,,,,,,,,,,,,,,,,,,,,0,1716,Valid,noise,0,2,1636.2470939003397,1,2.0,2.5457714998628944,True,8,A,2023-09-05_14h31.50.555,exp3,2022.2.2,
,,,,,,,,,,,,,,,,,,,,,,,0,557,Valid,noise,0,2,1639.8478079002816,1,3.0,2.8957575000822544,True,8,A,2023-09-05_14h31.50.555,exp3,2022.2.2,
,,,,,,,,,,,,,,,,,,,,,,,0,-557,Valid,signal,0,2,1644.104188500205,0,2.0,3.613524599932134,True,8,A,2023-09-05_14h31.50.555,exp3,2022.2.2,
,,,,,,,,,,,,,,,,,,,,,,,0,1716,Valid,noise,0,2,1649.9112934002187,1,2.0,4.313458099961281,True,8,A,2023-09-05_14h31.50.555,exp3,2022.2.2,
,,,,,,,,,,,,,,,,,,,,,,,0,-1716,Valid,signal,0,1,1653.9432949002367,1,2.0,3.1460509998723865,True,8,A,2023-09-05_14h31.50.555,exp3,2022.2.2,
,,,,,,,,,,,,,,,,,,,,,,,0,-557,Valid,noise,0,2,1657.6720918002538,1,2.0,3.3126646999735385,True,8,A,2023-09-05_14h31.50.555,exp3,2022.2.2,
,,,,,,,,,,,,,,,,,,,,,,,0,1158,Invalid,signal,0,1,1662.5683356001973,1,2.0,2.9295302000828087,True,8,A,2023-09-05_14h31.50.555,exp3,2022.2.2,
,,,,,,,,,,,,,,,,,,,,,,,0,1716,Valid,signal,0,2,1666.6963098002598,0,2.0,3.2299619000405073,True,8,A,2023-09-05_14h31.50.555,exp3,2022.2.2,
,,,,,,,,,,,,,,,,,,,,,,,0,-1158,Valid,signal,0,1,1670.3752538003027,1,2.0,3.046113400021568,True,8,A,2023-09-05_14h31.50.555,exp3,2022.2.2,
,,,,,,,,,,,,,,,,,,,,,,,0,557,Valid,signal,0,1,1674.424059800338,1,2.0,2.6635534001979977,True,8,A,2023-09-05_14h31.50.555,exp3,2022.2.2,
,,,,,,,,,,,,,,,,,,,,,,,0,2274,Valid,noise,0,2,1678.7755248001777,1,2.0,3.396112299989909,True,8,A,2023-09-05_14h31.50.555,exp3,2022.2.2,
,,,,,,,,,,,,,,,,,,,,,,,0,2274,Valid,noise,0,2,1682.6479305003304,1,2.0,2.828884100075811,True,8,A,2023-09-05_14h31.50.555,exp3,2022.2.2,
,,,,,,,,,,,,,,,,,,,,,,,0,557,Valid,noise,0,2,1686.3915489001665,1,3.0,2.8799170998390764,True,8,A,2023-09-05_14h31.50.555,exp3,2022.2.2,
,,,,,,,,,,,,,,,,,,,,,,,0,2274,Valid,signal,0,2,1690.2800797002856,0,2.0,2.9132568000350147,True,8,A,2023-09-05_14h31.50.555,exp3,2022.2.2,
,,,,,,,,,,,,,,,,,,,,,,,0,-1716,Valid,signal,0,1,1694.4397807002533,1,2.0,3.179223000071943,True,8,A,2023-09-05_14h31.50.555,exp3,2022.2.2,
,,,,,,,,,,,,,,,,,,,,,,,0,1158,Valid,signal,0,1,1698.45545330015,1,2.0,2.8796207001432776,True,8,A,2023-09-05_14h31.50.555,exp3,2022.2.2,
,,,,,,,,,,,,,,,,,,,,,,,0,-557,Invalid,noise,0,2,1702.2789438001346,1,3.0,3.146442700177431,True,8,A,2023-09-05_14h31.50.555,exp3,2022.2.2,
,,,,,,,,,,,,,,,,,,,,,,,0,1158,Invalid,noise,0,2,1706.4069471003022,1,2.0,3.3630108998622745,True,8,A,2023-09-05_14h31.50.555,exp3,2022.2.2,
,,,,,,,,,,,,,,,,,,,,,,,0,1716,Valid,noise,0,2,1711.1598967001773,1,2.0,3.012743999948725,True,8,A,2023-09-05_14h31.50.555,exp3,2022.2.2,
,,,,,,,,,,,,,,,,,,,,,,,0,-1158,Valid,signal,0,1,1714.871104700258,1,2.0,2.579705199925229,True,8,A,2023-09-05_14h31.50.555,exp3,2022.2.2,
,,,,,,,,,,,,,,,,,,,,,,,0,557,Valid,signal,0,1,1718.375220300164,1,2.0,2.5625579999759793,True,8,A,2023-09-05_14h31.50.555,exp3,2022.2.2,
,,,,,,,,,,,,,,,,,,,,,,,0,-2274,Valid,noise,0,2,1721.7514532001223,1,2.0,2.5298772999085486,True,8,A,2023-09-05_14h31.50.555,exp3,2022.2.2,
,,,,,,,,,,,,,,,,,,,,,,,0,-2274,Valid,noise,0,2,1725.2561312001199,1,2.0,2.396137800067663,True,8,A,2023-09-05_14h31.50.555,exp3,2022.2.2,
,,,,,,,,,,,,,,,,,,,,,,,0,-557,Valid,signal,0,2,1728.8237132001668,0,2.0,2.8127188000362366,True,8,A,2023-09-05_14h31.50.555,exp3,2022.2.2,
,,,,,,,,,,,,,,,,,,,,,,,0,2274,Valid,signal,0,2,1732.983139600139,0,2.0,18.885783299803734,True,8,A,2023-09-05_14h31.50.555,exp3,2022.2.2,
,,,,,,,,,,,,,,,,,,,,,,,0,1716,Valid,noise,0,2,1754.023751300294,1,2.0,4.2466049999929965,True,8,A,2023-09-05_14h31.50.555,exp3,2022.2.2,
,,,,,,,,,,,,,,,,,,,,,,,0,-557,Valid,signal,0,1,1757.8470891001634,1,2.0,2.646171900210902,True,8,A,2023-09-05_14h31.50.555,exp3,2022.2.2,
,,,,,,,,,,,,,,,,,,,,,,,0,-2274,Invalid,noise,0,2,1761.7043169001117,1,2.0,2.9796440999489278,True,8,A,2023-09-05_14h31.50.555,exp3,2022.2.2,
,,,,,,,,,,,,,,,,,,,,,,,0,1716,Valid,noise,0,2,1765.4628977002576,1,2.0,2.8126729000359774,True,8,A,2023-09-05_14h31.50.555,exp3,2022.2.2,
,,,,,,,,,,,,,,,,,,,,,,,0,557,Invalid,noise,0,2,1769.400318800239,1,2.0,2.979435400106013,True,8,A,2023-09-05_14h31.50.555,exp3,2022.2.2,
,,,,,,,,,,,,,,,,,,,,,,,0,-557,Valid,noise,0,2,1773.0954576001968,1,3.0,2.6626653999555856,True,8,A,2023-09-05_14h31.50.555,exp3,2022.2.2,
,,,,,,,,,,,,,,,,,,,,,,,0,-1158,Valid,signal,0,2,1777.4156837002374,0,2.0,3.7968411999754608,True,8,A,2023-09-05_14h31.50.555,exp3,2022.2.2,
,,,,,,,,,,,,,,,,,,,,,,,0,557,Valid,signal,0,1,1781.735975800315,1,2.0,2.9798729999456555,True,8,A,2023-09-05_14h31.50.555,exp3,2022.2.2,
,,,,,,,,,,,,,,,,,,,,,,,0,-1158,Valid,noise,0,2,1785.431424600305,1,2.0,2.2629289999604225,True,8,A,2023-09-05_14h31.50.555,exp3,2022.2.2,
,,,,,,,,,,,,,,,,,,,,,,,0,1158,Valid,signal,0,1,1788.776081000222,1,2.0,2.44561169994995,True,8,A,2023-09-05_14h31.50.555,exp3,2022.2.2,
,,,,,,,,,,,,,,,,,,,,,,,0,-1158,Valid,signal,0,1,1792.4077526002657,1,2.0,2.462860699975863,True,8,A,2023-09-05_14h31.50.555,exp3,2022.2.2,
,,,,,,,,,,,,,,,,,,,,,,,0,557,Valid,signal,0,1,1796.0241022002883,1,2.0,2.6625792998820543,True,8,A,2023-09-05_14h31.50.555,exp3,2022.2.2,
,,,,,,,,,,,,,,,,,,,,,,,0,-2274,Invalid,signal,0,2,1800.2159338002093,0,2.0,3.146900999825448,True,8,A,2023-09-05_14h31.50.555,exp3,2022.2.2,
,,,,,,,,,,,,,,,,,,,,,,,0,1158,Valid,noise,0,2,1805.319185100263,1,2.0,9.999098700005561,True,8,A,2023-09-05_14h31.50.555,exp3,2022.2.2,
,,,,,,,,,,,,,,,,,,,,,,,0,557,Valid,signal,0,1,1815.5761515002232,1,2.0,3.979459600057453,True,8,A,2023-09-05_14h31.50.555,exp3,2022.2.2,
,,,,,,,,,,,,,,,,,,,,,,,0,2274,Invalid,noise,0,2,1820.0231297002174,1,2.0,2.896158599993214,True,8,A,2023-09-05_14h31.50.555,exp3,2022.2.2,
,,,,,,,,,,,,,,,,,,,,,,,0,-2274,Valid,signal,0,2,1823.927668100223,0,2.0,2.996126100188121,True,8,A,2023-09-05_14h31.50.555,exp3,2022.2.2,
,,,,,,,,,,,,,,,,,,,,,,,0,-557,Valid,noise,0,2,1827.7037857002579,1,3.0,2.8962288999464363,True,8,A,2023-09-05_14h31.50.555,exp3,2022.2.2,
,,,,,,,,,,,,,,,,,,,,,,,0,-2274,Valid,signal,0,2,1831.4315205002204,0,2.0,3.0302424000110477,True,8,A,2023-09-05_14h31.50.555,exp3,2022.2.2,
,,,,,,,,,,,,,,,,,,,,,,,0,-1158,Invalid,noise,0,2,1835.7680257002357,1,2.0,2.779391400050372,True,8,A,2023-09-05_14h31.50.555,exp3,2022.2.2,
,,,,,,,,,,,,,,,,,,,,,,,0,-2274,Valid,signal,0,2,1840.5194052001461,0,2.0,4.0458519998937845,True,8,A,2023-09-05_14h31.50.555,exp3,2022.2.2,
,,,,,,,,,,,,,,,,,,,,,,,0,1158,Valid,noise,0,2,1844.3282115003094,1,2.0,36.27623560000211,True,8,A,2023-09-05_14h31.50.555,exp3,2022.2.2,
,,,,,,,,,,,,,,,,,,,,,,,0,1716,Valid,signal,0,2,1882.0081367001403,0,2.0,3.09666799986735,True,8,A,2023-09-05_14h31.50.555,exp3,2022.2.2,
,,,,,,,,,,,,,,,,,,,,,,,0,2274,Valid,signal,0,2,1885.5441441002768,0,2.0,2.3788190002087504,True,8,A,2023-09-05_14h31.50.555,exp3,2022.2.2,
,,,,,,,,,,,,,,,,,,,,,,,0,-2274,Valid,signal,0,2,1888.9675813002978,0,2.0,2.7799688999075443,True,8,A,2023-09-05_14h31.50.555,exp3,2022.2.2,
,,,,,,,,,,,,,,,,,,,,,,,0,-2274,Invalid,signal,0,2,1893.1913660003338,0,2.0,2.9962229998782277,True,8,A,2023-09-05_14h31.50.555,exp3,2022.2.2,
,,,,,,,,,,,,,,,,,,,,,,,0,-1716,Valid,signal,0,2,1896.8074416001327,0,2.0,2.6126629998907447,True,8,A,2023-09-05_14h31.50.555,exp3,2022.2.2,
,,,,,,,,,,,,,,,,,,,,,,,0,557,Valid,signal,0,1,1900.6321552002337,1,2.0,2.7789430001284927,True,8,A,2023-09-05_14h31.50.555,exp3,2022.2.2,
,,,,,,,,,,,,,,,,,,,,,,,0,1158,Valid,noise,0,2,1904.807802800322,1,2.0,3.880196199985221,True,8,A,2023-09-05_14h31.50.555,exp3,2022.2.2,
,,,,,,,,,,,,,,,,,,,,,,,0,-557,Valid,signal,0,1,1909.5114157001954,1,2.0,3.0129587000701576,True,8,A,2023-09-05_14h31.50.555,exp3,2022.2.2,
,,,,,,,,,,,,,,,,,,,,,,,1,-557,Valid,noise,0,2,2051.5269267002586,1,3.0,8.685673099942505,True,8,A,2023-09-05_14h31.50.555,exp3,2022.2.2,
,,,,,,,,,,,,,,,,,,,,,,,2,1158,Valid,signal,0,2,2061.160035800189,0,2.0,4.7640096000395715,True,8,A,2023-09-05_14h31.50.555,exp3,2022.2.2,
,,,,,,,,,,,,,,,,,,,,,,,3,-1716,Valid,noise,0,2,2066.2471331001725,1,2.0,3.412763699889183,True,8,A,2023-09-05_14h31.50.555,exp3,2022.2.2,
,,,,,,,,,,,,,,,,,,,,,,,4,-1716,Valid,signal,0,2,2070.1514053002466,0,2.0,2.762691500131041,True,8,A,2023-09-05_14h31.50.555,exp3,2022.2.2,
,,,,,,,,,,,,,,,,,,,,,,,5,-1716,Valid,signal,0,2,2074.8709709001705,0,3.0,3.54709090013057,True,8,A,2023-09-05_14h31.50.555,exp3,2022.2.2,
,,,,,,,,,,,,,,,,,,,,,,,6,-557,Valid,signal,0,2,2078.7107520003337,0,2.0,3.2125775997992605,True,8,A,2023-09-05_14h31.50.555,exp3,2022.2.2,
,,,,,,,,,,,,,,,,,,,,,,,7,-1158,Valid,noise,0,2,2082.807918400271,1,2.0,2.846186300041154,True,8,A,2023-09-05_14h31.50.555,exp3,2022.2.2,
,,,,,,,,,,,,,,,,,,,,,,,8,-1716,Valid,noise,0,2,2086.519786800258,1,2.0,2.6297224001027644,True,8,A,2023-09-05_14h31.50.555,exp3,2022.2.2,
,,,,,,,,,,,,,,,,,,,,,,,9,-557,Valid,noise,0,2,2090.1994666003156,1,3.0,2.5287639000453055,True,8,A,2023-09-05_14h31.50.555,exp3,2022.2.2,
,,,,,,,,,,,,,,,,,,,,,,,10,1158,Valid,signal,0,1,2094.0876760003157,1,2.0,3.1463837001938373,True,8,A,2023-09-05_14h31.50.555,exp3,2022.2.2,
,,,,,,,,,,,,,,,,,,,,,,,11,-1716,Valid,signal,0,2,2099.4953148001805,0,2.0,4.697207499993965,True,8,A,2023-09-05_14h31.50.555,exp3,2022.2.2,
,,,,,,,,,,,,,,,,,,,,,,,12,-1158,Valid,signal,0,1,2107.8309374002274,1,2.0,6.813812399981543,True,8,A,2023-09-05_14h31.50.555,exp3,2022.2.2,
,,,,,,,,,,,,,,,,,,,,,,,13,1158,Invalid,noise,0,2,2113.6712406002916,1,1.0,5.664212899981067,True,8,A,2023-09-05_14h31.50.555,exp3,2022.2.2,
,,,,,,,,,,,,,,,,,,,,,,,14,-2274,Invalid,noise,0,2,2118.4870172003284,1,2.0,3.462957200128585,True,8,A,2023-09-05_14h31.50.555,exp3,2022.2.2,
,,,,,,,,,,,,,,,,,,,,,,,15,1716,Valid,signal,0,1,2123.111680800328,1,1.0,3.5796757000498474,True,8,A,2023-09-05_14h31.50.555,exp3,2022.2.2,
,,,,,,,,,,,,,,,,,,,,,,,16,2274,Valid,noise,0,2,2127.511160600232,1,2.0,2.879830199992284,True,8,A,2023-09-05_14h31.50.555,exp3,2022.2.2,
,,,,,,,,,,,,,,,,,,,,,,,17,-557,Valid,noise,0,2,2131.1759913002606,1,3.0,2.779197300085798,True,8,A,2023-09-05_14h31.50.555,exp3,2022.2.2,
,,,,,,,,,,,,,,,,,,,,,,,18,1716,Valid,signal,0,1,2135.0470692003146,1,2.0,2.8631943999789655,True,8,A,2023-09-05_14h31.50.555,exp3,2022.2.2,
,,,,,,,,,,,,,,,,,,,,,,,19,1716,Valid,noise,0,1,2138.7912802002393,0,2.0,2.5629984999541193,True,8,A,2023-09-05_14h31.50.555,exp3,2022.2.2,
,,,,,,,,,,,,,,,,,,,,,,,20,1716,Valid,signal,0,1,2142.2153973001987,1,2.0,2.529384900117293,True,8,A,2023-09-05_14h31.50.555,exp3,2022.2.2,
,,,,,,,,,,,,,,,,,,,,,,,21,-557,Valid,noise,0,2,2145.78357220022,1,3.0,3.163254299899563,True,8,A,2023-09-05_14h31.50.555,exp3,2022.2.2,
,,,,,,,,,,,,,,,,,,,,,,,22,557,Valid,signal,0,1,2149.9276004002895,1,2.0,3.1963337999768555,True,8,A,2023-09-05_14h31.50.555,exp3,2022.2.2,
,,,,,,,,,,,,,,,,,,,,,,,23,557,Valid,signal,0,1,2155.3034313002136,1,3.0,5.480076399864629,True,8,A,2023-09-05_14h31.50.555,exp3,2022.2.2,
,,,,,,,,,,,,,,,,,,,,,,,24,-1158,Valid,signal,0,1,2160.999784400221,1,2.0,3.1126370998099446,True,8,A,2023-09-05_14h31.50.555,exp3,2022.2.2,
,,,,,,,,,,,,,,,,,,,,,,,25,-2274,Valid,signal,0,2,2164.950786500238,0,2.0,2.747062699869275,True,8,A,2023-09-05_14h31.50.555,exp3,2022.2.2,
,,,,,,,,,,,,,,,,,,,,,,,26,-557,Valid,noise,0,2,2168.567906900309,1,2.0,2.4955745998304337,True,8,A,2023-09-05_14h31.50.555,exp3,2022.2.2,
,,,,,,,,,,,,,,,,,,,,,,,27,-1716,Valid,noise,0,2,2172.039307300234,1,2.0,2.612746500177309,True,8,A,2023-09-05_14h31.50.555,exp3,2022.2.2,
,,,,,,,,,,,,,,,,,,,,,,,28,2274,Valid,signal,0,2,2175.799247600138,0,2.0,2.6793388999067247,True,8,A,2023-09-05_14h31.50.555,exp3,2022.2.2,
,,,,,,,,,,,,,,,,,,,,,,,29,-1716,Valid,signal,0,2,2179.543878100114,0,2.0,2.7458753001410514,True,8,A,2023-09-05_14h31.50.555,exp3,2022.2.2,
,,,,,,,,,,,,,,,,,,,,,,,30,2274,Invalid,signal,0,2,2183.624041300267,0,2.0,2.996320400154218,True,8,A,2023-09-05_14h31.50.555,exp3,2022.2.2,
,,,,,,,,,,,,,,,,,,,,,,,31,-557,Invalid,signal,0,1,2187.1760901003145,1,3.0,4.21329650003463,True,8,A,2023-09-05_14h31.50.555,exp3,2022.2.2,
,,,,,,,,,,,,,,,,,,,,,,,32,-1716,Valid,noise,0,2,2193.4476798002142,1,2.0,3.7632853998802602,True,8,A,2023-09-05_14h31.50.555,exp3,2022.2.2,
,,,,,,,,,,,,,,,,,,,,,,,33,1158,Valid,noise,0,2,2198.8067930003162,1,2.0,4.497266799909994,True,8,A,2023-09-05_14h31.50.555,exp3,2022.2.2,
,,,,,,,,,,,,,,,,,,,,,,,34,-2274,Valid,signal,0,2,2202.4875420001335,0,2.0,2.64597039995715,True,8,A,2023-09-05_14h31.50.555,exp3,2022.2.2,
,,,,,,,,,,,,,,,,,,,,,,,35,-2274,Valid,signal,0,2,2206.4719768001232,0,2.0,2.72913600015454,True,8,A,2023-09-05_14h31.50.555,exp3,2022.2.2,
,,,,,,,,,,,,,,,,,,,,,,,36,2274,Valid,noise,0,2,2210.310654300265,1,2.0,2.6793696000240743,True,8,A,2023-09-05_14h31.50.555,exp3,2022.2.2,
,,,,,,,,,,,,,,,,,,,,,,,37,-557,Valid,noise,0,2,2214.214905500179,1,2.0,3.413311199983582,True,8,A,2023-09-05_14h31.50.555,exp3,2022.2.2,
,,,,,,,,,,,,,,,,,,,,,,,38,-1158,Valid,signal,0,1,2218.0879335002974,1,2.0,3.3464196999557316,True,8,A,2023-09-05_14h31.50.555,exp3,2022.2.2,
,,,,,,,,,,,,,,,,,,,,,,,39,2274,Valid,noise,0,2,2222.311509700259,1,2.0,2.4126574001275003,True,8,A,2023-09-05_14h31.50.555,exp3,2022.2.2,
,,,,,,,,,,,,,,,,,,,,,,,40,-2274,Valid,noise,0,2,2225.863432600163,1,2.0,2.545947799924761,True,8,A,2023-09-05_14h31.50.555,exp3,2022.2.2,
,,,,,,,,,,,,,,,,,,,,,,,41,1158,Valid,noise,0,2,2229.2713214003015,1,2.0,2.3462886000052094,True,8,A,2023-09-05_14h31.50.555,exp3,2022.2.2,
,,,,,,,,,,,,,,,,,,,,,,,42,2274,Invalid,signal,0,2,2233.4628316003364,0,2.0,12.299262800021097,True,8,A,2023-09-05_14h31.50.555,exp3,2022.2.2,
,,,,,,,,,,,,,,,,,,,,,,,43,557,Valid,noise,0,2,2257.3829315002076,1,2.0,14.81745329988189,True,8,A,2023-09-05_14h31.50.555,exp3,2022.2.2,
,,,,,,,,,,,,,,,,,,,,,,,44,1158,Valid,noise,0,2,2262.0071498001926,1,2.0,2.8469171999022365,True,8,A,2023-09-05_14h31.50.555,exp3,2022.2.2,
,,,,,,,,,,,,,,,,,,,,,,,45,-1716,Valid,noise,0,2,2265.6706222002394,1,2.0,2.579240599879995,True,8,A,2023-09-05_14h31.50.555,exp3,2022.2.2,
,,,,,,,,,,,,,,,,,,,,,,,46,-1158,Invalid,signal,0,1,2269.638621600112,1,2.0,3.312934699933976,True,8,A,2023-09-05_14h31.50.555,exp3,2022.2.2,
,,,,,,,,,,,,,,,,,,,,,,,47,1716,Invalid,signal,0,2,2274.0709886001423,0,2.0,24.0711640000809,True,8,A,2023-09-05_14h31.50.555,exp3,2022.2.2,
,,,,,,,,,,,,,,,,,,,,,,,48,1158,Valid,noise,0,2,2298.7117530002724,1,2.0,2.8128078998997808,True,8,A,2023-09-05_14h31.50.555,exp3,2022.2.2,
,,,,,,,,,,,,,,,,,,,,,,,49,2274,Valid,noise,0,2,2302.67919440032,1,2.0,13.217448000097647,True,8,A,2023-09-05_14h31.50.555,exp3,2022.2.2,
,,,,,,,,,,,,,,,,,,,,,,,50,-2274,Valid,noise,0,2,2317.0631072001997,1,2.0,2.7789139000233263,True,8,A,2023-09-05_14h31.50.555,exp3,2022.2.2,
,,,,,,,,,,,,,,,,,,,,,,,51,1158,Valid,signal,0,1,2320.631964100292,1,3.0,3.61323200003244,True,8,A,2023-09-05_14h31.50.555,exp3,2022.2.2,
,,,,,,,,,,,,,,,,,,,,,,,52,2274,Valid,signal,0,2,2325.1754114001524,0,2.0,2.796280800132081,True,8,A,2023-09-05_14h31.50.555,exp3,2022.2.2,
,,,,,,,,,,,,,,,,,,,,,,,53,-2274,Valid,noise,0,2,2329.0158039003145,1,2.0,2.6790119998622686,True,8,A,2023-09-05_14h31.50.555,exp3,2022.2.2,
,,,,,,,,,,,,,,,,,,,,,,,54,1158,Valid,signal,0,1,2332.822831200203,1,2.0,3.396762500051409,True,8,A,2023-09-05_14h31.50.555,exp3,2022.2.2,
,,,,,,,,,,,,,,,,,,,,,,,55,557,Invalid,signal,0,1,2337.6874246001244,1,2.0,3.6472040000371635,True,8,A,2023-09-05_14h31.50.555,exp3,2022.2.2,
,,,,,,,,,,,,,,,,,,,,,,,56,-1716,Invalid,signal,0,2,2341.878533700248,0,2.0,2.6957627998199314,True,8,A,2023-09-05_14h31.50.555,exp3,2022.2.2,
,,,,,,,,,,,,,,,,,,,,,,,57,-1716,Valid,signal,0,2,2345.3359989002347,0,2.0,2.3625581001397222,True,8,A,2023-09-05_14h31.50.555,exp3,2022.2.2,
,,,,,,,,,,,,,,,,,,,,,,,58,-2274,Valid,signal,0,2,2348.567193400115,0,2.0,2.512568600010127,True,8,A,2023-09-05_14h31.50.555,exp3,2022.2.2,
,,,,,,,,,,,,,,,,,,,,,,,59,557,Valid,noise,0,2,2352.3270513003226,1,2.0,2.8798473000060767,True,8,A,2023-09-05_14h31.50.555,exp3,2022.2.2,
,,,,,,,,,,,,,,,,,,,,,,,60,1158,Invalid,signal,0,1,2356.1986937001348,1,2.0,4.963475099997595,True,8,A,2023-09-05_14h31.50.555,exp3,2022.2.2,
,,,,,,,,,,,,,,,,,,,,,,,61,-2274,Valid,noise,0,2,2362.6792645002715,1,2.0,3.180511899990961,True,8,A,2023-09-05_14h31.50.555,exp3,2022.2.2,
,,,,,,,,,,,,,,,,,,,,,,,62,-1716,Valid,noise,0,2,2366.518679300323,1,2.0,2.6122914000879973,True,8,A,2023-09-05_14h31.50.555,exp3,2022.2.2,
,,,,,,,,,,,,,,,,,,,,,,,63,-1158,Valid,noise,0,2,2369.8949554001447,1,2.0,2.4631510998588055,True,8,A,2023-09-05_14h31.50.555,exp3,2022.2.2,
,,,,,,,,,,,,,,,,,,,,,,,64,-1716,Valid,signal,0,2,2373.51172470022,0,2.0,2.6787777999415994,True,8,A,2023-09-05_14h31.50.555,exp3,2022.2.2,
,,,,,,,,,,,,,,,,,,,,,,,65,1716,Invalid,noise,0,2,2379.60733470018,1,2.0,5.1975323997903615,True,8,A,2023-09-05_14h31.50.555,exp3,2022.2.2,
,,,,,,,,,,,,,,,,,,,,,,,66,-1158,Valid,noise,0,2,2383.9754501001444,1,2.0,3.4963655001483858,True,8,A,2023-09-05_14h31.50.555,exp3,2022.2.2,
,,,,,,,,,,,,,,,,,,,,,,,67,2274,Valid,signal,0,2,2387.7514822001103,0,2.0,2.4956292998977005,True,8,A,2023-09-05_14h31.50.555,exp3,2022.2.2,
,,,,,,,,,,,,,,,,,,,,,,,68,-1716,Valid,noise,0,2,2391.223429000238,1,2.0,2.563229199964553,True,8,A,2023-09-05_14h31.50.555,exp3,2022.2.2,
,,,,,,,,,,,,,,,,,,,,,,,69,2274,Valid,signal,0,2,2395.399013500195,0,2.0,3.4294982999563217,True,8,A,2023-09-05_14h31.50.555,exp3,2022.2.2,
,,,,,,,,,,,,,,,,,,,,,,,70,2274,Valid,noise,0,2,2399.3668572001625,1,2.0,2.446614900138229,True,8,A,2023-09-05_14h31.50.555,exp3,2022.2.2,
,,,,,,,,,,,,,,,,,,,,,,,71,1158,Invalid,signal,0,1,2403.479430500185,1,3.0,4.3296856000088155,True,8,A,2023-09-05_14h31.50.555,exp3,2022.2.2,
,,,,,,,,,,,,,,,,,,,,,,,72,557,Valid,noise,0,2,2408.407215700252,1,3.0,2.962744699791074,True,8,A,2023-09-05_14h31.50.555,exp3,2022.2.2,
,,,,,,,,,,,,,,,,,,,,,,,73,-2274,Invalid,signal,0,2,2412.4075312002096,0,2.0,2.962790099903941,True,8,A,2023-09-05_14h31.50.555,exp3,2022.2.2,
,,,,,,,,,,,,,,,,,,,,,,,74,-2274,Valid,signal,0,2,2416.3109763001557,0,3.0,2.76314439997077,True,8,A,2023-09-05_14h31.50.555,exp3,2022.2.2,
,,,,,,,,,,,,,,,,,,,,,,,75,-1716,Invalid,noise,0,2,2420.2785407002084,1,2.0,3.0632427998352796,True,8,A,2023-09-05_14h31.50.555,exp3,2022.2.2,
,,,,,,,,,,,,,,,,,,,,,,,76,1716,Valid,noise,0,2,2423.975065600127,1,2.0,2.47953819995746,True,8,A,2023-09-05_14h31.50.555,exp3,2022.2.2,
,,,,,,,,,,,,,,,,,,,,,,,77,1716,Invalid,noise,0,2,2427.8149537001736,1,2.0,2.8121776999905705,True,8,A,2023-09-05_14h31.50.555,exp3,2022.2.2,
,,,,,,,,,,,,,,,,,,,,,,,78,557,Valid,noise,0,2,2431.3510288002435,1,3.0,2.746950500179082,True,8,A,2023-09-05_14h31.50.555,exp3,2022.2.2,
,,,,,,,,,,,,,,,,,,,,,,,79,-557,Valid,signal,0,1,2435.702769400319,1,2.0,3.2790067999158055,True,8,A,2023-09-05_14h31.50.555,exp3,2022.2.2,
,,,,,,,,,,,,,,,,,,,,,,,80,1716,Valid,noise,0,2,2439.3665267003234,1,3.0,2.8463230999186635,True,8,A,2023-09-05_14h31.50.555,exp3,2022.2.2,
,,,,,,,,,,,,,,,,,,,,,,,81,557,Valid,noise,0,2,2443.25463210023,1,4.0,3.246177699882537,True,8,A,2023-09-05_14h31.50.555,exp3,2022.2.2,
,,,,,,,,,,,,,,,,,,,,,,,82,1158,Valid,noise,0,2,2447.543649100233,1,3.0,2.9795013000257313,True,8,A,2023-09-05_14h31.50.555,exp3,2022.2.2,
,,,,,,,,,,,,,,,,,,,,,,,83,557,Valid,signal,0,1,2451.3192850002088,1,3.0,2.5461486000567675,True,8,A,2023-09-05_14h31.50.555,exp3,2022.2.2,
,,,,,,,,,,,,,,,,,,,,,,,84,-1716,Valid,signal,0,2,2455.3354100002907,0,2.0,3.1297385999932885,True,8,A,2023-09-05_14h31.50.555,exp3,2022.2.2,
,,,,,,,,,,,,,,,,,,,,,,,85,1716,Valid,signal,0,2,2460.983670800226,0,2.0,11.599182300036773,True,8,A,2023-09-05_14h31.50.555,exp3,2022.2.2,
,,,,,,,,,,,,,,,,,,,,,,,86,-1158,Valid,noise,0,2,2472.119343600236,1,2.0,3.180093700066209,True,8,A,2023-09-05_14h31.50.555,exp3,2022.2.2,
,,,,,,,,,,,,,,,,,,,,,,,87,1716,Valid,noise,0,2,2475.7518590001855,1,2.0,2.379155700094998,True,8,A,2023-09-05_14h31.50.555,exp3,2022.2.2,
,,,,,,,,,,,,,,,,,,,,,,,88,-557,Invalid,signal,0,1,2479.4628324001096,1,2.0,2.6467336998321116,True,8,A,2023-09-05_14h31.50.555,exp3,2022.2.2,
,,,,,,,,,,,,,,,,,,,,,,,89,-1158,Valid,noise,0,2,2483.0149405002594,1,3.0,3.3796982001513243,True,8,A,2023-09-05_14h31.50.555,exp3,2022.2.2,
,,,,,,,,,,,,,,,,,,,,,,,90,-557,Invalid,noise,0,2,2487.414754200261,1,2.0,2.729571199975908,True,8,A,2023-09-05_14h31.50.555,exp3,2022.2.2,
,,,,,,,,,,,,,,,,,,,,,,,91,-557,Valid,noise,0,2,2490.967542900238,1,3.0,3.2790707999374717,True,8,A,2023-09-05_14h31.50.555,exp3,2022.2.2,
,,,,,,,,,,,,,,,,,,,,,,,92,-1716,Invalid,noise,0,2,2495.574845700292,1,2.0,3.296761700185016,True,8,A,2023-09-05_14h31.50.555,exp3,2022.2.2,
,,,,,,,,,,,,,,,,,,,,,,,93,-2274,Valid,signal,0,2,2499.8946511002723,0,2.0,4.14667689986527,True,8,A,2023-09-05_14h31.50.555,exp3,2022.2.2,
,,,,,,,,,,,,,,,,,,,,,,,94,-2274,Valid,noise,0,2,2505.238777600229,1,3.0,3.480067600030452,True,8,A,2023-09-05_14h31.50.555,exp3,2022.2.2,
,,,,,,,,,,,,,,,,,,,,,,,95,557,Valid,signal,0,1,2510.2310265002307,1,2.0,4.330197199946269,True,8,A,2023-09-05_14h31.50.555,exp3,2022.2.2,
,,,,,,,,,,,,,,,,,,,,,,,96,-2274,Invalid,noise,0,2,2515.110814000247,1,2.0,3.1300598001107574,True,8,A,2023-09-05_14h31.50.555,exp3,2022.2.2,
,,,,,,,,,,,,,,,,,,,,,,,97,-1158,Invalid,noise,0,2,2518.7276655002497,1,2.0,2.578803800046444,True,8,A,2023-09-05_14h31.50.555,exp3,2022.2.2,
,,,,,,,,,,,,,,,,,,,,,,,98,1158,Valid,noise,0,2,2522.3435093001463,1,2.0,2.6462530998978764,True,8,A,2023-09-05_14h31.50.555,exp3,2022.2.2,
,,,,,,,,,,,,,,,,,,,,,,,99,-1158,Invalid,signal,0,1,2526.038618600229,1,2.0,2.7298906000796705,True,8,A,2023-09-05_14h31.50.555,exp3,2022.2.2,
,,,,,,,,,,,,,,,,,,,,,,,100,-1158,Valid,signal,0,1,2529.7988611003384,1,3.0,2.7791455001570284,True,8,A,2023-09-05_14h31.50.555,exp3,2022.2.2,
,,,,,,,,,,,,,,,,,,,,,,,101,1716,Invalid,signal,0,1,2533.703869800316,1,2.0,2.9297788999974728,True,8,A,2023-09-05_14h31.50.555,exp3,2022.2.2,
,,,,,,,,,,,,,,,,,,,,,,,102,2274,Invalid,noise,0,2,2538.4546714001335,1,1.0,3.779940400039777,True,8,A,2023-09-05_14h31.50.555,exp3,2022.2.2,
,,,,,,,,,,,,,,,,,,,,,,,103,-2274,Valid,noise,0,2,2542.967658100184,1,2.0,3.929952000034973,True,8,A,2023-09-05_14h31.50.555,exp3,2022.2.2,
,,,,,,,,,,,,,,,,,,,,,,,104,557,Invalid,signal,0,1,2547.638519700151,1,3.0,3.529842299874872,True,8,A,2023-09-05_14h31.50.555,exp3,2022.2.2,
,,,,,,,,,,,,,,,,,,,,,,,105,-2274,Valid,noise,0,2,2551.751060000155,1,2.0,3.396107600070536,True,8,A,2023-09-05_14h31.50.555,exp3,2022.2.2,
,,,,,,,,,,,,,,,,,,,,,,,106,-557,Valid,noise,0,2,2556.086910100188,1,3.0,3.27976129995659,True,8,A,2023-09-05_14h31.50.555,exp3,2022.2.2,
,,,,,,,,,,,,,,,,,,,,,,,107,1158,Valid,signal,0,2,2561.207881500246,0,2.0,3.4461848000064492,True,8,A,2023-09-05_14h31.50.555,exp3,2022.2.2,
,,,,,,,,,,,,,,,,,,,,,,,108,-2274,Valid,noise,0,2,2564.758567100158,1,2.0,2.4627266998868436,True,8,A,2023-09-05_14h31.50.555,exp3,2022.2.2,
,,,,,,,,,,,,,,,,,,,,,,,109,-2274,Valid,signal,0,2,2568.2151603002567,0,3.0,2.745608000084758,True,8,A,2023-09-05_14h31.50.555,exp3,2022.2.2,
,,,,,,,,,,,,,,,,,,,,,,,110,-557,Valid,signal,0,1,2572.1676130001433,1,2.0,3.4632265002001077,True,8,A,2023-09-05_14h31.50.555,exp3,2022.2.2,
,,,,,,,,,,,,,,,,,,,,,,,111,2274,Valid,signal,0,1,2576.7106527001597,1,2.0,3.7799863000400364,True,8,A,2023-09-05_14h31.50.555,exp3,2022.2.2,
,,,,,,,,,,,,,,,,,,,,,,,112,1716,Valid,signal,0,1,2581.8148719002493,1,2.0,3.5465243000071496,True,8,A,2023-09-05_14h31.50.555,exp3,2022.2.2,
,,,,,,,,,,,,,,,,,,,,,,,113,2274,Valid,noise,0,2,2586.599339700304,1,2.0,4.180039300117642,True,8,A,2023-09-05_14h31.50.555,exp3,2022.2.2,
,,,,,,,,,,,,,,,,,,,,,,,114,-1158,Valid,noise,0,2,2590.9353213002905,1,2.0,2.4126438999082893,True,8,A,2023-09-05_14h31.50.555,exp3,2022.2.2,
,,,,,,,,,,,,,,,,,,,,,,,115,-557,Valid,noise,0,2,2594.231436900329,1,3.0,3.1130912001244724,True,8,A,2023-09-05_14h31.50.555,exp3,2022.2.2,
,,,,,,,,,,,,,,,,,,,,,,,116,-1158,Invalid,noise,0,2,2599.143602500204,1,2.0,3.463014499982819,True,8,A,2023-09-05_14h31.50.555,exp3,2022.2.2,
,,,,,,,,,,,,,,,,,,,,,,,117,-557,Valid,signal,0,1,2603.0149443002883,1,2.0,2.612928899936378,True,8,A,2023-09-05_14h31.50.555,exp3,2022.2.2,
,,,,,,,,,,,,,,,,,,,,,,,118,-1716,Valid,noise,0,2,2606.695529000135,1,2.0,2.546121000079438,True,8,A,2023-09-05_14h31.50.555,exp3,2022.2.2,
,,,,,,,,,,,,,,,,,,,,,,,119,2274,Valid,signal,0,2,2610.2788927003276,0,2.0,2.6460120000410825,True,8,A,2023-09-05_14h31.50.555,exp3,2022.2.2,
,,,,,,,,,,,,,,,,,,,,,,,120,557,Valid,signal,0,1,2613.8312638001516,1,2.0,2.4962269999086857,True,8,A,2023-09-05_14h31.50.555,exp3,2022.2.2,
,,,,,,,,,,,,,,,,,,,,,,,121,-557,Valid,signal,0,1,2617.27051650011,1,2.0,2.3793347999453545,True,8,A,2023-09-05_14h31.50.555,exp3,2022.2.2,
,,,,,,,,,,,,,,,,,,,,,,,122,1716,Valid,signal,0,1,2620.839612000156,1,2.0,2.6631570998579264,True,8,A,2023-09-05_14h31.50.555,exp3,2022.2.2,
,,,,,,,,,,,,,,,,,,,,,,,123,1716,Valid,noise,0,2,2625.7507059001364,1,2.0,10.616091900039464,True,8,A,2023-09-05_14h31.50.555,exp3,2022.2.2,
,,,,,,,,,,,,,,,,,,,,,,,124,-1158,Valid,signal,0,1,2636.1666470002383,1,2.0,2.5961023001000285,True,8,A,2023-09-05_14h31.50.555,exp3,2022.2.2,
,,,,,,,,,,,,,,,,,,,,,,,125,-557,Valid,signal,0,1,2643.110544500174,1,2.0,6.313658599974588,True,8,A,2023-09-05_14h31.50.555,exp3,2022.2.2,
,,,,,,,,,,,,,,,,,,,,,,,126,1716,Valid,noise,0,2,2647.1908319003414,1,2.0,2.913177799899131,True,8,A,2023-09-05_14h31.50.555,exp3,2022.2.2,
,,,,,,,,,,,,,,,,,,,,,,,127,2274,Valid,signal,0,2,2650.8065366002265,0,2.0,2.5459628999233246,True,8,A,2023-09-05_14h31.50.555,exp3,2022.2.2,
,,,,,,,,,,,,,,,,,,,,,,,128,1158,Valid,signal,0,1,2654.438821100164,1,2.0,2.5796350999735296,True,8,A,2023-09-05_14h31.50.555,exp3,2022.2.2,
,,,,,,,,,,,,,,,,,,,,,,,129,1158,Valid,noise,0,2,2657.8637962001376,1,2.0,2.445758800022304,True,8,A,2023-09-05_14h31.50.555,exp3,2022.2.2,
,,,,,,,,,,,,,,,,,,,,,,,130,557,Valid,signal,0,1,2661.3664930001833,1,2.0,2.4795943999197334,True,8,A,2023-09-05_14h31.50.555,exp3,2022.2.2,
,,,,,,,,,,,,,,,,,,,,,,,131,-1158,Valid,signal,0,1,2664.9033121003304,1,2.0,2.546278999885544,True,8,A,2023-09-05_14h31.50.555,exp3,2022.2.2,
,,,,,,,,,,,,,,,,,,,,,,,132,557,Valid,signal,0,1,2669.7985983002,1,3.0,4.730070599820465,True,8,A,2023-09-05_14h31.50.555,exp3,2022.2.2,
,,,,,,,,,,,,,,,,,,,,,,,133,1716,Valid,signal,0,2,2674.2949607002083,0,2.0,2.8460723001044244,True,8,A,2023-09-05_14h31.50.555,exp3,2022.2.2,
,,,,,,,,,,,,,,,,,,,,,,,134,-1716,Valid,signal,0,2,2678.102864500135,0,2.0,2.846437099855393,True,8,A,2023-09-05_14h31.50.555,exp3,2022.2.2,
,,,,,,,,,,,,,,,,,,,,,,,135,557,Valid,noise,0,2,2681.63893240015,1,2.0,2.362296399893239,True,8,A,2023-09-05_14h31.50.555,exp3,2022.2.2,
,,,,,,,,,,,,,,,,,,,,,,,136,557,Valid,signal,0,1,2685.095769500127,1,2.0,2.2626038000453264,True,8,A,2023-09-05_14h31.50.555,exp3,2022.2.2,
,,,,,,,,,,,,,,,,,,,,,,,137,-557,Valid,signal,0,1,2688.774798500119,1,2.0,4.446805599844083,True,8,A,2023-09-05_14h31.50.555,exp3,2022.2.2,
,,,,,,,,,,,,,,,,,,,,,,,138,-2274,Invalid,signal,0,2,2694.774669700302,0,2.0,3.3128569000400603,True,8,A,2023-09-05_14h31.50.555,exp3,2022.2.2,
,,,,,,,,,,,,,,,,,,,,,,,139,-1158,Valid,noise,0,2,2698.0715024003293,1,2.0,2.446537100011483,True,8,A,2023-09-05_14h31.50.555,exp3,2022.2.2,
,,,,,,,,,,,,,,,,,,,,,,,140,1158,Valid,signal,0,1,2701.718391000293,1,2.0,2.3954881001263857,True,8,A,2023-09-05_14h31.50.555,exp3,2022.2.2,
,,,,,,,,,,,,,,,,,,,,,,,141,-2274,Valid,signal,0,2,2705.9748906001914,0,2.0,3.3801142999436706,True,8,A,2023-09-05_14h31.50.555,exp3,2022.2.2,
,,,,,,,,,,,,,,,,,,,,,,,142,-2274,Valid,noise,0,2,2709.7035508002155,1,2.0,2.828775300178677,True,8,A,2023-09-05_14h31.50.555,exp3,2022.2.2,
,,,,,,,,,,,,,,,,,,,,,,,143,1716,Valid,noise,0,2,2713.4468612002674,1,1.0,3.61390640004538,True,8,A,2023-09-05_14h31.50.555,exp3,2022.2.2,
,,,,,,,,,,,,,,,,,,,,,,,144,557,Valid,signal,0,1,2717.97490310017,1,3.0,3.7625992000102997,True,8,A,2023-09-05_14h31.50.555,exp3,2022.2.2,
,,,,,,,,,,,,,,,,,,,,,,,145,557,Invalid,noise,0,2,2722.822426300263,1,2.0,3.0131739999633282,True,8,A,2023-09-05_14h31.50.555,exp3,2022.2.2,
,,,,,,,,,,,,,,,,,,,,,,,146,1716,Valid,signal,0,2,2726.8068701003212,0,2.0,2.495819400064647,True,8,A,2023-09-05_14h31.50.555,exp3,2022.2.2,
,,,,,,,,,,,,,,,,,,,,,,,147,2274,Valid,noise,0,2,2730.614807800157,1,2.0,2.8800069999415427,True,8,A,2023-09-05_14h31.50.555,exp3,2022.2.2,
,,,,,,,,,,,,,,,,,,,,,,,148,1158,Valid,noise,0,2,2734.214757800335,1,2.0,2.779259799979627,True,8,A,2023-09-05_14h31.50.555,exp3,2022.2.2,
,,,,,,,,,,,,,,,,,,,,,,,149,-1716,Valid,noise,0,2,2737.9903889002744,1,2.0,2.6462336000986397,True,8,A,2023-09-05_14h31.50.555,exp3,2022.2.2,
,,,,,,,,,,,,,,,,,,,,,,,150,1158,Valid,signal,0,1,2741.7997226002626,1,2.0,2.862306699855253,True,8,A,2023-09-05_14h31.50.555,exp3,2022.2.2,
,,,,,,,,,,,,,,,,,,,,,,,151,1158,Valid,signal,0,1,2746.8876380003057,1,3.0,4.580264599993825,True,8,A,2023-09-05_14h31.50.555,exp3,2022.2.2,
,,,,,,,,,,,,,,,,,,,,,,,152,-1158,Valid,signal,0,1,2751.799143700162,1,3.0,4.330025899922475,True,8,A,2023-09-05_14h31.50.555,exp3,2022.2.2,
,,,,,,,,,,,,,,,,,,,,,,,153,-1158,Valid,noise,0,2,2756.295676300302,1,3.0,2.879903699969873,True,8,A,2023-09-05_14h31.50.555,exp3,2022.2.2,
,,,,,,,,,,,,,,,,,,,,,,,154,2274,Valid,noise,0,1,2761.5744964003097,0,2.0,5.6303794998675585,True,8,A,2023-09-05_14h31.50.555,exp3,2022.2.2,
,,,,,,,,,,,,,,,,,,,,,,,155,557,Valid,noise,0,2,2767.19175730017,1,3.0,3.1288403999060392,True,8,A,2023-09-05_14h31.50.555,exp3,2022.2.2,
,,,,,,,,,,,,,,,,,,,,,,,156,-557,Valid,signal,0,1,2771.0952839001548,1,3.0,2.596380800008774,True,8,A,2023-09-05_14h31.50.555,exp3,2022.2.2,
,,,,,,,,,,,,,,,,,,,,,,,157,2274,Valid,signal,0,2,2774.6151951001957,0,2.0,2.7625188999809325,True,8,A,2023-09-05_14h31.50.555,exp3,2022.2.2,
,,,,,,,,,,,,,,,,,,,,,,,158,-1716,Invalid,signal,0,1,2779.351150800241,1,2.0,3.4300221998710185,True,8,A,2023-09-05_14h31.50.555,exp3,2022.2.2,
,,,,,,,,,,,,,,,,,,,,,,,159,-557,Invalid,noise,0,2,2782.886766400188,1,2.0,2.6459419999737293,True,8,A,2023-09-05_14h31.50.555,exp3,2022.2.2,
,,,,,,,,,,,,,,,,,,,,,,,160,1158,Invalid,noise,0,2,2787.174378100317,1,2.0,3.0633969998452812,True,8,A,2023-09-05_14h31.50.555,exp3,2022.2.2,
,,,,,,,,,,,,,,,,,,,,,,,161,2274,Invalid,noise,0,2,2790.919723600149,1,2.0,2.762950300006196,True,8,A,2023-09-05_14h31.50.555,exp3,2022.2.2,
,,,,,,,,,,,,,,,,,,,,,,,162,1716,Valid,noise,0,2,2794.6312025003135,1,2.0,8.881429600063711,True,8,A,2023-09-05_14h31.50.555,exp3,2022.2.2,
,,,,,,,,,,,,,,,,,,,,,,,163,1716,Valid,noise,0,2,2804.631548800273,1,2.0,2.9629345999564976,True,8,A,2023-09-05_14h31.50.555,exp3,2022.2.2,
,,,,,,,,,,,,,,,,,,,,,,,164,2274,Valid,noise,0,2,2808.663156400202,1,2.0,3.112488799961284,True,8,A,2023-09-05_14h31.50.555,exp3,2022.2.2,
,,,,,,,,,,,,,,,,,,,,,,,165,1158,Valid,noise,0,2,2812.8224712002557,1,3.0,3.3467286999803036,True,8,A,2023-09-05_14h31.50.555,exp3,2022.2.2,
,,,,,,,,,,,,,,,,,,,,,,,166,557,Valid,noise,0,2,2816.5507547003217,1,3.0,2.4296964998357,True,8,A,2023-09-05_14h31.50.555,exp3,2022.2.2,
,,,,,,,,,,,,,,,,,,,,,,,167,-1716,Valid,signal,0,2,2819.9594679002184,0,2.0,3.062330799875781,True,8,A,2023-09-05_14h31.50.555,exp3,2022.2.2,
,,,,,,,,,,,,,,,,,,,,,,,168,-2274,Valid,signal,0,2,2823.8466811003163,0,2.0,2.2290620000567287,True,8,A,2023-09-05_14h31.50.555,exp3,2022.2.2,
,,,,,,,,,,,,,,,,,,,,,,,169,2274,Valid,signal,0,2,2827.3833485001232,0,2.0,2.4964131000451744,True,8,A,2023-09-05_14h31.50.555,exp3,2022.2.2,
,,,,,,,,,,,,,,,,,,,,,,,170,557,Valid,noise,0,2,2830.791582100326,1,4.0,2.828953200019896,True,8,A,2023-09-05_14h31.50.555,exp3,2022.2.2,
,,,,,,,,,,,,,,,,,,,,,,,171,557,Invalid,noise,0,2,2834.9514192002825,1,4.0,2.7967181999702007,True,8,A,2023-09-05_14h31.50.555,exp3,2022.2.2,
,,,,,,,,,,,,,,,,,,,,,,,172,1716,Valid,signal,0,2,2838.4235043001827,0,2.0,2.962573800003156,True,8,A,2023-09-05_14h31.50.555,exp3,2022.2.2,
,,,,,,,,,,,,,,,,,,,,,,,173,-557,Valid,signal,0,1,2842.358543500304,1,2.0,2.362835899926722,True,8,A,2023-09-05_14h31.50.555,exp3,2022.2.2,
,,,,,,,,,,,,,,,,,,,,,,,174,-1158,Valid,noise,0,2,2845.735040000174,1,2.0,2.4628591001965106,True,8,A,2023-09-05_14h31.50.555,exp3,2022.2.2,
,,,,,,,,,,,,,,,,,,,,,,,175,-1158,Valid,signal,0,1,2849.319611400133,1,2.0,2.596208699978888,True,8,A,2023-09-05_14h31.50.555,exp3,2022.2.2,
,,,,,,,,,,,,,,,,,,,,,,,176,-1158,Valid,signal,0,1,2853.3029996003024,1,3.0,3.0623371999245137,True,8,A,2023-09-05_14h31.50.555,exp3,2022.2.2,
,,,,,,,,,,,,,,,,,,,,,,,2,1158,Valid,signal,0,2,3028.5673002002295,0,2.0,17.666329399915412,True,8,A,2023-09-05_14h31.50.555,exp3,2022.2.2,
,,,,,,,,,,,,,,,,,,,,,,,4,557,Valid,noise,0,2,3042.1346853002906,1,3.0,3.296606499934569,True,8,A,2023-09-05_14h31.50.555,exp3,2022.2.2,
,,,,,,,,,,,,,,,,,,,,,,,6,-557,Valid,signal,0,2,3046.7269995003007,0,3.0,3.66271509998478,True,8,A,2023-09-05_14h31.50.555,exp3,2022.2.2,
,,,,,,,,,,,,,,,,,,,,,,,8,-2274,Valid,signal,0,2,3054.15016690013,0,2.0,6.4978450001217425,True,8,A,2023-09-05_14h31.50.555,exp3,2022.2.2,
,,,,,,,,,,,,,,,,,,,,,,,10,1716,Valid,signal,0,2,3063.3832781002857,0,2.0,7.6151142998132855,True,8,A,2023-09-05_14h31.50.555,exp3,2022.2.2,
,,,,,,,,,,,,,,,,,,,,,,,12,-1716,Invalid,noise,0,1,3069.0475257001817,0,2.0,4.796332800062373,True,8,A,2023-09-05_14h31.50.555,exp3,2022.2.2,
,,,,,,,,,,,,,,,,,,,,,,,14,1716,Valid,noise,0,2,3073.1741883002687,1,2.0,2.8798077998217195,True,8,A,2023-09-05_14h31.50.555,exp3,2022.2.2,
,,,,,,,,,,,,,,,,,,,,,,,16,-1716,Valid,signal,0,2,3076.6471732002683,0,2.0,2.545797800179571,True,8,A,2023-09-05_14h31.50.555,exp3,2022.2.2,
,,,,,,,,,,,,,,,,,,,,,,,18,1716,Valid,signal,0,1,3080.2143781001214,1,2.0,3.062898299889639,True,8,A,2023-09-05_14h31.50.555,exp3,2022.2.2,
,,,,,,,,,,,,,,,,,,,,,,,20,-1158,Invalid,signal,0,1,3084.742194000166,1,2.0,3.329668799880892,True,8,A,2023-09-05_14h31.50.555,exp3,2022.2.2,
,,,,,,,,,,,,,,,,,,,,,,,22,557,Valid,signal,0,1,3089.830535300309,1,2.0,3.546648799907416,True,8,A,2023-09-05_14h31.50.555,exp3,2022.2.2,
,,,,,,,,,,,,,,,,,,,,,,,24,2274,Valid,signal,0,2,3093.4310431003105,0,2.0,2.613202099921182,True,8,A,2023-09-05_14h31.50.555,exp3,2022.2.2,
,,,,,,,,,,,,,,,,,,,,,,,26,2274,Valid,noise,0,2,3097.590873400215,1,2.0,3.245385100133717,True,8,A,2023-09-05_14h31.50.555,exp3,2022.2.2,
,,,,,,,,,,,,,,,,,,,,,,,28,-1716,Valid,noise,0,2,3101.1908147002105,1,2.0,2.763093000045046,True,8,A,2023-09-05_14h31.50.555,exp3,2022.2.2,
,,,,,,,,,,,,,,,,,,,,,,,30,2274,Invalid,signal,0,2,3105.5109336001333,0,2.0,3.296404799912125,True,8,A,2023-09-05_14h31.50.555,exp3,2022.2.2,
,,,,,,,,,,,,,,,,,,,,,,,32,1158,Valid,noise,0,2,3109.831079700263,1,2.0,3.7297030999325216,True,8,A,2023-09-05_14h31.50.555,exp3,2022.2.2,
,,,,,,,,,,,,,,,,,,,,,,,34,-2274,Valid,noise,0,2,3113.783133300254,1,2.0,2.413100500125438,True,8,A,2023-09-05_14h31.50.555,exp3,2022.2.2,
,,,,,,,,,,,,,,,,,,,,,,,36,557,Invalid,noise,0,2,3117.3035970001947,1,3.0,3.229847799986601,True,8,A,2023-09-05_14h31.50.555,exp3,2022.2.2,
,,,,,,,,,,,,,,,,,,,,,,,38,-1158,Valid,signal,0,1,3121.8141628003214,1,2.0,3.3463833001442254,True,8,A,2023-09-05_14h31.50.555,exp3,2022.2.2,
,,,,,,,,,,,,,,,,,,,,,,,40,557,Valid,signal,0,1,3125.9741257003043,1,3.0,3.913228400051594,True,8,A,2023-09-05_14h31.50.555,exp3,2022.2.2,
,,,,,,,,,,,,,,,,,,,,,,,42,-2274,Invalid,noise,0,1,3131.7034314002376,0,1.0,3.6793170999735594,True,8,A,2023-09-05_14h31.50.555,exp3,2022.2.2,
,,,,,,,,,,,,,,,,,,,,,,,44,-1158,Valid,signal,0,1,3135.4155535001773,1,3.0,3.763053399976343,True,8,A,2023-09-05_14h31.50.555,exp3,2022.2.2,
,,,,,,,,,,,,,,,,,,,,,,,46,2274,Valid,noise,0,2,3140.8874237001874,1,2.0,3.329692200059071,True,8,A,2023-09-05_14h31.50.555,exp3,2022.2.2,
,,,,,,,,,,,,,,,,,,,,,,,48,1158,Valid,noise,0,2,3146.166672500316,1,3.0,4.130218500038609,True,8,A,2023-09-05_14h31.50.555,exp3,2022.2.2,
,,,,,,,,,,,,,,,,,,,,,,,50,1158,Valid,noise,0,2,3150.2471461002715,1,2.0,3.430069399997592,True,8,A,2023-09-05_14h31.50.555,exp3,2022.2.2,
,,,,,,,,,,,,,,,,,,,,,,,52,1158,Valid,noise,0,2,3154.295078500174,1,2.0,2.6624533999711275,True,8,A,2023-09-05_14h31.50.555,exp3,2022.2.2,
,,,,,,,,,,,,,,,,,,,,,,,54,-2274,Valid,noise,0,2,3157.7033638001885,1,2.0,2.296095300000161,True,8,A,2023-09-05_14h31.50.555,exp3,2022.2.2,
,,,,,,,,,,,,,,,,,,,,,,,56,1158,Valid,signal,0,1,3161.254663700238,1,3.0,7.231269899988547,True,8,A,2023-09-05_14h31.50.555,exp3,2022.2.2,
,,,,,,,,,,,,,,,,,,,,,,,58,1716,Valid,noise,0,2,3192.3743971001823,1,2.0,25.888674899935722,True,8,A,2023-09-05_14h31.50.555,exp3,2022.2.2,
,,,,,,,,,,,,,,,,,,,,,,,60,557,Valid,signal,0,1,3196.358619300183,1,2.0,2.7126272001769394,True,8,A,2023-09-05_14h31.50.555,exp3,2022.2.2,
,,,,,,,,,,,,,,,,,,,,,,,62,-1158,Valid,noise,0,2,3199.750114200171,1,2.0,2.262922100024298,True,8,A,2023-09-05_14h31.50.555,exp3,2022.2.2,
,,,,,,,,,,,,,,,,,,,,,,,64,-557,Valid,noise,0,2,3203.3664915002882,1,3.0,2.712317300029099,True,8,A,2023-09-05_14h31.50.555,exp3,2022.2.2,
,,,,,,,,,,,,,,,,,,,,,,,66,1716,Valid,noise,0,2,3206.9027187002357,1,2.0,2.5462846998125315,True,8,A,2023-09-05_14h31.50.555,exp3,2022.2.2,
,,,,,,,,,,,,,,,,,,,,,,,68,-1716,Valid,noise,0,2,3210.6631273003295,1,3.0,3.0461725001223385,True,8,A,2023-09-05_14h31.50.555,exp3,2022.2.2,
,,,,,,,,,,,,,,,,,,,,,,,70,-557,Valid,signal,0,1,3214.759149100166,1,2.0,4.23001250019297,True,8,A,2023-09-05_14h31.50.555,exp3,2022.2.2,
,,,,,,,,,,,,,,,,,,,,,,,72,1158,Valid,noise,0,2,3220.1992990002036,1,2.0,2.996233800193295,True,8,A,2023-09-05_14h31.50.555,exp3,2022.2.2,
,,,,,,,,,,,,,,,,,,,,,,,74,1158,Valid,signal,0,1,3224.0067949001677,1,2.0,2.9963589999824762,True,8,A,2023-09-05_14h31.50.555,exp3,2022.2.2,
,,,,,,,,,,,,,,,,,,,,,,,76,-557,Valid,signal,0,1,3229.5903704001103,1,2.0,4.347309099975973,True,8,A,2023-09-05_14h31.50.555,exp3,2022.2.2,
,,,,,,,,,,,,,,,,,,,,,,,78,-2274,Valid,signal,0,2,3238.4389032002073,0,2.0,8.06448829988949,True,8,A,2023-09-05_14h31.50.555,exp3,2022.2.2,
,,,,,,,,,,,,,,,,,,,,,,,80,1158,Valid,signal,0,1,3242.278073400259,1,2.0,2.395909999962896,True,8,A,2023-09-05_14h31.50.555,exp3,2022.2.2,
,,,,,,,,,,,,,,,,,,,,,,,82,-1716,Valid,noise,0,2,3245.5583538003266,1,2.0,2.445867900038138,True,8,A,2023-09-05_14h31.50.555,exp3,2022.2.2,
,,,,,,,,,,,,,,,,,,,,,,,84,557,Valid,signal,0,1,3249.1429519001395,1,2.0,2.562720100162551,True,8,A,2023-09-05_14h31.50.555,exp3,2022.2.2,
,,,,,,,,,,,,,,,,,,,,,,,86,2274,Valid,signal,0,2,3252.486287700245,0,2.0,2.512941300170496,True,8,A,2023-09-05_14h31.50.555,exp3,2022.2.2,
,,,,,,,,,,,,,,,,,,,,,,,88,557,Valid,signal,0,1,3256.263519700151,1,3.0,2.7795256001409143,True,8,A,2023-09-05_14h31.50.555,exp3,2022.2.2,
,,,,,,,,,,,,,,,,,,,,,,,90,557,Valid,signal,0,1,3259.6862484002486,1,4.0,2.7127249999903142,True,8,A,2023-09-05_14h31.50.555,exp3,2022.2.2,
,,,,,,,,,,,,,,,,,,,,,,,92,-557,Invalid,signal,0,1,3263.7668875001837,1,4.0,3.3628950000274926,True,8,A,2023-09-05_14h31.50.555,exp3,2022.2.2,
,,,,,,,,,,,,,,,,,,,,,,,94,1716,Invalid,noise,0,2,3268.279153600335,1,1.0,3.0795261999592185,True,8,A,2023-09-05_14h31.50.555,exp3,2022.2.2,
,,,,,,,,,,,,,,,,,,,,,,,96,2274,Invalid,noise,0,2,3272.5667593001854,1,2.0,2.9462464000098407,True,8,A,2023-09-05_14h31.50.555,exp3,2022.2.2,
,,,,,,,,,,,,,,,,,,,,,,,98,557,Valid,noise,0,2,3276.0543469002005,1,3.0,2.8797126999124885,True,8,A,2023-09-05_14h31.50.555,exp3,2022.2.2,
,,,,,,,,,,,,,,,,,,,,,,,100,-1158,Valid,signal,0,1,3280.022094500251,1,3.0,2.445409799925983,True,8,A,2023-09-05_14h31.50.555,exp3,2022.2.2,
,,,,,,,,,,,,,,,,,,,,,,,102,2274,Valid,signal,0,2,3283.2861159001477,0,3.0,2.529823200078681,True,8,A,2023-09-05_14h31.50.555,exp3,2022.2.2,
,,,,,,,,,,,,,,,,,,,,,,,104,-557,Valid,noise,0,2,3287.11149100028,1,4.0,3.029310700017959,True,8,A,2023-09-05_14h31.50.555,exp3,2022.2.2,
,,,,,,,,,,,,,,,,,,,,,,,106,-2274,Valid,noise,0,2,3291.2067584001925,1,2.0,2.878595700021833,True,8,A,2023-09-05_14h31.50.555,exp3,2022.2.2,
,,,,,,,,,,,,,,,,,,,,,,,108,2274,Valid,signal,0,2,3294.791498000268,0,3.0,2.846761800115928,True,8,A,2023-09-05_14h31.50.555,exp3,2022.2.2,
,,,,,,,,,,,,,,,,,,,,,,,110,1716,Valid,noise,0,2,3299.287362300325,1,2.0,4.145938099827617,True,8,A,2023-09-05_14h31.50.555,exp3,2022.2.2,
,,,,,,,,,,,,,,,,,,,,,,,112,-1716,Valid,signal,0,2,3305.51047580014,0,2.0,4.480183199979365,True,8,A,2023-09-05_14h31.50.555,exp3,2022.2.2,
,,,,,,,,,,,,,,,,,,,,,,,114,-2274,Valid,signal,0,2,3309.2549746001605,0,2.0,2.56349019985646,True,8,A,2023-09-05_14h31.50.555,exp3,2022.2.2,
,,,,,,,,,,,,,,,,,,,,,,,116,557,Valid,noise,0,2,3313.0150592001155,1,3.0,2.695991000160575,True,8,A,2023-09-05_14h31.50.555,exp3,2022.2.2,
,,,,,,,,,,,,,,,,,,,,,,,118,1716,Valid,signal,0,1,3316.726770600304,1,2.0,2.86285819998011,True,8,A,2023-09-05_14h31.50.555,exp3,2022.2.2,
,,,,,,,,,,,,,,,,,,,,,,,120,-1716,Valid,signal,0,1,3320.3740900002886,1,2.0,2.245664100162685,True,8,A,2023-09-05_14h31.50.555,exp3,2022.2.2,
,,,,,,,,,,,,,,,,,,,,,,,122,1716,Valid,noise,0,2,3323.7026112002786,1,2.0,2.4952775000128895,True,8,A,2023-09-05_14h31.50.555,exp3,2022.2.2,
,,,,,,,,,,,,,,,,,,,,,,,124,2274,Valid,noise,0,2,3327.5420642001554,1,2.0,2.729525800095871,True,8,A,2023-09-05_14h31.50.555,exp3,2022.2.2,
,,,,,,,,,,,,,,,,,,,,,,,126,1716,Invalid,noise,0,1,3331.2064974003006,0,2.0,2.84594520018436,True,8,A,2023-09-05_14h31.50.555,exp3,2022.2.2,
,,,,,,,,,,,,,,,,,,,,,,,128,2274,Valid,signal,0,2,3334.8868566001765,0,2.0,2.7298457000870258,True,8,A,2023-09-05_14h31.50.555,exp3,2022.2.2,
,,,,,,,,,,,,,,,,,,,,,,,130,-1158,Invalid,signal,0,1,3338.9981530001387,1,3.0,3.6629806000273675,True,8,A,2023-09-05_14h31.50.555,exp3,2022.2.2,
,,,,,,,,,,,,,,,,,,,,,,,132,-2274,Valid,signal,0,2,3343.3666676001158,0,2.0,8.332173299975693,True,8,A,2023-09-05_14h31.50.555,exp3,2022.2.2,
,,,,,,,,,,,,,,,,,,,,,,,134,-2274,Valid,noise,0,2,3353.0942204003222,1,3.0,3.0624672998674214,True,8,A,2023-09-05_14h31.50.555,exp3,2022.2.2,
,,,,,,,,,,,,,,,,,,,,,,,136,1716,Valid,signal,0,1,3356.8059999002144,1,2.0,4.0133368000388145,True,8,A,2023-09-05_14h31.50.555,exp3,2022.2.2,
,,,,,,,,,,,,,,,,,,,,,,,138,557,Valid,noise,0,2,3361.702049900312,1,3.0,2.929613099899143,True,8,A,2023-09-05_14h31.50.555,exp3,2022.2.2,
,,,,,,,,,,,,,,,,,,,,,,,140,-1716,Valid,signal,0,2,3365.383299600333,0,2.0,2.7296040998771787,True,8,A,2023-09-05_14h31.50.555,exp3,2022.2.2,
,,,,,,,,,,,,,,,,,,,,,,,142,-2274,Valid,signal,0,2,3369.1107825001236,0,2.0,2.2631208999082446,True,8,A,2023-09-05_14h31.50.555,exp3,2022.2.2,
,,,,,,,,,,,,,,,,,,,,,,,144,557,Valid,noise,0,2,3372.5026364002842,1,2.0,2.3954463999252766,True,8,A,2023-09-05_14h31.50.555,exp3,2022.2.2,
,,,,,,,,,,,,,,,,,,,,,,,146,-1716,Valid,noise,0,2,3376.1820758001413,1,3.0,3.462711100000888,True,8,A,2023-09-05_14h31.50.555,exp3,2022.2.2,
,,,,,,,,,,,,,,,,,,,,,,,148,1716,Valid,noise,0,2,3380.2951574001927,1,3.0,2.3796006999909878,True,8,A,2023-09-05_14h31.50.555,exp3,2022.2.2,
,,,,,,,,,,,,,,,,,,,,,,,150,1716,Valid,noise,0,2,3383.7823006003164,1,3.0,2.3795492998324335,True,8,A,2023-09-05_14h31.50.555,exp3,2022.2.2,
,,,,,,,,,,,,,,,,,,,,,,,152,-557,Valid,signal,0,1,3387.270325700287,1,3.0,2.5296048000454903,True,8,A,2023-09-05_14h31.50.555,exp3,2022.2.2,
,,,,,,,,,,,,,,,,,,,,,,,154,-1716,Valid,noise,0,2,3390.5514023001306,1,3.0,2.228482099948451,True,8,A,2023-09-05_14h31.50.555,exp3,2022.2.2,
,,,,,,,,,,,,,,,,,,,,,,,156,-1158,Valid,signal,0,1,3393.9741674002726,1,3.0,2.4462125999853015,True,8,A,2023-09-05_14h31.50.555,exp3,2022.2.2,
,,,,,,,,,,,,,,,,,,,,,,,158,2274,Valid,signal,0,2,3397.511449600337,0,2.0,3.346303799888119,True,8,A,2023-09-05_14h31.50.555,exp3,2022.2.2,
,,,,,,,,,,,,,,,,,,,,,,,160,-1158,Valid,noise,0,2,3401.6381940001156,1,2.0,2.2292790999636054,True,8,A,2023-09-05_14h31.50.555,exp3,2022.2.2,
,,,,,,,,,,,,,,,,,,,,,,,162,-2274,Valid,signal,0,2,3404.887226700317,0,2.0,2.229385199956596,True,8,A,2023-09-05_14h31.50.555,exp3,2022.2.2,
,,,,,,,,,,,,,,,,,,,,,,,164,-557,Valid,noise,0,2,3408.2148590001743,1,2.0,2.496722999960184,True,8,A,2023-09-05_14h31.50.555,exp3,2022.2.2,
,,,,,,,,,,,,,,,,,,,,,,,166,-1716,Valid,signal,0,1,3411.8314221003093,1,2.0,2.495393499964848,True,8,A,2023-09-05_14h31.50.555,exp3,2022.2.2,
,,,,,,,,,,,,,,,,,,,,,,,168,1716,Invalid,signal,0,1,3415.7179755002726,1,2.0,2.7794816000387073,True,8,A,2023-09-05_14h31.50.555,exp3,2022.2.2,
,,,,,,,,,,,,,,,,,,,,,,,170,557,Invalid,signal,0,1,3419.7022890001535,1,2.0,2.9461664999835193,True,8,A,2023-09-05_14h31.50.555,exp3,2022.2.2,
,,,,,,,,,,,,,,,,,,,,,,,172,1158,Invalid,signal,0,1,3423.495114300167,1,3.0,3.179675499908626,True,8,A,2023-09-05_14h31.50.555,exp3,2022.2.2,
,,,,,,,,,,,,,,,,,,,,,,,174,557,Valid,noise,0,2,3427.142951700138,1,3.0,3.213272200198844,True,8,A,2023-09-05_14h31.50.555,exp3,2022.2.2,
,,,,,,,,,,,,,,,,,,,,,,,176,-2274,Valid,signal,0,1,3431.6392085002735,1,2.0,2.7795628998428583,True,8,A,2023-09-05_14h31.50.555,exp3,2022.2.2,
