trials.label,trials.startVal,trials.maxVal,trials.minVal,trials.startValSd,trials.pthreshold,trials.beta,trials.delta,trials.gamma,trials.grain,trials.stepSize,trials.range,trials.cue,trials.thisIndex,trials.thisRepN,trials.thisN,trials.direction,trials.stepType,trials.intensity,signalOpacity,stair_response_correct,level,trials.response,stair_eye_ok,nTrial,position,validity,Stimulus,orientation,response_key,response_rt,response_correct,confidence,confidence_rt,eye_ok,trial_rep,participant,session,date,expName,psychopyVersion,
high_opac_v,0.01,1,0.01,3,0.82,3.5,0.01,0,0.01,4,5,Valid,1,1,0,start,lin,0.01,0,1,0.01,1,True,,,,,,,,,,,,,18,A,2023-09-14_14h39.30.919,exp3,2022.2.2,
low_opac_i,0.4,1,0.01,3,0.82,3.5,0.01,0,0.01,4,5,Invalid,2,1,1,start,lin,0.4,0.4,1,0.4,1,True,,,,,,,,,,,,,18,A,2023-09-14_14h39.30.919,exp3,2022.2.2,
low_opac_v,0.4,1,0.01,3,0.82,3.5,0.01,0,0.01,4,5,Valid,0,1,2,start,lin,0.4,0.4,1,0.4,1,True,,,,,,,,,,,,,18,A,2023-09-14_14h39.30.919,exp3,2022.2.2,
high_opac_v,0.01,1,0.01,3,0.82,3.5,0.01,0,0.01,4,5,Valid,1,2,3,start,lin,0.01,0.01,0,0.01,0,True,,,,,,,,,,,,,18,A,2023-09-14_14h39.30.919,exp3,2022.2.2,
low_opac_i,0.4,1,0.01,3,0.82,3.5,0.01,0,0.01,4,5,Invalid,2,2,4,start,lin,0.01,0.01,0,0.01,0,True,,,,,,,,,,,,,18,A,2023-09-14_14h39.30.919,exp3,2022.2.2,
low_opac_v,0.4,1,0.01,3,0.82,3.5,0.01,0,0.01,4,5,Valid,0,2,5,start,lin,0.01,0,1,0.01,1,True,,,,,,,,,,,,,18,A,2023-09-14_14h39.30.919,exp3,2022.2.2,
low_opac_v,0.4,1,0.01,3,0.82,3.5,0.01,0,0.01,4,5,Valid,0,3,6,start,lin,0.01,0,1,0.01,1,True,,,,,,,,,,,,,18,A,2023-09-14_14h39.30.919,exp3,2022.2.2,
high_opac_v,0.01,1,0.01,3,0.82,3.5,0.01,0,0.01,4,5,Valid,1,3,7,start,lin,0.11405774706782823,0,1,0.11405774706782823,1,True,,,,,,,,,,,,,18,A,2023-09-14_14h39.30.919,exp3,2022.2.2,
low_opac_i,0.4,1,0.01,3,0.82,3.5,0.01,0,0.01,4,5,Invalid,2,3,8,start,lin,0.3144098688205103,0.3144098688205103,1,0.3144098688205103,1,True,,,,,,,,,,,,,18,A,2023-09-14_14h39.30.919,exp3,2022.2.2,
high_opac_v,0.01,1,0.01,3,0.82,3.5,0.01,0,0.01,4,5,Valid,1,4,9,start,lin,0.04641491138063986,0,1,0.04641491138063986,1,True,,,,,,,,,,,,,18,A,2023-09-14_14h39.30.919,exp3,2022.2.2,
low_opac_i,0.4,1,0.01,3,0.82,3.5,0.01,0,0.01,4,5,Invalid,2,4,10,start,lin,0.23561159539411833,0.23561159539411833,1,0.23561159539411833,1,True,,,,,,,,,,,,,18,A,2023-09-14_14h39.30.919,exp3,2022.2.2,
low_opac_v,0.4,1,0.01,3,0.82,3.5,0.01,0,0.01,4,5,Valid,0,4,11,start,lin,0.01,0.01,0,0.01,0,True,,,,,,,,,,,,,18,A,2023-09-14_14h39.30.919,exp3,2022.2.2,
low_opac_v,0.4,1,0.01,3,0.82,3.5,0.01,0,0.01,4,5,Valid,0,5,12,start,lin,0.0158587974367983,0.0158587974367983,0,0.0158587974367983,0,True,,,,,,,,,,,,,18,A,2023-09-14_14h39.30.919,exp3,2022.2.2,
high_opac_v,0.01,1,0.01,3,0.82,3.5,0.01,0,0.01,4,5,Valid,1,5,13,start,lin,0.01,0.01,0,0.01,0,True,,,,,,,,,,,,,18,A,2023-09-14_14h39.30.919,exp3,2022.2.2,
low_opac_i,0.4,1,0.01,3,0.82,3.5,0.01,0,0.01,4,5,Invalid,2,5,14,start,lin,0.1841780991895161,0.1841780991895161,1,0.1841780991895161,1,True,,,,,,,,,,,,,18,A,2023-09-14_14h39.30.919,exp3,2022.2.2,
low_opac_i,0.4,1,0.01,3,0.82,3.5,0.01,0,0.01,4,5,Invalid,2,6,15,start,lin,0.14081453445857006,0.14081453445857006,0,0.14081453445857006,0,True,,,,,,,,,,,,,18,A,2023-09-14_14h39.30.919,exp3,2022.2.2,
high_opac_v,0.01,1,0.01,3,0.82,3.5,0.01,0,0.01,4,5,Valid,1,6,16,start,lin,0.11128298531088837,0,1,0.11128298531088837,1,True,,,,,,,,,,,,,18,A,2023-09-14_14h39.30.919,exp3,2022.2.2,
low_opac_v,0.4,1,0.01,3,0.82,3.5,0.01,0,0.01,4,5,Valid,0,6,17,start,lin,0.13783782732809702,0,1,0.13783782732809702,1,True,,,,,,,,,,,,,18,A,2023-09-14_14h39.30.919,exp3,2022.2.2,
high_opac_v,0.01,1,0.01,3,0.82,3.5,0.01,0,0.01,4,5,Valid,1,7,18,start,lin,0.09280728264538463,0.09280728264538463,0,0.09280728264538463,0,True,,,,,,,,,,,,,18,A,2023-09-14_14h39.30.919,exp3,2022.2.2,
low_opac_i,0.4,1,0.01,3,0.82,3.5,0.01,0,0.01,4,5,Invalid,2,7,19,start,lin,0.23618356900306736,0,1,0.23618356900306736,1,True,,,,,,,,,,,,,18,A,2023-09-14_14h39.30.919,exp3,2022.2.2,
low_opac_v,0.4,1,0.01,3,0.82,3.5,0.01,0,0.01,4,5,Valid,0,7,20,start,lin,0.11402074894106817,0.11402074894106817,0,0.11402074894106817,0,True,,,,,,,,,,,,,18,A,2023-09-14_14h39.30.919,exp3,2022.2.2,
low_opac_v,0.4,1,0.01,3,0.82,3.5,0.01,0,0.01,4,5,Valid,0,8,21,start,lin,0.17646551003730077,0.17646551003730077,1,0.17646551003730077,1,True,,,,,,,,,,,,,18,A,2023-09-14_14h39.30.919,exp3,2022.2.2,
low_opac_i,0.4,1,0.01,3,0.82,3.5,0.01,0,0.01,4,5,Invalid,2,8,22,start,lin,0.217312149817103,0,0,0.217312149817103,0,True,,,,,,,,,,,,,18,A,2023-09-14_14h39.30.919,exp3,2022.2.2,
high_opac_v,0.01,1,0.01,3,0.82,3.5,0.01,0,0.01,4,5,Valid,1,8,23,start,lin,0.14466751216529178,0,1,0.14466751216529178,1,True,,,,,,,,,,,,,18,A,2023-09-14_14h39.30.919,exp3,2022.2.2,
low_opac_i,0.4,1,0.01,3,0.82,3.5,0.01,0,0.01,4,5,Invalid,2,9,24,start,lin,0.2737805299809524,0.2737805299809524,1,0.2737805299809524,1,True,,,,,,,,,,,,,18,A,2023-09-14_14h39.30.919,exp3,2022.2.2,
high_opac_v,0.01,1,0.01,3,0.82,3.5,0.01,0,0.01,4,5,Valid,1,9,25,start,lin,0.13107588245514087,0,1,0.13107588245514087,1,True,,,,,,,,,,,,,18,A,2023-09-14_14h39.30.919,exp3,2022.2.2,
low_opac_v,0.4,1,0.01,3,0.82,3.5,0.01,0,0.01,4,5,Valid,0,9,26,start,lin,0.16039443362328995,0.16039443362328995,0,0.16039443362328995,0,True,,,,,,,,,,,,,18,A,2023-09-14_14h39.30.919,exp3,2022.2.2,
low_opac_i,0.4,1,0.01,3,0.82,3.5,0.01,0,0.01,4,5,Invalid,2,10,27,start,lin,0.2603958028217646,0,0,0.2603958028217646,0,True,,,,,,,,,,,,,18,A,2023-09-14_14h39.30.919,exp3,2022.2.2,
high_opac_v,0.01,1,0.01,3,0.82,3.5,0.01,0,0.01,4,5,Valid,1,10,28,start,lin,0.1199162075407759,0,1,0.1199162075407759,1,True,,,,,,,,,,,,,18,A,2023-09-14_14h39.30.919,exp3,2022.2.2,
low_opac_v,0.4,1,0.01,3,0.82,3.5,0.01,0,0.01,4,5,Valid,0,10,29,start,lin,0.2091177183241464,0,1,0.2091177183241464,1,True,,,,,,,,,,,,,18,A,2023-09-14_14h39.30.919,exp3,2022.2.2,
low_opac_v,0.4,1,0.01,3,0.82,3.5,0.01,0,0.01,4,5,Valid,0,11,30,start,lin,0.19676411356348136,0,1,0.19676411356348136,1,True,,,,,,,,,,,,,18,A,2023-09-14_14h39.30.919,exp3,2022.2.2,
high_opac_v,0.01,1,0.01,3,0.82,3.5,0.01,0,0.01,4,5,Valid,1,11,31,start,lin,0.11028644185352242,0.11028644185352242,0,0.11028644185352242,0,True,,,,,,,,,,,,,18,A,2023-09-14_14h39.30.919,exp3,2022.2.2,
low_opac_i,0.4,1,0.01,3,0.82,3.5,0.01,0,0.01,4,5,Invalid,2,11,32,start,lin,0.30138304920387826,0,1,0.30138304920387826,1,True,,,,,,,,,,,,,18,A,2023-09-14_14h39.30.919,exp3,2022.2.2,
high_opac_v,0.01,1,0.01,3,0.82,3.5,0.01,0,0.01,4,5,Valid,1,12,33,start,lin,0.14259818961695495,0,1,0.14259818961695495,1,True,,,,,,,,,,,,,18,A,2023-09-14_14h39.30.919,exp3,2022.2.2,
low_opac_i,0.4,1,0.01,3,0.82,3.5,0.01,0,0.01,4,5,Invalid,2,12,34,start,lin,0.29134650193102285,0.29134650193102285,1,0.29134650193102285,1,True,,,,,,,,,,,,,18,A,2023-09-14_14h39.30.919,exp3,2022.2.2,
low_opac_v,0.4,1,0.01,3,0.82,3.5,0.01,0,0.01,4,5,Valid,0,12,35,start,lin,0.18640096022199992,0.18640096022199992,1,0.18640096022199992,1,True,,,,,,,,,,,,,18,A,2023-09-14_14h39.30.919,exp3,2022.2.2,
low_opac_v,0.4,1,0.01,3,0.82,3.5,0.01,0,0.01,4,5,Valid,0,13,36,start,lin,0.17733854093969267,0.17733854093969267,1,0.17733854093969267,1,True,,,,,,,,,,,,,18,A,2023-09-14_14h39.30.919,exp3,2022.2.2,
low_opac_i,0.4,1,0.01,3,0.82,3.5,0.01,0,0.01,4,5,Invalid,2,13,37,start,lin,0.28244724527592924,0,1,0.28244724527592924,1,True,,,,,,,,,,,,,18,A,2023-09-14_14h39.30.919,exp3,2022.2.2,
high_opac_v,0.01,1,0.01,3,0.82,3.5,0.01,0,0.01,4,5,Valid,1,13,38,start,lin,0.13455742441292826,0,1,0.13455742441292826,1,True,,,,,,,,,,,,,18,A,2023-09-14_14h39.30.919,exp3,2022.2.2,
low_opac_v,0.4,1,0.01,3,0.82,3.5,0.01,0,0.01,4,5,Valid,0,14,39,start,lin,0.1691772134571478,0,1,0.1691772134571478,1,True,,,,,,,,,,,,,18,A,2023-09-14_14h39.30.919,exp3,2022.2.2,
high_opac_v,0.01,1,0.01,3,0.82,3.5,0.01,0,0.01,4,5,Valid,1,14,40,start,lin,0.12717716300834955,0.12717716300834955,0,0.12717716300834955,0,True,,,,,,,,,,,,,18,A,2023-09-14_14h39.30.919,exp3,2022.2.2,
low_opac_i,0.4,1,0.01,3,0.82,3.5,0.01,0,0.01,4,5,Invalid,2,14,41,start,lin,0.2743419716619003,0,0,0.2743419716619003,0,True,,,,,,,,,,,,,18,A,2023-09-14_14h39.30.919,exp3,2022.2.2,
low_opac_v,0.4,1,0.01,3,0.82,3.5,0.01,0,0.01,4,5,Valid,0,15,42,start,lin,0.1616783693187887,0.1616783693187887,1,0.1616783693187887,1,True,,,,,,,,,,,,,18,A,2023-09-14_14h39.30.919,exp3,2022.2.2,
high_opac_v,0.01,1,0.01,3,0.82,3.5,0.01,0,0.01,4,5,Valid,1,15,43,start,lin,0.15276260373483103,0,1,0.15276260373483103,1,True,,,,,,,,,,,,,18,A,2023-09-14_14h39.30.919,exp3,2022.2.2,
low_opac_i,0.4,1,0.01,3,0.82,3.5,0.01,0,0.01,4,5,Invalid,2,15,44,start,lin,0.30123031659679494,0.30123031659679494,1,0.30123031659679494,1,True,,,,,,,,,,,,,18,A,2023-09-14_14h39.30.919,exp3,2022.2.2,
low_opac_v,0.4,1,0.01,3,0.82,3.5,0.01,0,0.01,4,5,Valid,0,16,45,start,lin,0.15463876239247606,0.15463876239247606,1,0.15463876239247606,1,True,,,,,,,,,,,,,18,A,2023-09-14_14h39.30.919,exp3,2022.2.2,
low_opac_i,0.4,1,0.01,3,0.82,3.5,0.01,0,0.01,4,5,Invalid,2,16,46,start,lin,0.29454079613680206,0,1,0.29454079613680206,1,True,,,,,,,,,,,,,18,A,2023-09-14_14h39.30.919,exp3,2022.2.2,
high_opac_v,0.01,1,0.01,3,0.82,3.5,0.01,0,0.01,4,5,Valid,1,16,47,start,lin,0.14650239718300503,0,1,0.14650239718300503,1,True,,,,,,,,,,,,,18,A,2023-09-14_14h39.30.919,exp3,2022.2.2,
high_opac_v,0.01,1,0.01,3,0.82,3.5,0.01,0,0.01,4,5,Valid,1,17,48,start,lin,0.1410273952347799,0,1,0.1410273952347799,1,True,,,,,,,,,,,,,18,A,2023-09-14_14h39.30.919,exp3,2022.2.2,
low_opac_i,0.4,1,0.01,3,0.82,3.5,0.01,0,0.01,4,5,Invalid,2,17,49,start,lin,0.28819556089438697,0,1,0.28819556089438697,1,True,,,,,,,,,,,,,18,A,2023-09-14_14h39.30.919,exp3,2022.2.2,
low_opac_v,0.4,1,0.01,3,0.82,3.5,0.01,0,0.01,4,5,Valid,0,17,50,start,lin,0.1479488406855044,0.1479488406855044,1,0.1479488406855044,1,True,,,,,,,,,,,,,18,A,2023-09-14_14h39.30.919,exp3,2022.2.2,
high_opac_v,0.01,1,0.01,3,0.82,3.5,0.01,0,0.01,4,5,Valid,1,18,51,start,lin,0.13573068545950667,0.13573068545950667,0,0.13573068545950667,0,True,,,,,,,,,,,,,18,A,2023-09-14_14h39.30.919,exp3,2022.2.2,
low_opac_i,0.4,1,0.01,3,0.82,3.5,0.01,0,0.01,4,5,Invalid,2,18,52,start,lin,0.2826195834373513,0.2826195834373513,1,0.2826195834373513,1,True,,,,,,,,,,,,,18,A,2023-09-14_14h39.30.919,exp3,2022.2.2,
low_opac_v,0.4,1,0.01,3,0.82,3.5,0.01,0,0.01,4,5,Valid,0,18,53,start,lin,0.1420481525528544,0,1,0.1420481525528544,1,True,,,,,,,,,,,,,18,A,2023-09-14_14h39.30.919,exp3,2022.2.2,
low_opac_i,0.4,1,0.01,3,0.82,3.5,0.01,0,0.01,4,5,Invalid,2,19,54,start,lin,0.2771731221045563,0.2771731221045563,1,0.2771731221045563,1,True,,,,,,,,,,,,,18,A,2023-09-14_14h39.30.919,exp3,2022.2.2,
low_opac_v,0.4,1,0.01,3,0.82,3.5,0.01,0,0.01,4,5,Valid,0,19,55,start,lin,0.13627106075597506,0,1,0.13627106075597506,1,True,,,,,,,,,,,,,18,A,2023-09-14_14h39.30.919,exp3,2022.2.2,
high_opac_v,0.01,1,0.01,3,0.82,3.5,0.01,0,0.01,4,5,Valid,1,19,56,start,lin,0.15560165382173988,0.15560165382173988,1,0.15560165382173988,1,True,,,,,,,,,,,,,18,A,2023-09-14_14h39.30.919,exp3,2022.2.2,
low_opac_v,0.4,1,0.01,3,0.82,3.5,0.01,0,0.01,4,5,Valid,0,20,57,start,lin,0.1310828619329531,0,1,0.1310828619329531,1,True,,,,,,,,,,,,,18,A,2023-09-14_14h39.30.919,exp3,2022.2.2,
high_opac_v,0.01,1,0.01,3,0.82,3.5,0.01,0,0.01,4,5,Valid,1,20,58,start,lin,0.15110810238604458,0.15110810238604458,1,0.15110810238604458,1,True,,,,,,,,,,,,,18,A,2023-09-14_14h39.30.919,exp3,2022.2.2,
low_opac_i,0.4,1,0.01,3,0.82,3.5,0.01,0,0.01,4,5,Invalid,2,20,59,start,lin,0.2723019136627392,0.2723019136627392,1,0.2723019136627392,1,True,,,,,,,,,,,,,18,A,2023-09-14_14h39.30.919,exp3,2022.2.2,
low_opac_v,0.4,1,0.01,3,0.82,3.5,0.01,0,0.01,4,5,Valid,0,21,60,start,lin,0.12590783791514792,0.12590783791514792,0,0.12590783791514792,0,True,,,,,,,,,,,,,18,A,2023-09-14_14h39.30.919,exp3,2022.2.2,
high_opac_v,0.01,1,0.01,3,0.82,3.5,0.01,0,0.01,4,5,Valid,1,21,61,start,lin,0.14666469509789037,0.14666469509789037,1,0.14666469509789037,1,True,,,,,,,,,,,,,18,A,2023-09-14_14h39.30.919,exp3,2022.2.2,
low_opac_i,0.4,1,0.01,3,0.82,3.5,0.01,0,0.01,4,5,Invalid,2,21,62,start,lin,0.26745309230768943,0,0,0.26745309230768943,0,True,,,,,,,,,,,,,18,A,2023-09-14_14h39.30.919,exp3,2022.2.2,
high_opac_v,0.01,1,0.01,3,0.82,3.5,0.01,0,0.01,4,5,Valid,1,22,63,start,lin,0.14264569148315812,0.14264569148315812,1,0.14264569148315812,1,True,,,,,,,,,,,,,18,A,2023-09-14_14h39.30.919,exp3,2022.2.2,
low_opac_v,0.4,1,0.01,3,0.82,3.5,0.01,0,0.01,4,5,Valid,0,22,64,start,lin,0.14536948571033326,0,0,0.14536948571033326,0,True,,,,,,,,,,,,,18,A,2023-09-14_14h39.30.919,exp3,2022.2.2,
low_opac_i,0.4,1,0.01,3,0.82,3.5,0.01,0,0.01,4,5,Invalid,2,22,65,start,lin,0.2854320930237314,0.2854320930237314,1,0.2854320930237314,1,True,,,,,,,,,,,,,18,A,2023-09-14_14h39.30.919,exp3,2022.2.2,
high_opac_v,0.01,1,0.01,3,0.82,3.5,0.01,0,0.01,4,5,Valid,1,23,66,start,lin,0.13859038168816518,0,1,0.13859038168816518,1,True,,,,,,,,,,,,,18,A,2023-09-14_14h39.30.919,exp3,2022.2.2,
low_opac_v,0.4,1,0.01,3,0.82,3.5,0.01,0,0.01,4,5,Valid,0,23,67,start,lin,0.16302097195951018,0.16302097195951018,1,0.16302097195951018,1,True,,,,,,,,,,,,,18,A,2023-09-14_14h39.30.919,exp3,2022.2.2,
low_opac_i,0.4,1,0.01,3,0.82,3.5,0.01,0,0.01,4,5,Invalid,2,23,68,start,lin,0.28143098450743154,0,0,0.28143098450743154,0,True,,,,,,,,,,,,,18,A,2023-09-14_14h39.30.919,exp3,2022.2.2,
low_opac_i,0.4,1,0.01,3,0.82,3.5,0.01,0,0.01,4,5,Invalid,2,24,69,start,lin,0.29700103887951035,0,1,0.29700103887951035,1,True,,,,,,,,,,,,,18,A,2023-09-14_14h39.30.919,exp3,2022.2.2,
high_opac_v,0.01,1,0.01,3,0.82,3.5,0.01,0,0.01,4,5,Valid,1,24,70,start,lin,0.13489183609086033,0,1,0.13489183609086033,1,True,,,,,,,,,,,,,18,A,2023-09-14_14h39.30.919,exp3,2022.2.2,
low_opac_v,0.4,1,0.01,3,0.82,3.5,0.01,0,0.01,4,5,Valid,0,24,71,start,lin,0.1588555737945602,0.1588555737945602,1,0.1588555737945602,1,True,,,,,,,,,,,,,18,A,2023-09-14_14h39.30.919,exp3,2022.2.2,
low_opac_i,0.4,1,0.01,3,0.82,3.5,0.01,0,0.01,4,5,Invalid,2,25,72,start,lin,0.29335982061117233,0.29335982061117233,1,0.29335982061117233,1,True,,,,,,,,,,,,,18,A,2023-09-14_14h39.30.919,exp3,2022.2.2,
high_opac_v,0.01,1,0.01,3,0.82,3.5,0.01,0,0.01,4,5,Valid,1,25,73,start,lin,0.1311604748768046,0.1311604748768046,1,0.1311604748768046,1,True,,,,,,,,,,,,,18,A,2023-09-14_14h39.30.919,exp3,2022.2.2,
low_opac_v,0.4,1,0.01,3,0.82,3.5,0.01,0,0.01,4,5,Valid,0,25,74,start,lin,0.15505272433439063,0.15505272433439063,1,0.15505272433439063,1,True,,,,,,,,,,,,,18,A,2023-09-14_14h39.30.919,exp3,2022.2.2,
low_opac_v,0.4,1,0.01,3,0.82,3.5,0.01,0,0.01,4,5,Valid,0,26,75,start,lin,0.15153048580616174,0.15153048580616174,1,0.15153048580616174,1,True,,,,,,,,,,,,,18,A,2023-09-14_14h39.30.919,exp3,2022.2.2,
low_opac_i,0.4,1,0.01,3,0.82,3.5,0.01,0,0.01,4,5,Invalid,2,26,76,start,lin,0.28965305143569064,0,1,0.28965305143569064,1,True,,,,,,,,,,,,,18,A,2023-09-14_14h39.30.919,exp3,2022.2.2,
high_opac_v,0.01,1,0.01,3,0.82,3.5,0.01,0,0.01,4,5,Valid,1,26,77,start,lin,0.1276568789535963,0.1276568789535963,0,0.1276568789535963,0,True,,,,,,,,,,,,,18,A,2023-09-14_14h39.30.919,exp3,2022.2.2,
high_opac_v,0.01,1,0.01,3,0.82,3.5,0.01,0,0.01,4,5,Valid,1,27,78,start,lin,0.14112420738756917,0,1,0.14112420738756917,1,True,,,,,,,,,,,,,18,A,2023-09-14_14h39.30.919,exp3,2022.2.2,
low_opac_i,0.4,1,0.01,3,0.82,3.5,0.01,0,0.01,4,5,Invalid,2,27,79,start,lin,0.2862289539287569,0.2862289539287569,1,0.2862289539287569,1,True,,,,,,,,,,,,,18,A,2023-09-14_14h39.30.919,exp3,2022.2.2,
low_opac_v,0.4,1,0.01,3,0.82,3.5,0.01,0,0.01,4,5,Valid,0,27,80,start,lin,0.14792290985510814,0,1,0.14792290985510814,1,True,,,,,,,,,,,,,18,A,2023-09-14_14h39.30.919,exp3,2022.2.2,
low_opac_i,0.4,1,0.01,3,0.82,3.5,0.01,0,0.01,4,5,Invalid,2,28,81,start,lin,0.2830564262771176,0,1,0.2830564262771176,1,True,,,,,,,,,,,,,18,A,2023-09-14_14h39.30.919,exp3,2022.2.2,
high_opac_v,0.01,1,0.01,3,0.82,3.5,0.01,0,0.01,4,5,Valid,1,28,82,start,lin,0.13792464791840986,0,1,0.13792464791840986,1,True,,,,,,,,,,,,,18,A,2023-09-14_14h39.30.919,exp3,2022.2.2,
low_opac_v,0.4,1,0.01,3,0.82,3.5,0.01,0,0.01,4,5,Valid,0,28,83,start,lin,0.14459900467272274,0,1,0.14459900467272274,1,True,,,,,,,,,,,,,18,A,2023-09-14_14h39.30.919,exp3,2022.2.2,
high_opac_v,0.01,1,0.01,3,0.82,3.5,0.01,0,0.01,4,5,Valid,1,29,84,start,lin,0.1349692868330696,0.1349692868330696,0,0.1349692868330696,0,True,,,,,,,,,,,,,18,A,2023-09-14_14h39.30.919,exp3,2022.2.2,
low_opac_v,0.4,1,0.01,3,0.82,3.5,0.01,0,0.01,4,5,Valid,0,29,85,start,lin,0.1412046110191984,0,1,0.1412046110191984,1,True,,,,,,,,,,,,,18,A,2023-09-14_14h39.30.919,exp3,2022.2.2,
low_opac_i,0.4,1,0.01,3,0.82,3.5,0.01,0,0.01,4,5,Invalid,2,29,86,start,lin,0.27978252915710233,0,1,0.27978252915710233,1,True,,,,,,,,,,,,,18,A,2023-09-14_14h39.30.919,exp3,2022.2.2,
low_opac_i,0.4,1,0.01,3,0.82,3.5,0.01,0,0.01,4,5,Invalid,2,30,87,start,lin,0.2767195389845981,0,1,0.2767195389845981,1,True,,,,,,,,,,,,,18,A,2023-09-14_14h39.30.919,exp3,2022.2.2,
high_opac_v,0.01,1,0.01,3,0.82,3.5,0.01,0,0.01,4,5,Valid,1,30,88,start,lin,0.14629569608991974,0.14629569608991974,0,0.14629569608991974,0,True,,,,,,,,,,,,,18,A,2023-09-14_14h39.30.919,exp3,2022.2.2,
low_opac_v,0.4,1,0.01,3,0.82,3.5,0.01,0,0.01,4,5,Valid,0,30,89,start,lin,0.13797631725410436,0,1,0.13797631725410436,1,True,,,,,,,,,,,,,18,A,2023-09-14_14h39.30.919,exp3,2022.2.2,
low_opac_v,0.4,1,0.01,3,0.82,3.5,0.01,0,0.01,4,5,Valid,0,31,90,start,lin,0.13497710618826847,0,1,0.13497710618826847,1,True,,,,,,,,,,,,,18,A,2023-09-14_14h39.30.919,exp3,2022.2.2,
high_opac_v,0.01,1,0.01,3,0.82,3.5,0.01,0,0.01,4,5,Valid,1,31,91,start,lin,0.15787978895835367,0.15787978895835367,0,0.15787978895835367,0,True,,,,,,,,,,,,,18,A,2023-09-14_14h39.30.919,exp3,2022.2.2,
low_opac_i,0.4,1,0.01,3,0.82,3.5,0.01,0,0.01,4,5,Invalid,2,31,92,start,lin,0.27386566245174104,0,1,0.27386566245174104,1,True,,,,,,,,,,,,,18,A,2023-09-14_14h39.30.919,exp3,2022.2.2,
high_opac_v,0.01,1,0.01,3,0.82,3.5,0.01,0,0.01,4,5,Valid,1,32,93,start,lin,0.1690062903841254,0.1690062903841254,0,0.1690062903841254,0,True,,,,,,,,,,,,,18,A,2023-09-14_14h39.30.919,exp3,2022.2.2,
low_opac_i,0.4,1,0.01,3,0.82,3.5,0.01,0,0.01,4,5,Invalid,2,32,94,start,lin,0.2709122146326661,0.2709122146326661,1,0.2709122146326661,1,True,,,,,,,,,,,,,18,A,2023-09-14_14h39.30.919,exp3,2022.2.2,
low_opac_v,0.4,1,0.01,3,0.82,3.5,0.01,0,0.01,4,5,Valid,0,32,95,start,lin,0.13189696149746533,0,1,0.13189696149746533,1,True,,,,,,,,,,,,,18,A,2023-09-14_14h39.30.919,exp3,2022.2.2,
low_opac_i,0.4,1,0.01,3,0.82,3.5,0.01,0,0.01,4,5,Invalid,2,33,96,start,lin,0.2680841210933808,0.2680841210933808,1,0.2680841210933808,1,True,,,,,,,,,,,,,18,A,2023-09-14_14h39.30.919,exp3,2022.2.2,
low_opac_v,0.4,1,0.01,3,0.82,3.5,0.01,0,0.01,4,5,Valid,0,33,97,start,lin,0.12893217113662953,0.12893217113662953,0,0.12893217113662953,0,True,,,,,,,,,,,,,18,A,2023-09-14_14h39.30.919,exp3,2022.2.2,
high_opac_v,0.01,1,0.01,3,0.82,3.5,0.01,0,0.01,4,5,Valid,1,33,98,start,lin,0.1797878823579338,0,1,0.1797878823579338,1,True,,,,,,,,,,,,,18,A,2023-09-14_14h39.30.919,exp3,2022.2.2,
high_opac_v,0.01,1,0.01,3,0.82,3.5,0.01,0,0.01,4,5,Valid,1,34,99,start,lin,0.1771998871401963,0.1771998871401963,1,0.1771998871401963,1,True,,,,,,,,,,,,,18,A,2023-09-14_14h39.30.919,exp3,2022.2.2,
low_opac_v,0.4,1,0.01,3,0.82,3.5,0.01,0,0.01,4,5,Valid,0,34,100,start,lin,0.1402889449514494,0.1402889449514494,1,0.1402889449514494,1,True,,,,,,,,,,,,,18,A,2023-09-14_14h39.30.919,exp3,2022.2.2,
low_opac_i,0.4,1,0.01,3,0.82,3.5,0.01,0,0.01,4,5,Invalid,2,34,101,start,lin,0.265444267952857,0.265444267952857,1,0.265444267952857,1,True,,,,,,,,,,,,,18,A,2023-09-14_14h39.30.919,exp3,2022.2.2,
low_opac_i,0.4,1,0.01,3,0.82,3.5,0.01,0,0.01,4,5,Invalid,2,35,102,start,lin,0.2629448577375468,0.2629448577375468,1,0.2629448577375468,1,True,,,,,,,,,,,,,18,A,2023-09-14_14h39.30.919,exp3,2022.2.2,
high_opac_v,0.01,1,0.01,3,0.82,3.5,0.01,0,0.01,4,5,Valid,1,35,103,start,lin,0.17478432765391494,0,1,0.17478432765391494,1,True,,,,,,,,,,,,,18,A,2023-09-14_14h39.30.919,exp3,2022.2.2,
low_opac_v,0.4,1,0.01,3,0.82,3.5,0.01,0,0.01,4,5,Valid,0,35,104,start,lin,0.13762624050210165,0,1,0.13762624050210165,1,True,,,,,,,,,,,,,18,A,2023-09-14_14h39.30.919,exp3,2022.2.2,
low_opac_i,0.4,1,0.01,3,0.82,3.5,0.01,0,0.01,4,5,Invalid,2,36,105,start,lin,0.2603197807379696,0,1,0.2603197807379696,1,True,,,,,,,,,,,,,18,A,2023-09-14_14h39.30.919,exp3,2022.2.2,
low_opac_v,0.4,1,0.01,3,0.82,3.5,0.01,0,0.01,4,5,Valid,0,36,106,start,lin,0.1351344108967062,0,1,0.1351344108967062,1,True,,,,,,,,,,,,,18,A,2023-09-14_14h39.30.919,exp3,2022.2.2,
high_opac_v,0.01,1,0.01,3,0.82,3.5,0.01,0,0.01,4,5,Valid,1,36,107,start,lin,0.17229031016862661,0.17229031016862661,0,0.17229031016862661,0,True,,,,,,,,,,,,,18,A,2023-09-14_14h39.30.919,exp3,2022.2.2,
low_opac_v,0.4,1,0.01,3,0.82,3.5,0.01,0,0.01,4,5,Valid,0,37,108,start,lin,0.13276459367665866,0.13276459367665866,0,0.13276459367665866,0,True,,,,,,,,,,,,,18,A,2023-09-14_14h39.30.919,exp3,2022.2.2,
low_opac_i,0.4,1,0.01,3,0.82,3.5,0.01,0,0.01,4,5,Invalid,2,37,109,start,lin,0.25779437927321414,0.25779437927321414,1,0.25779437927321414,1,True,,,,,,,,,,,,,18,A,2023-09-14_14h39.30.919,exp3,2022.2.2,
high_opac_v,0.01,1,0.01,3,0.82,3.5,0.01,0,0.01,4,5,Valid,1,37,110,start,lin,0.18162710194676313,0,1,0.18162710194676313,1,True,,,,,,,,,,,,,18,A,2023-09-14_14h39.30.919,exp3,2022.2.2,
low_opac_v,0.4,1,0.01,3,0.82,3.5,0.01,0,0.01,4,5,Valid,0,38,111,start,lin,0.14238720533124816,0,1,0.14238720533124816,1,True,,,,,,,,,,,,,18,A,2023-09-14_14h39.30.919,exp3,2022.2.2,
high_opac_v,0.01,1,0.01,3,0.82,3.5,0.01,0,0.01,4,5,Valid,1,38,112,start,lin,0.17927163701636778,0,1,0.17927163701636778,1,True,,,,,,,,,,,,,18,A,2023-09-14_14h39.30.919,exp3,2022.2.2,
low_opac_i,0.4,1,0.01,3,0.82,3.5,0.01,0,0.01,4,5,Invalid,2,38,113,start,lin,0.25542275322992347,0.25542275322992347,1,0.25542275322992347,1,True,,,,,,,,,,,,,18,A,2023-09-14_14h39.30.919,exp3,2022.2.2,
high_opac_v,0.01,1,0.01,3,0.82,3.5,0.01,0,0.01,4,5,Valid,1,39,114,start,lin,0.17706663040513243,0.17706663040513243,1,0.17706663040513243,1,True,,,,,,,,,,,,,18,A,2023-09-14_14h39.30.919,exp3,2022.2.2,
low_opac_v,0.4,1,0.01,3,0.82,3.5,0.01,0,0.01,4,5,Valid,0,39,115,start,lin,0.1400116803534825,0,1,0.1400116803534825,1,True,,,,,,,,,,,,,18,A,2023-09-14_14h39.30.919,exp3,2022.2.2,
low_opac_i,0.4,1,0.01,3,0.82,3.5,0.01,0,0.01,4,5,Invalid,2,39,116,start,lin,0.2531628738136644,0.2531628738136644,1,0.2531628738136644,1,True,,,,,,,,,,,,,18,A,2023-09-14_14h39.30.919,exp3,2022.2.2,
low_opac_i,0.4,1,0.01,3,0.82,3.5,0.01,0,0.01,4,5,Invalid,2,40,117,start,lin,0.2507780667257767,0,1,0.2507780667257767,1,True,,,,,,,,,,,,,18,A,2023-09-14_14h39.30.919,exp3,2022.2.2,
low_opac_v,0.4,1,0.01,3,0.82,3.5,0.01,0,0.01,4,5,Valid,0,40,118,start,lin,0.1377363091760172,0.1377363091760172,1,0.1377363091760172,1,True,,,,,,,,,,,,,18,A,2023-09-14_14h39.30.919,exp3,2022.2.2,
high_opac_v,0.01,1,0.01,3,0.82,3.5,0.01,0,0.01,4,5,Valid,1,40,119,start,lin,0.1749901412285968,0.1749901412285968,1,0.1749901412285968,1,True,,,,,,,,,,,,,18,A,2023-09-14_14h39.30.919,exp3,2022.2.2,
low_opac_v,0.4,1,0.01,3,0.82,3.5,0.01,0,0.01,4,5,Valid,0,41,120,start,lin,0.13559473328357347,0,1,0.13559473328357347,1,True,,,,,,,,,,,,,18,A,2023-09-14_14h39.30.919,exp3,2022.2.2,
high_opac_v,0.01,1,0.01,3,0.82,3.5,0.01,0,0.01,4,5,Valid,1,41,121,start,lin,0.17283235940972613,0,1,0.17283235940972613,1,True,,,,,,,,,,,,,18,A,2023-09-14_14h39.30.919,exp3,2022.2.2,
low_opac_i,0.4,1,0.01,3,0.82,3.5,0.01,0,0.01,4,5,Invalid,2,41,122,start,lin,0.2484511316062874,0.2484511316062874,1,0.2484511316062874,1,True,,,,,,,,,,,,,18,A,2023-09-14_14h39.30.919,exp3,2022.2.2,
low_opac_i,0.4,1,0.01,3,0.82,3.5,0.01,0,0.01,4,5,Invalid,2,42,123,start,lin,0.24625206175575526,0,1,0.24625206175575526,1,True,,,,,,,,,,,,,18,A,2023-09-14_14h39.30.919,exp3,2022.2.2,
high_opac_v,0.01,1,0.01,3,0.82,3.5,0.01,0,0.01,4,5,Valid,1,42,124,start,lin,0.17073960905081928,0.17073960905081928,0,0.17073960905081928,0,True,,,,,,,,,,,,,18,A,2023-09-14_14h39.30.919,exp3,2022.2.2,
low_opac_v,0.4,1,0.01,3,0.82,3.5,0.01,0,0.01,4,5,Valid,0,42,125,start,lin,0.13355058844149542,0,1,0.13355058844149542,1,True,,,,,,,,,,,,,18,A,2023-09-14_14h39.30.919,exp3,2022.2.2,
low_opac_v,0.4,1,0.01,3,0.82,3.5,0.01,0,0.01,4,5,Valid,0,43,126,start,lin,0.13139393800017235,0,1,0.13139393800017235,1,True,,,,,,,,,,,,,18,A,2023-09-14_14h39.30.919,exp3,2022.2.2,
low_opac_i,0.4,1,0.01,3,0.82,3.5,0.01,0,0.01,4,5,Invalid,2,43,127,start,lin,0.24415673597219023,0,0,0.24415673597219023,0,True,,,,,,,,,,,,,18,A,2023-09-14_14h39.30.919,exp3,2022.2.2,
high_opac_v,0.01,1,0.01,3,0.82,3.5,0.01,0,0.01,4,5,Valid,1,43,128,start,lin,0.17873705168510612,0.17873705168510612,1,0.17873705168510612,1,True,,,,,,,,,,,,,18,A,2023-09-14_14h39.30.919,exp3,2022.2.2,
low_opac_i,0.4,1,0.01,3,0.82,3.5,0.01,0,0.01,4,5,Invalid,2,44,129,start,lin,0.2526029862722562,0,1,0.2526029862722562,1,True,,,,,,,,,,,,,18,A,2023-09-14_14h39.30.919,exp3,2022.2.2,
low_opac_v,0.4,1,0.01,3,0.82,3.5,0.01,0,0.01,4,5,Valid,0,44,130,start,lin,0.12927860208287256,0,1,0.12927860208287256,1,True,,,,,,,,,,,,,18,A,2023-09-14_14h39.30.919,exp3,2022.2.2,
high_opac_v,0.01,1,0.01,3,0.82,3.5,0.01,0,0.01,4,5,Valid,1,44,131,start,lin,0.1768226838577559,0,1,0.1768226838577559,1,True,,,,,,,,,,,,,18,A,2023-09-14_14h39.30.919,exp3,2022.2.2,
high_opac_v,0.01,1,0.01,3,0.82,3.5,0.01,0,0.01,4,5,Valid,1,45,132,start,lin,0.17500638614001218,0,1,0.17500638614001218,1,True,,,,,,,,,,,,,18,A,2023-09-14_14h39.30.919,exp3,2022.2.2,
low_opac_v,0.4,1,0.01,3,0.82,3.5,0.01,0,0.01,4,5,Valid,0,45,133,start,lin,0.12726377795411703,0,1,0.12726377795411703,1,True,,,,,,,,,,,,,18,A,2023-09-14_14h39.30.919,exp3,2022.2.2,
low_opac_i,0.4,1,0.01,3,0.82,3.5,0.01,0,0.01,4,5,Invalid,2,45,134,start,lin,0.25052793685335817,0,1,0.25052793685335817,1,True,,,,,,,,,,,,,18,A,2023-09-14_14h39.30.919,exp3,2022.2.2,
low_opac_v,0.4,1,0.01,3,0.82,3.5,0.01,0,0.01,4,5,Valid,0,46,135,start,lin,0.12535135382750412,0.12535135382750412,1,0.12535135382750412,1,True,,,,,,,,,,,,,18,A,2023-09-14_14h39.30.919,exp3,2022.2.2,
low_opac_i,0.4,1,0.01,3,0.82,3.5,0.01,0,0.01,4,5,Invalid,2,46,136,start,lin,0.24849669865320836,0.24849669865320836,1,0.24849669865320836,1,True,,,,,,,,,,,,,18,A,2023-09-14_14h39.30.919,exp3,2022.2.2,
high_opac_v,0.01,1,0.01,3,0.82,3.5,0.01,0,0.01,4,5,Valid,1,46,137,start,lin,0.17326202574402583,0.17326202574402583,1,0.17326202574402583,1,True,,,,,,,,,,,,,18,A,2023-09-14_14h39.30.919,exp3,2022.2.2,
low_opac_v,0.4,1,0.01,3,0.82,3.5,0.01,0,0.01,4,5,Valid,0,47,138,start,lin,0.12351345750700837,0,1,0.12351345750700837,1,True,,,,,,,,,,,,,18,A,2023-09-14_14h39.30.919,exp3,2022.2.2,
high_opac_v,0.01,1,0.01,3,0.82,3.5,0.01,0,0.01,4,5,Valid,1,47,139,start,lin,0.17141373725186526,0.17141373725186526,1,0.17141373725186526,1,True,,,,,,,,,,,,,18,A,2023-09-14_14h39.30.919,exp3,2022.2.2,
low_opac_i,0.4,1,0.01,3,0.82,3.5,0.01,0,0.01,4,5,Invalid,2,47,140,start,lin,0.2465728286125563,0.2465728286125563,1,0.2465728286125563,1,True,,,,,,,,,,,,,18,A,2023-09-14_14h39.30.919,exp3,2022.2.2,
low_opac_i,0.4,1,0.01,3,0.82,3.5,0.01,0,0.01,4,5,Invalid,2,48,141,start,lin,0.24473525919448955,0,1,0.24473525919448955,1,True,,,,,,,,,,,,,18,A,2023-09-14_14h39.30.919,exp3,2022.2.2,
high_opac_v,0.01,1,0.01,3,0.82,3.5,0.01,0,0.01,4,5,Valid,1,48,142,start,lin,0.16959744635226034,0.16959744635226034,1,0.16959744635226034,1,True,,,,,,,,,,,,,18,A,2023-09-14_14h39.30.919,exp3,2022.2.2,
low_opac_v,0.4,1,0.01,3,0.82,3.5,0.01,0,0.01,4,5,Valid,0,48,143,start,lin,0.12156334594577295,0,1,0.12156334594577295,1,True,,,,,,,,,,,,,18,A,2023-09-14_14h39.30.919,exp3,2022.2.2,
high_opac_v,0.01,1,0.01,3,0.82,3.5,0.01,0,0.01,4,5,Valid,1,49,144,start,lin,0.16786814198839034,0,1,0.16786814198839034,1,True,,,,,,,,,,,,,18,A,2023-09-14_14h39.30.919,exp3,2022.2.2,
low_opac_v,0.4,1,0.01,3,0.82,3.5,0.01,0,0.01,4,5,Valid,0,49,145,start,lin,0.11963834760117353,0.11963834760117353,1,0.11963834760117353,1,True,,,,,,,,,,,,,18,A,2023-09-14_14h39.30.919,exp3,2022.2.2,
low_opac_i,0.4,1,0.01,3,0.82,3.5,0.01,0,0.01,4,5,Invalid,2,49,146,start,lin,0.242799926585806,0.242799926585806,1,0.242799926585806,1,True,,,,,,,,,,,,,18,A,2023-09-14_14h39.30.919,exp3,2022.2.2,
low_opac_v,0.4,1,0.01,3,0.82,3.5,0.01,0,0.01,4,5,Valid,0,50,147,start,lin,0.11778042338276734,0.11778042338276734,1,0.11778042338276734,1,True,,,,,,,,,,,,,18,A,2023-09-14_14h39.30.919,exp3,2022.2.2,
high_opac_v,0.01,1,0.01,3,0.82,3.5,0.01,0,0.01,4,5,Valid,1,50,148,start,lin,0.166229029565758,0.166229029565758,1,0.166229029565758,1,True,,,,,,,,,,,,,18,A,2023-09-14_14h39.30.919,exp3,2022.2.2,
low_opac_i,0.4,1,0.01,3,0.82,3.5,0.01,0,0.01,4,5,Invalid,2,50,149,start,lin,0.2409033094045327,0,1,0.2409033094045327,1,True,,,,,,,,,,,,,18,A,2023-09-14_14h39.30.919,exp3,2022.2.2,
high_opac_v,0.01,1,0.01,3,0.82,3.5,0.01,0,0.01,4,5,Valid,1,51,150,start,lin,0.16465873524043811,0.16465873524043811,1,0.16465873524043811,1,True,,,,,,,,,,,,,18,A,2023-09-14_14h39.30.919,exp3,2022.2.2,
low_opac_i,0.4,1,0.01,3,0.82,3.5,0.01,0,0.01,4,5,Invalid,2,51,151,start,lin,0.23902595488470915,0,1,0.23902595488470915,1,True,,,,,,,,,,,,,18,A,2023-09-14_14h39.30.919,exp3,2022.2.2,
low_opac_v,0.4,1,0.01,3,0.82,3.5,0.01,0,0.01,4,5,Valid,0,51,152,start,lin,0.11601463242994825,0,1,0.11601463242994825,1,True,,,,,,,,,,,,,18,A,2023-09-14_14h39.30.919,exp3,2022.2.2,
high_opac_v,0.01,1,0.01,3,0.82,3.5,0.01,0,0.01,4,5,Valid,1,52,153,start,lin,0.16300319475989572,0.16300319475989572,0,0.16300319475989572,0,True,,,,,,,,,,,,,18,A,2023-09-14_14h39.30.919,exp3,2022.2.2,
low_opac_v,0.4,1,0.01,3,0.82,3.5,0.01,0,0.01,4,5,Valid,0,52,154,start,lin,0.11431741956503833,0.11431741956503833,0,0.11431741956503833,0,True,,,,,,,,,,,,,18,A,2023-09-14_14h39.30.919,exp3,2022.2.2,
low_opac_i,0.4,1,0.01,3,0.82,3.5,0.01,0,0.01,4,5,Invalid,2,52,155,start,lin,0.23723097092527837,0,1,0.23723097092527837,1,True,,,,,,,,,,,,,18,A,2023-09-14_14h39.30.919,exp3,2022.2.2,
high_opac_v,0.01,1,0.01,3,0.82,3.5,0.01,0,0.01,4,5,Valid,1,53,156,start,lin,0.1692983272518433,0,1,0.1692983272518433,1,True,,,,,,,,,,,,,18,A,2023-09-14_14h39.30.919,exp3,2022.2.2,
low_opac_i,0.4,1,0.01,3,0.82,3.5,0.01,0,0.01,4,5,Invalid,2,53,157,start,lin,0.23551657907796972,0,1,0.23551657907796972,1,True,,,,,,,,,,,,,18,A,2023-09-14_14h39.30.919,exp3,2022.2.2,
low_opac_v,0.4,1,0.01,3,0.82,3.5,0.01,0,0.01,4,5,Valid,0,53,158,start,lin,0.12126012270244907,0,1,0.12126012270244907,1,True,,,,,,,,,,,,,18,A,2023-09-14_14h39.30.919,exp3,2022.2.2,
high_opac_v,0.01,1,0.01,3,0.82,3.5,0.01,0,0.01,4,5,Valid,1,54,159,start,lin,0.16774743728259278,0,1,0.16774743728259278,1,True,,,,,,,,,,,,,18,A,2023-09-14_14h39.30.919,exp3,2022.2.2,
low_opac_v,0.4,1,0.01,3,0.82,3.5,0.01,0,0.01,4,5,Valid,0,54,160,start,lin,0.11953718117149564,0,1,0.11953718117149564,1,True,,,,,,,,,,,,,18,A,2023-09-14_14h39.30.919,exp3,2022.2.2,
low_opac_i,0.4,1,0.01,3,0.82,3.5,0.01,0,0.01,4,5,Invalid,2,54,161,start,lin,0.2338611566052787,0,1,0.2338611566052787,1,True,,,,,,,,,,,,,18,A,2023-09-14_14h39.30.919,exp3,2022.2.2,
high_opac_v,0.01,1,0.01,3,0.82,3.5,0.01,0,0.01,4,5,Valid,1,55,162,start,lin,0.16627119570583737,0,1,0.16627119570583737,1,True,,,,,,,,,,,,,18,A,2023-09-14_14h39.30.919,exp3,2022.2.2,
low_opac_v,0.4,1,0.01,3,0.82,3.5,0.01,0,0.01,4,5,Valid,0,55,163,start,lin,0.1178760188214828,0,1,0.1178760188214828,1,True,,,,,,,,,,,,,18,A,2023-09-14_14h39.30.919,exp3,2022.2.2,
low_opac_i,0.4,1,0.01,3,0.82,3.5,0.01,0,0.01,4,5,Invalid,2,55,164,start,lin,0.23209846931666947,0.23209846931666947,1,0.23209846931666947,1,True,,,,,,,,,,,,,18,A,2023-09-14_14h39.30.919,exp3,2022.2.2,
low_opac_v,0.4,1,0.01,3,0.82,3.5,0.01,0,0.01,4,5,Valid,0,56,165,start,lin,0.1162932725082656,0.1162932725082656,0,0.1162932725082656,0,True,,,,,,,,,,,,,18,A,2023-09-14_14h39.30.919,exp3,2022.2.2,
high_opac_v,0.01,1,0.01,3,0.82,3.5,0.01,0,0.01,4,5,Valid,1,56,166,start,lin,0.16485253424464152,0,1,0.16485253424464152,1,True,,,,,,,,,,,,,18,A,2023-09-14_14h39.30.919,exp3,2022.2.2,
low_opac_i,0.4,1,0.01,3,0.82,3.5,0.01,0,0.01,4,5,Invalid,2,56,167,start,lin,0.23035570503535654,0,1,0.23035570503535654,1,True,,,,,,,,,,,,,18,A,2023-09-14_14h39.30.919,exp3,2022.2.2,
low_opac_i,0.4,1,0.01,3,0.82,3.5,0.01,0,0.01,4,5,Invalid,2,57,168,start,lin,0.22862587792100644,0.22862587792100644,1,0.22862587792100644,1,True,,,,,,,,,,,,,18,A,2023-09-14_14h39.30.919,exp3,2022.2.2,
high_opac_v,0.01,1,0.01,3,0.82,3.5,0.01,0,0.01,4,5,Valid,1,57,169,start,lin,0.16335389379402246,0.16335389379402246,1,0.16335389379402246,1,True,,,,,,,,,,,,,18,A,2023-09-14_14h39.30.919,exp3,2022.2.2,
low_opac_v,0.4,1,0.01,3,0.82,3.5,0.01,0,0.01,4,5,Valid,0,57,170,start,lin,0.12302397867971121,0.12302397867971121,1,0.12302397867971121,1,True,,,,,,,,,,,,,18,A,2023-09-14_14h39.30.919,exp3,2022.2.2,
high_opac_v,0.01,1,0.01,3,0.82,3.5,0.01,0,0.01,4,5,Valid,1,58,171,start,lin,0.1618848369812137,0.1618848369812137,1,0.1618848369812137,1,True,,,,,,,,,,,,,18,A,2023-09-14_14h39.30.919,exp3,2022.2.2,
low_opac_i,0.4,1,0.01,3,0.82,3.5,0.01,0,0.01,4,5,Invalid,2,58,172,start,lin,0.2269746200621232,0.2269746200621232,1,0.2269746200621232,1,True,,,,,,,,,,,,,18,A,2023-09-14_14h39.30.919,exp3,2022.2.2,
low_opac_v,0.4,1,0.01,3,0.82,3.5,0.01,0,0.01,4,5,Valid,0,58,173,start,lin,0.12146118695092956,0.12146118695092956,1,0.12146118695092956,1,True,,,,,,,,,,,,,18,A,2023-09-14_14h39.30.919,exp3,2022.2.2,
high_opac_v,0.01,1,0.01,3,0.82,3.5,0.01,0,0.01,4,5,Valid,1,59,174,start,lin,0.16042997402657516,0,1,0.16042997402657516,1,True,,,,,,,,,,,,,18,A,2023-09-14_14h39.30.919,exp3,2022.2.2,
low_opac_v,0.4,1,0.01,3,0.82,3.5,0.01,0,0.01,4,5,Valid,0,59,175,start,lin,0.11990790972919996,0,1,0.11990790972919996,1,True,,,,,,,,,,,,,18,A,2023-09-14_14h39.30.919,exp3,2022.2.2,
low_opac_i,0.4,1,0.01,3,0.82,3.5,0.01,0,0.01,4,5,Invalid,2,59,176,start,lin,0.2253891645387865,0.2253891645387865,1,0.2253891645387865,1,True,,,,,,,,,,,,,18,A,2023-09-14_14h39.30.919,exp3,2022.2.2,
low_opac_v,0.4,1,0.01,3,0.82,3.5,0.01,0,0.01,4,5,Valid,0,60,177,start,lin,0.11839111120885837,0,1,0.11839111120885837,1,True,,,,,,,,,,,,,18,A,2023-09-14_14h39.30.919,exp3,2022.2.2,
low_opac_i,0.4,1,0.01,3,0.82,3.5,0.01,0,0.01,4,5,Invalid,2,60,178,start,lin,0.22385150101370213,0,1,0.22385150101370213,1,True,,,,,,,,,,,,,18,A,2023-09-14_14h39.30.919,exp3,2022.2.2,
high_opac_v,0.01,1,0.01,3,0.82,3.5,0.01,0,0.01,4,5,Valid,1,60,179,start,lin,0.15899715212012633,0.15899715212012633,1,0.15899715212012633,1,True,,,,,,,,,,,,,18,A,2023-09-14_14h39.30.919,exp3,2022.2.2,
low_opac_v,0.4,1,0.01,3,0.82,3.5,0.01,0,0.01,4,5,Valid,0,61,180,start,lin,0.11694651948567292,0,1,0.11694651948567292,1,True,,,,,,,,,,,,,18,A,2023-09-14_14h39.30.919,exp3,2022.2.2,
low_opac_i,0.4,1,0.01,3,0.82,3.5,0.01,0,0.01,4,5,Invalid,2,61,181,start,lin,0.2222077730500871,0,1,0.2222077730500871,1,True,,,,,,,,,,,,,18,A,2023-09-14_14h39.30.919,exp3,2022.2.2,
high_opac_v,0.01,1,0.01,3,0.82,3.5,0.01,0,0.01,4,5,Valid,1,61,182,start,lin,0.15763426143776255,0,1,0.15763426143776255,1,True,,,,,,,,,,,,,18,A,2023-09-14_14h39.30.919,exp3,2022.2.2,
high_opac_v,0.01,1,0.01,3,0.82,3.5,0.01,0,0.01,4,5,Valid,1,62,183,start,lin,0.15633044065492746,0.15633044065492746,1,0.15633044065492746,1,True,,,,,,,,,,,,,18,A,2023-09-14_14h39.30.919,exp3,2022.2.2,
low_opac_v,0.4,1,0.01,3,0.82,3.5,0.01,0,0.01,4,5,Valid,0,62,184,start,lin,0.1155582628309812,0.1155582628309812,0,0.1155582628309812,0,True,,,,,,,,,,,,,18,A,2023-09-14_14h39.30.919,exp3,2022.2.2,
low_opac_i,0.4,1,0.01,3,0.82,3.5,0.01,0,0.01,4,5,Invalid,2,62,185,start,lin,0.22057802911336732,0.22057802911336732,1,0.22057802911336732,1,True,,,,,,,,,,,,,18,A,2023-09-14_14h39.30.919,exp3,2022.2.2,
low_opac_i,0.4,1,0.01,3,0.82,3.5,0.01,0,0.01,4,5,Invalid,2,63,186,start,lin,0.21894434518716405,0,1,0.21894434518716405,1,True,,,,,,,,,,,,,18,A,2023-09-14_14h39.30.919,exp3,2022.2.2,
low_opac_v,0.4,1,0.01,3,0.82,3.5,0.01,0,0.01,4,5,Valid,0,63,187,start,lin,0.12162074123859756,0.12162074123859756,0,0.12162074123859756,0,True,,,,,,,,,,,,,18,A,2023-09-14_14h39.30.919,exp3,2022.2.2,
high_opac_v,0.01,1,0.01,3,0.82,3.5,0.01,0,0.01,4,5,Valid,1,63,188,start,lin,0.1550726948021996,0.1550726948021996,0,0.1550726948021996,0,True,,,,,,,,,,,,,18,A,2023-09-14_14h39.30.919,exp3,2022.2.2,
high_opac_v,0.01,1,0.01,3,0.82,3.5,0.01,0,0.01,4,5,Valid,1,64,189,start,lin,0.16063646008887073,0,1,0.16063646008887073,1,True,,,,,,,,,,,,,18,A,2023-09-14_14h39.30.919,exp3,2022.2.2,
low_opac_v,0.4,1,0.01,3,0.82,3.5,0.01,0,0.01,4,5,Valid,0,64,190,start,lin,0.1271059954252956,0,1,0.1271059954252956,1,True,,,,,,,,,,,,,18,A,2023-09-14_14h39.30.919,exp3,2022.2.2,
low_opac_i,0.4,1,0.01,3,0.82,3.5,0.01,0,0.01,4,5,Invalid,2,64,191,start,lin,0.21737208795889562,0,0,0.21737208795889562,0,True,,,,,,,,,,,,,18,A,2023-09-14_14h39.30.919,exp3,2022.2.2,
low_opac_v,0.4,1,0.01,3,0.82,3.5,0.01,0,0.01,4,5,Valid,0,65,192,start,lin,0.12582729942943166,0,1,0.12582729942943166,1,True,,,,,,,,,,,,,18,A,2023-09-14_14h39.30.919,exp3,2022.2.2,
high_opac_v,0.01,1,0.01,3,0.82,3.5,0.01,0,0.01,4,5,Valid,1,65,193,start,lin,0.15931370779378015,0,1,0.15931370779378015,1,True,,,,,,,,,,,,,18,A,2023-09-14_14h39.30.919,exp3,2022.2.2,
low_opac_i,0.4,1,0.01,3,0.82,3.5,0.01,0,0.01,4,5,Invalid,2,65,194,start,lin,0.2238552883281676,0,1,0.2238552883281676,1,True,,,,,,,,,,,,,18,A,2023-09-14_14h39.30.919,exp3,2022.2.2,
low_opac_i,0.4,1,0.01,3,0.82,3.5,0.01,0,0.01,4,5,Invalid,2,66,195,start,lin,0.22237186490012611,0,1,0.22237186490012611,1,True,,,,,,,,,,,,,18,A,2023-09-14_14h39.30.919,exp3,2022.2.2,
low_opac_v,0.4,1,0.01,3,0.82,3.5,0.01,0,0.01,4,5,Valid,0,66,196,start,lin,0.12458835194117207,0.12458835194117207,0,0.12458835194117207,0,True,,,,,,,,,,,,,18,A,2023-09-14_14h39.30.919,exp3,2022.2.2,
high_opac_v,0.01,1,0.01,3,0.82,3.5,0.01,0,0.01,4,5,Valid,1,66,197,start,lin,0.1580490399895239,0.1580490399895239,0,0.1580490399895239,0,True,,,,,,,,,,,,,18,A,2023-09-14_14h39.30.919,exp3,2022.2.2,
high_opac_v,0.01,1,0.01,3,0.82,3.5,0.01,0,0.01,4,5,Valid,1,67,198,start,lin,0.16327639099685004,0,1,0.16327639099685004,1,True,,,,,,,,,,,,,18,A,2023-09-14_14h39.30.919,exp3,2022.2.2,
low_opac_i,0.4,1,0.01,3,0.82,3.5,0.01,0,0.01,4,5,Invalid,2,67,199,start,lin,0.22089992252889762,0,1,0.22089992252889762,1,True,,,,,,,,,,,,,18,A,2023-09-14_14h39.30.919,exp3,2022.2.2,
low_opac_v,0.4,1,0.01,3,0.82,3.5,0.01,0,0.01,4,5,Valid,0,67,200,start,lin,0.12970840220026536,0,1,0.12970840220026536,1,True,,,,,,,,,,,,,18,A,2023-09-14_14h39.30.919,exp3,2022.2.2,
low_opac_v,0.4,1,0.01,3,0.82,3.5,0.01,0,0.01,4,5,Valid,0,68,201,start,lin,0.12842539906509587,0,1,0.12842539906509587,1,True,,,,,,,,,,,,,18,A,2023-09-14_14h39.30.919,exp3,2022.2.2,
high_opac_v,0.01,1,0.01,3,0.82,3.5,0.01,0,0.01,4,5,Valid,1,68,202,start,lin,0.16204092412216298,0.16204092412216298,0,0.16204092412216298,0,True,,,,,,,,,,,,,18,A,2023-09-14_14h39.30.919,exp3,2022.2.2,
low_opac_i,0.4,1,0.01,3,0.82,3.5,0.01,0,0.01,4,5,Invalid,2,68,203,start,lin,0.21942127917762208,0.21942127917762208,1,0.21942127917762208,1,True,,,,,,,,,,,,,18,A,2023-09-14_14h39.30.919,exp3,2022.2.2,
high_opac_v,0.01,1,0.01,3,0.82,3.5,0.01,0,0.01,4,5,Valid,1,69,204,start,lin,0.16680824525542595,0,1,0.16680824525542595,1,True,,,,,,,,,,,,,18,A,2023-09-14_14h39.30.919,exp3,2022.2.2,
low_opac_i,0.4,1,0.01,3,0.82,3.5,0.01,0,0.01,4,5,Invalid,2,69,205,start,lin,0.2179828985727243,0.2179828985727243,1,0.2179828985727243,1,True,,,,,,,,,,,,,18,A,2023-09-14_14h39.30.919,exp3,2022.2.2,
low_opac_v,0.4,1,0.01,3,0.82,3.5,0.01,0,0.01,4,5,Valid,0,69,206,start,lin,0.1272000563209228,0.1272000563209228,0,0.1272000563209228,0,True,,,,,,,,,,,,,18,A,2023-09-14_14h39.30.919,exp3,2022.2.2,
high_opac_v,0.01,1,0.01,3,0.82,3.5,0.01,0,0.01,4,5,Valid,1,70,207,start,lin,0.1656878668760008,0.1656878668760008,1,0.1656878668760008,1,True,,,,,,,,,,,,,18,A,2023-09-14_14h39.30.919,exp3,2022.2.2,
low_opac_v,0.4,1,0.01,3,0.82,3.5,0.01,0,0.01,4,5,Valid,0,70,208,start,lin,0.13241101381576403,0.13241101381576403,1,0.13241101381576403,1,True,,,,,,,,,,,,,18,A,2023-09-14_14h39.30.919,exp3,2022.2.2,
low_opac_i,0.4,1,0.01,3,0.82,3.5,0.01,0,0.01,4,5,Invalid,2,70,209,start,lin,0.21660353694730447,0.21660353694730447,1,0.21660353694730447,1,True,,,,,,,,,,,,,18,A,2023-09-14_14h39.30.919,exp3,2022.2.2,
high_opac_v,0.01,1,0.01,3,0.82,3.5,0.01,0,0.01,4,5,Valid,1,71,210,start,lin,0.1645997250063957,0.1645997250063957,1,0.1645997250063957,1,True,,,,,,,,,,,,,18,A,2023-09-14_14h39.30.919,exp3,2022.2.2,
low_opac_i,0.4,1,0.01,3,0.82,3.5,0.01,0,0.01,4,5,Invalid,2,71,211,start,lin,0.21526944008362378,0.21526944008362378,1,0.21526944008362378,1,True,,,,,,,,,,,,,18,A,2023-09-14_14h39.30.919,exp3,2022.2.2,
low_opac_v,0.4,1,0.01,3,0.82,3.5,0.01,0,0.01,4,5,Valid,0,71,212,start,lin,0.13118880859220589,0,1,0.13118880859220589,1,True,,,,,,,,,,,,,18,A,2023-09-14_14h39.30.919,exp3,2022.2.2,
high_opac_v,0.01,1,0.01,3,0.82,3.5,0.01,0,0.01,4,5,Valid,1,72,213,start,lin,0.16343988365021297,0,1,0.16343988365021297,1,True,,,,,,,,,,,,,18,A,2023-09-14_14h39.30.919,exp3,2022.2.2,
low_opac_i,0.4,1,0.01,3,0.82,3.5,0.01,0,0.01,4,5,Invalid,2,72,214,start,lin,0.2139681856646402,0.2139681856646402,1,0.2139681856646402,1,True,,,,,,,,,,,,,18,A,2023-09-14_14h39.30.919,exp3,2022.2.2,
low_opac_v,0.4,1,0.01,3,0.82,3.5,0.01,0,0.01,4,5,Valid,0,72,215,start,lin,0.129965831739277,0.129965831739277,1,0.129965831739277,1,True,,,,,,,,,,,,,18,A,2023-09-14_14h39.30.919,exp3,2022.2.2,
high_opac_v,0.01,1,0.01,3,0.82,3.5,0.01,0,0.01,4,5,Valid,1,73,216,start,lin,0.1622959768035975,0,1,0.1622959768035975,1,True,,,,,,,,,,,,,18,A,2023-09-14_14h39.30.919,exp3,2022.2.2,
low_opac_i,0.4,1,0.01,3,0.82,3.5,0.01,0,0.01,4,5,Invalid,2,73,217,start,lin,0.21257128721639876,0.21257128721639876,1,0.21257128721639876,1,True,,,,,,,,,,,,,18,A,2023-09-14_14h39.30.919,exp3,2022.2.2,
low_opac_v,0.4,1,0.01,3,0.82,3.5,0.01,0,0.01,4,5,Valid,0,73,218,start,lin,0.12876705114189968,0,0,0.12876705114189968,0,True,,,,,,,,,,,,,18,A,2023-09-14_14h39.30.919,exp3,2022.2.2,
low_opac_i,0.4,1,0.01,3,0.82,3.5,0.01,0,0.01,4,5,Invalid,2,74,219,start,lin,0.21118294632337534,0,0,0.21118294632337534,0,True,,,,,,,,,,,,,18,A,2023-09-14_14h39.30.919,exp3,2022.2.2,
high_opac_v,0.01,1,0.01,3,0.82,3.5,0.01,0,0.01,4,5,Valid,1,74,220,start,lin,0.16115880359906007,0,1,0.16115880359906007,1,True,,,,,,,,,,,,,18,A,2023-09-14_14h39.30.919,exp3,2022.2.2,
low_opac_v,0.4,1,0.01,3,0.82,3.5,0.01,0,0.01,4,5,Valid,0,74,221,start,lin,0.13359648133358587,0.13359648133358587,1,0.13359648133358587,1,True,,,,,,,,,,,,,18,A,2023-09-14_14h39.30.919,exp3,2022.2.2,
low_opac_v,0.4,1,0.01,3,0.82,3.5,0.01,0,0.01,4,5,Valid,0,75,222,start,lin,0.13245590683493164,0,1,0.13245590683493164,1,True,,,,,,,,,,,,,18,A,2023-09-14_14h39.30.919,exp3,2022.2.2,
low_opac_i,0.4,1,0.01,3,0.82,3.5,0.01,0,0.01,4,5,Invalid,2,75,223,start,lin,0.21658938210896167,0.21658938210896167,1,0.21658938210896167,1,True,,,,,,,,,,,,,18,A,2023-09-14_14h39.30.919,exp3,2022.2.2,
high_opac_v,0.01,1,0.01,3,0.82,3.5,0.01,0,0.01,4,5,Valid,1,75,224,start,lin,0.16001966526154068,0.16001966526154068,1,0.16001966526154068,1,True,,,,,,,,,,,,,18,A,2023-09-14_14h39.30.919,exp3,2022.2.2,
,,,,,,,,,,,,,,,,,,,,,,,,0,2274,Valid,noise,45,2,16.272791099967435,1,1.0,251.09597329999087,True,10,18,A,2023-09-14_14h39.30.919,exp3,2022.2.2,
,,,,,,,,,,,,,,,,,,,,,,,,0,2274,Valid,signal,45,2,12.509076300018933,0,1.0,13.817058299959172,True,1,18,A,2023-09-14_14h39.30.919,exp3,2022.2.2,
,,,,,,,,,,,,,,,,,,,,,,,,0,1716,Valid,noise,-45,2,5.223545900022145,1,2.0,6.5312566999928094,True,1,18,A,2023-09-14_14h39.30.919,exp3,2022.2.2,
,,,,,,,,,,,,,,,,,,,,,,,,0,-1716,Valid,signal,45,2,7.0736176000209525,0,3.0,8.381459199998062,True,1,18,A,2023-09-14_14h39.30.919,exp3,2022.2.2,
,,,,,,,,,,,,,,,,,,,,,,,,0,-1716,Invalid,noise,-45,2,4.32243619998917,1,2.0,5.630341200041585,True,1,18,A,2023-09-14_14h39.30.919,exp3,2022.2.2,
,,,,,,,,,,,,,,,,,,,,,,,,0,-557,Valid,noise,45,2,9.24187859997619,1,3.0,10.549530000018422,True,1,18,A,2023-09-14_14h39.30.919,exp3,2022.2.2,
,,,,,,,,,,,,,,,,,,,,,,,,0,-1716,Valid,signal,-45,2,1.988083900010679,0,2.0,3.2959871999919415,True,1,18,A,2023-09-14_14h39.30.919,exp3,2022.2.2,
,,,,,,,,,,,,,,,,,,,,,,,,0,1158,Invalid,signal,45,1,2.622661800007336,1,2.0,3.9303028999711387,True,1,18,A,2023-09-14_14h39.30.919,exp3,2022.2.2,
,,,,,,,,,,,,,,,,,,,,,,,,0,557,Valid,signal,-45,2,4.406013800005894,0,4.0,5.713795400050003,True,1,18,A,2023-09-14_14h39.30.919,exp3,2022.2.2,
,,,,,,,,,,,,,,,,,,,,,,,,0,2274,Valid,signal,45,2,3.1386985999997705,0,2.0,4.44675990001997,True,1,18,A,2023-09-14_14h39.30.919,exp3,2022.2.2,
,,,,,,,,,,,,,,,,,,,,,,,,0,557,Valid,signal,45,2,1.7722772999550216,0,2.0,3.0799600000027567,True,1,18,A,2023-09-14_14h39.30.919,exp3,2022.2.2,
,,,,,,,,,,,,,,,,,,,,,,,,0,557,Valid,signal,45,2,1.2710824999958277,0,2.0,2.5789667000062764,True,1,18,A,2023-09-14_14h39.30.919,exp3,2022.2.2,
,,,,,,,,,,,,,,,,,,,,,,,,0,1716,Valid,noise,45,2,1.171788200037554,1,2.0,2.479617099976167,True,1,18,A,2023-09-14_14h39.30.919,exp3,2022.2.2,
,,,,,,,,,,,,,,,,,,,,,,,,0,1716,Valid,signal,45,2,1.1882761000306346,0,2.0,2.4960623999941163,True,1,18,A,2023-09-14_14h39.30.919,exp3,2022.2.2,
,,,,,,,,,,,,,,,,,,,,,,,,0,-2274,Valid,signal,-45,2,4.455700199992862,0,2.0,5.7635309000033885,True,1,18,A,2023-09-14_14h39.30.919,exp3,2022.2.2,
,,,,,,,,,,,,,,,,,,,,,,,,0,557,Valid,signal,45,2,1.7552361999987625,0,2.0,3.063218600000255,True,1,18,A,2023-09-14_14h39.30.919,exp3,2022.2.2,
,,,,,,,,,,,,,,,,,,,,,,,,0,-1716,Valid,noise,-45,2,0.9383213000255637,1,2.0,2.246092299988959,True,1,18,A,2023-09-14_14h39.30.919,exp3,2022.2.2,
,,,,,,,,,,,,,,,,,,,,,,,,0,-1716,Valid,noise,-45,2,0.8045639999909326,1,2.0,2.1124586000223644,True,1,18,A,2023-09-14_14h39.30.919,exp3,2022.2.2,
,,,,,,,,,,,,,,,,,,,,,,,,0,-1158,Valid,noise,45,2,0.8381040000240318,1,2.0,2.145896600035485,True,1,18,A,2023-09-14_14h39.30.919,exp3,2022.2.2,
,,,,,,,,,,,,,,,,,,,,,,,,0,-1716,Invalid,signal,45,2,1.9046825999976136,0,2.0,3.212645400024485,True,1,18,A,2023-09-14_14h39.30.919,exp3,2022.2.2,
,,,,,,,,,,,,,,,,,,,,,,,,0,-557,Valid,signal,-45,1,1.7722050999873318,1,2.0,3.080248600046616,True,1,18,A,2023-09-14_14h39.30.919,exp3,2022.2.2,
,,,,,,,,,,,,,,,,,,,,,,,,0,-1716,Valid,noise,-45,2,0.9716558000072837,1,2.0,2.2793433000333607,True,1,18,A,2023-09-14_14h39.30.919,exp3,2022.2.2,
,,,,,,,,,,,,,,,,,,,,,,,,0,1716,Invalid,noise,-45,1,1.5711731999763288,0,2.0,2.8789263000362553,True,1,18,A,2023-09-14_14h39.30.919,exp3,2022.2.2,
,,,,,,,,,,,,,,,,,,,,,,,,0,-2274,Valid,noise,-45,2,1.0389108999515884,1,2.0,2.3466796999564394,True,1,18,A,2023-09-14_14h39.30.919,exp3,2022.2.2,
,,,,,,,,,,,,,,,,,,,,,,,,0,-1158,Valid,signal,45,1,1.7883166000247002,1,3.0,3.096142800000962,True,1,18,A,2023-09-14_14h39.30.919,exp3,2022.2.2,
,,,,,,,,,,,,,,,,,,,,,,,,0,-557,Valid,signal,45,1,2.955736399977468,1,3.0,4.263517800020054,True,1,18,A,2023-09-14_14h39.30.919,exp3,2022.2.2,
,,,,,,,,,,,,,,,,,,,,,,,,0,2274,Valid,noise,45,1,3.1219789999886416,0,1.0,4.4298739999649115,True,1,18,A,2023-09-14_14h39.30.919,exp3,2022.2.2,
,,,,,,,,,,,,,,,,,,,,,,,,0,1716,Valid,noise,45,2,2.5887322000344284,1,2.0,3.8966045000124723,True,1,18,A,2023-09-14_14h39.30.919,exp3,2022.2.2,
,,,,,,,,,,,,,,,,,,,,,,,,0,-2274,Valid,noise,45,2,1.204947100020945,1,2.0,2.512387300026603,True,1,18,A,2023-09-14_14h39.30.919,exp3,2022.2.2,
,,,,,,,,,,,,,,,,,,,,,,,,0,-2274,Valid,noise,45,2,3.6725368999759667,1,1.0,4.980514499999117,True,1,18,A,2023-09-14_14h39.30.919,exp3,2022.2.2,
,,,,,,,,,,,,,,,,,,,,,,,,0,-557,Valid,noise,45,2,2.088657999993302,1,1.0,3.3965031999978237,True,1,18,A,2023-09-14_14h39.30.919,exp3,2022.2.2,
,,,,,,,,,,,,,,,,,,,,,,,,0,1716,Valid,signal,-45,2,3.0722398000070825,0,1.0,4.380011300032493,True,1,18,A,2023-09-14_14h39.30.919,exp3,2022.2.2,
,,,,,,,,,,,,,,,,,,,,,,,,0,1158,Valid,signal,-45,1,2.8221009999979287,1,2.0,4.130105899996124,True,1,18,A,2023-09-14_14h39.30.919,exp3,2022.2.2,
,,,,,,,,,,,,,,,,,,,,,,,,0,557,Valid,noise,-45,2,1.5377964000217617,1,2.0,2.8460096000344492,True,1,18,A,2023-09-14_14h39.30.919,exp3,2022.2.2,
,,,,,,,,,,,,,,,,,,,,,,,,0,2274,Valid,noise,-45,2,2.506101500010118,1,1.0,3.8136106999590993,True,1,18,A,2023-09-14_14h39.30.919,exp3,2022.2.2,
,,,,,,,,,,,,,,,,,,,,,,,,0,1716,Valid,signal,-45,2,3.038308200018946,0,2.0,4.346432999998797,True,1,18,A,2023-09-14_14h39.30.919,exp3,2022.2.2,
,,,,,,,,,,,,,,,,,,,,,,,,0,-1158,Valid,signal,-45,1,2.5563325000111945,1,3.0,3.8640105000231415,True,1,18,A,2023-09-14_14h39.30.919,exp3,2022.2.2,
,,,,,,,,,,,,,,,,,,,,,,,,0,-1158,Valid,noise,45,1,1.8874446999980137,0,2.0,3.195693099987693,True,1,18,A,2023-09-14_14h39.30.919,exp3,2022.2.2,
,,,,,,,,,,,,,,,,,,,,,,,,0,-557,Invalid,noise,-45,2,3.907054600014817,1,2.0,5.214532899961341,True,1,18,A,2023-09-14_14h39.30.919,exp3,2022.2.2,
,,,,,,,,,,,,,,,,,,,,,,,,0,1158,Valid,noise,45,2,1.7045964000280946,1,2.0,3.0125962999882177,True,1,18,A,2023-09-14_14h39.30.919,exp3,2022.2.2,
,,,,,,,,,,,,,,,,,,,,,,,,0,-1716,Valid,signal,-45,2,1.821687399991788,0,2.0,3.129458599956706,True,1,18,A,2023-09-14_14h39.30.919,exp3,2022.2.2,
,,,,,,,,,,,,,,,,,,,,,,,,0,1158,Valid,signal,45,1,1.5219676000415348,1,2.0,2.8297231000033207,True,1,18,A,2023-09-14_14h39.30.919,exp3,2022.2.2,
,,,,,,,,,,,,,,,,,,,,,,,,0,1716,Invalid,noise,45,2,1.5056546999840066,1,2.0,2.8133427999564447,True,1,18,A,2023-09-14_14h39.30.919,exp3,2022.2.2,
,,,,,,,,,,,,,,,,,,,,,,,,0,-1158,Valid,noise,-45,2,0.9037682000198402,1,2.0,2.2117696999921463,True,1,18,A,2023-09-14_14h39.30.919,exp3,2022.2.2,
,,,,,,,,,,,,,,,,,,,,,,,,0,2274,Valid,signal,-45,2,0.9886854999931529,0,2.0,2.2965759999933653,True,1,18,A,2023-09-14_14h39.30.919,exp3,2022.2.2,
,,,,,,,,,,,,,,,,,,,,,,,,0,-557,Invalid,signal,45,2,1.8052024999633431,0,2.0,3.1129758000024594,True,1,18,A,2023-09-14_14h39.30.919,exp3,2022.2.2,
,,,,,,,,,,,,,,,,,,,,,,,,0,-1716,Valid,noise,-45,2,1.3548064999631606,1,2.0,2.6625961999525316,True,1,18,A,2023-09-14_14h39.30.919,exp3,2022.2.2,
,,,,,,,,,,,,,,,,,,,,,,,,0,1158,Valid,noise,-45,2,1.1048098999890499,1,2.0,2.412765999964904,True,1,18,A,2023-09-14_14h39.30.919,exp3,2022.2.2,
,,,,,,,,,,,,,,,,,,,,,,,,0,1158,Valid,noise,45,2,1.1212569999624975,1,2.0,2.429154200013727,True,1,18,A,2023-09-14_14h39.30.919,exp3,2022.2.2,
,,,,,,,,,,,,,,,,,,,,,,,,0,1716,Valid,noise,45,2,0.9546422999701463,1,2.0,2.2625535000115633,True,1,18,A,2023-09-14_14h39.30.919,exp3,2022.2.2,
,,,,,,,,,,,,,,,,,,,,,,,,0,1158,Valid,signal,-45,1,1.7385013000457548,1,2.0,3.0463840999873355,True,1,18,A,2023-09-14_14h39.30.919,exp3,2022.2.2,
,,,,,,,,,,,,,,,,,,,,,,,,0,2274,Valid,signal,45,2,0.8721061999676749,0,2.0,2.179804300016258,True,1,18,A,2023-09-14_14h39.30.919,exp3,2022.2.2,
,,,,,,,,,,,,,,,,,,,,,,,,0,1158,Valid,noise,-45,2,1.0211444000015035,1,2.0,2.3290922999731265,True,1,18,A,2023-09-14_14h39.30.919,exp3,2022.2.2,
,,,,,,,,,,,,,,,,,,,,,,,,0,-1158,Valid,noise,45,2,4.8897862999583595,1,2.0,8.164555300027132,True,2,18,A,2023-09-14_14h39.30.919,exp3,2022.2.2,
,,,,,,,,,,,,,,,,,,,,,,,,0,-557,Valid,noise,-45,2,0.8215201999992132,1,2.0,2.129485499986913,True,1,18,A,2023-09-14_14h39.30.919,exp3,2022.2.2,
,,,,,,,,,,,,,,,,,,,,,,,,0,1716,Valid,signal,45,2,0.6544651999720372,0,2.0,1.9623298999504186,True,1,18,A,2023-09-14_14h39.30.919,exp3,2022.2.2,
,,,,,,,,,,,,,,,,,,,,,,,,0,2274,Valid,signal,45,2,0.82218020001892,0,2.0,2.12983130000066,True,1,18,A,2023-09-14_14h39.30.919,exp3,2022.2.2,
,,,,,,,,,,,,,,,,,,,,,,,,0,2274,Valid,signal,45,2,0.9709230000153184,0,2.0,2.2788085999782197,True,1,18,A,2023-09-14_14h39.30.919,exp3,2022.2.2,
,,,,,,,,,,,,,,,,,,,,,,,,0,1158,Valid,signal,-45,1,1.2218894999823533,1,2.0,2.5296026000287384,True,1,18,A,2023-09-14_14h39.30.919,exp3,2022.2.2,
,,,,,,,,,,,,,,,,,,,,,,,,0,2274,Valid,signal,45,2,1.7718927999958396,0,1.0,3.0795971999759786,True,1,18,A,2023-09-14_14h39.30.919,exp3,2022.2.2,
,,,,,,,,,,,,,,,,,,,,,,,,0,1158,Valid,signal,45,1,1.7890811000252143,1,2.0,3.0966710000066087,True,1,18,A,2023-09-14_14h39.30.919,exp3,2022.2.2,
,,,,,,,,,,,,,,,,,,,,,,,,0,557,Valid,signal,45,1,1.554439299972728,1,3.0,2.862122400023509,True,1,18,A,2023-09-14_14h39.30.919,exp3,2022.2.2,
,,,,,,,,,,,,,,,,,,,,,,,,0,-1158,Valid,signal,45,1,1.8060938999988139,1,3.0,3.1138056000345387,True,1,18,A,2023-09-14_14h39.30.919,exp3,2022.2.2,
,,,,,,,,,,,,,,,,,,,,,,,,0,-2274,Valid,signal,45,2,1.4042994999908842,0,2.0,2.712071099958848,True,1,18,A,2023-09-14_14h39.30.919,exp3,2022.2.2,
,,,,,,,,,,,,,,,,,,,,,,,,0,-2274,Invalid,noise,45,1,3.0563343999674544,0,2.0,4.363785199995618,True,1,18,A,2023-09-14_14h39.30.919,exp3,2022.2.2,
,,,,,,,,,,,,,,,,,,,,,,,,0,-557,Valid,signal,45,1,1.321590900013689,1,3.0,2.6293629000429064,True,1,18,A,2023-09-14_14h39.30.919,exp3,2022.2.2,
,,,,,,,,,,,,,,,,,,,,,,,,0,-1716,Valid,signal,45,1,2.1719758000108413,1,1.0,3.4799742000177503,True,1,18,A,2023-09-14_14h39.30.919,exp3,2022.2.2,
,,,,,,,,,,,,,,,,,,,,,,,,0,-1158,Valid,signal,45,1,1.4043335000169463,1,3.0,2.7124393999692984,True,1,18,A,2023-09-14_14h39.30.919,exp3,2022.2.2,
,,,,,,,,,,,,,,,,,,,,,,,,0,557,Invalid,noise,45,2,1.8045689000282437,1,2.0,3.112324899993837,True,1,18,A,2023-09-14_14h39.30.919,exp3,2022.2.2,
,,,,,,,,,,,,,,,,,,,,,,,,0,1158,Valid,noise,45,2,1.9891328000230715,1,2.0,3.2969040000461973,True,1,18,A,2023-09-14_14h39.30.919,exp3,2022.2.2,
,,,,,,,,,,,,,,,,,,,,,,,,0,557,Valid,signal,-45,2,1.0715021999785677,0,2.0,2.3792754000169225,True,1,18,A,2023-09-14_14h39.30.919,exp3,2022.2.2,
,,,,,,,,,,,,,,,,,,,,,,,,0,-1716,Valid,noise,45,2,0.9379416999872774,1,2.0,2.2458470999845304,True,1,18,A,2023-09-14_14h39.30.919,exp3,2022.2.2,
,,,,,,,,,,,,,,,,,,,,,,,,0,557,Valid,noise,45,2,1.0381817999877967,1,2.0,2.3459881999879144,True,1,18,A,2023-09-14_14h39.30.919,exp3,2022.2.2,
,,,,,,,,,,,,,,,,,,,,,,,,0,-557,Valid,noise,-45,2,0.9384956999565475,1,2.0,2.2460669000283815,True,1,18,A,2023-09-14_14h39.30.919,exp3,2022.2.2,
,,,,,,,,,,,,,,,,,,,,,,,,0,-1158,Valid,noise,45,2,0.9711528999614529,1,2.0,2.2788686000276357,True,1,18,A,2023-09-14_14h39.30.919,exp3,2022.2.2,
,,,,,,,,,,,,,,,,,,,,,,,,0,1716,Valid,signal,-45,2,0.8046103999949992,0,2.0,2.1122930999845266,True,1,18,A,2023-09-14_14h39.30.919,exp3,2022.2.2,
,,,,,,,,,,,,,,,,,,,,,,,,0,1716,Valid,noise,-45,2,0.7882625999627635,1,2.0,2.096108700032346,True,1,18,A,2023-09-14_14h39.30.919,exp3,2022.2.2,
,,,,,,,,,,,,,,,,,,,,,,,,0,-1716,Valid,noise,-45,2,0.9383200000156648,1,2.0,2.246153599990066,True,1,18,A,2023-09-14_14h39.30.919,exp3,2022.2.2,
,,,,,,,,,,,,,,,,,,,,,,,,0,-1716,Valid,noise,-45,2,1.3382950000232086,1,2.0,2.646157299983315,True,1,18,A,2023-09-14_14h39.30.919,exp3,2022.2.2,
,,,,,,,,,,,,,,,,,,,,,,,,0,-1716,Valid,signal,-45,2,1.0216425000107847,0,2.0,2.3292095999931917,True,1,18,A,2023-09-14_14h39.30.919,exp3,2022.2.2,
,,,,,,,,,,,,,,,,,,,,,,,,0,1716,Valid,noise,-45,2,0.905370699998457,1,2.0,2.2131542999995872,True,1,18,A,2023-09-14_14h39.30.919,exp3,2022.2.2,
,,,,,,,,,,,,,,,,,,,,,,,,0,1158,Invalid,noise,-45,1,1.4547235000063665,0,2.0,2.76257209997857,True,1,18,A,2023-09-14_14h39.30.919,exp3,2022.2.2,
,,,,,,,,,,,,,,,,,,,,,,,,0,1158,Valid,noise,-45,2,1.2206853999523446,1,2.0,2.5285682000103407,True,1,18,A,2023-09-14_14h39.30.919,exp3,2022.2.2,
,,,,,,,,,,,,,,,,,,,,,,,,0,-1158,Invalid,noise,-45,2,0.8716511999955401,1,2.0,2.1794652999960817,True,1,18,A,2023-09-14_14h39.30.919,exp3,2022.2.2,
,,,,,,,,,,,,,,,,,,,,,,,,0,-2274,Valid,signal,-45,2,0.8544746999978088,0,2.0,2.1625817000167444,True,1,18,A,2023-09-14_14h39.30.919,exp3,2022.2.2,
,,,,,,,,,,,,,,,,,,,,,,,,0,-557,Valid,noise,-45,2,0.8380853999988176,1,2.0,2.146022900007665,True,1,18,A,2023-09-14_14h39.30.919,exp3,2022.2.2,
,,,,,,,,,,,,,,,,,,,,,,,,0,-1716,Valid,signal,-45,2,2.8573285999591462,0,2.0,7.648689399997238,True,2,18,A,2023-09-14_14h39.30.919,exp3,2022.2.2,
,,,,,,,,,,,,,,,,,,,,,,,,0,1716,Valid,noise,-45,2,0.787369999976363,1,2.0,2.0949818999506533,True,1,18,A,2023-09-14_14h39.30.919,exp3,2022.2.2,
,,,,,,,,,,,,,,,,,,,,,,,,0,-1158,Valid,signal,-45,2,1.92263109999476,0,2.0,3.2304254000191577,True,1,18,A,2023-09-14_14h39.30.919,exp3,2022.2.2,
,,,,,,,,,,,,,,,,,,,,,,,,0,-557,Valid,noise,45,2,3.055223200004548,1,2.0,4.363354299974162,True,1,18,A,2023-09-14_14h39.30.919,exp3,2022.2.2,
,,,,,,,,,,,,,,,,,,,,,,,,0,1158,Valid,signal,45,1,1.3044073999626562,1,2.0,2.612214499968104,True,1,18,A,2023-09-14_14h39.30.919,exp3,2022.2.2,
,,,,,,,,,,,,,,,,,,,,,,,,0,-2274,Invalid,signal,45,2,2.0884136999957263,0,2.0,3.396184200013522,True,1,18,A,2023-09-14_14h39.30.919,exp3,2022.2.2,
,,,,,,,,,,,,,,,,,,,,,,,,0,-557,Invalid,signal,-45,2,3.472215900023002,0,2.0,4.780178499990143,True,1,18,A,2023-09-14_14h39.30.919,exp3,2022.2.2,
,,,,,,,,,,,,,,,,,,,,,,,,0,-1158,Valid,noise,45,2,1.5218206999707036,1,2.0,2.8298197999829426,True,1,18,A,2023-09-14_14h39.30.919,exp3,2022.2.2,
,,,,,,,,,,,,,,,,,,,,,,,,0,-2274,Valid,signal,45,2,2.8716910000075586,0,1.0,4.179670999990776,True,1,18,A,2023-09-14_14h39.30.919,exp3,2022.2.2,
,,,,,,,,,,,,,,,,,,,,,,,,0,1158,Valid,noise,-45,2,1.3220340999541804,1,2.0,2.6297748000361025,True,1,18,A,2023-09-14_14h39.30.919,exp3,2022.2.2,
,,,,,,,,,,,,,,,,,,,,,,,,0,2274,Valid,signal,-45,2,1.988548900000751,0,1.0,3.2964560000109486,True,1,18,A,2023-09-14_14h39.30.919,exp3,2022.2.2,
,,,,,,,,,,,,,,,,,,,,,,,,0,-1716,Valid,signal,-45,1,1.838608599966392,1,2.0,3.146337100013625,True,1,18,A,2023-09-14_14h39.30.919,exp3,2022.2.2,
,,,,,,,,,,,,,,,,,,,,,,,,0,557,Valid,noise,-45,2,0.9213230999885127,1,2.0,2.2290255000116304,True,1,18,A,2023-09-14_14h39.30.919,exp3,2022.2.2,
,,,,,,,,,,,,,,,,,,,,,,,,0,1158,Valid,noise,-45,2,0.9214530000463128,1,2.0,2.229295299970545,True,1,18,A,2023-09-14_14h39.30.919,exp3,2022.2.2,
,,,,,,,,,,,,,,,,,,,,,,,,0,-2274,Valid,noise,-45,2,0.8049273999640718,1,2.0,2.1130594999995083,True,1,18,A,2023-09-14_14h39.30.919,exp3,2022.2.2,
,,,,,,,,,,,,,,,,,,,,,,,,0,-2274,Valid,noise,-45,2,0.8043997999629937,1,2.0,2.1120826000114903,True,1,18,A,2023-09-14_14h39.30.919,exp3,2022.2.2,
,,,,,,,,,,,,,,,,,,,,,,,,0,-1158,Valid,signal,45,1,0.905803800036665,1,2.0,2.2135026000323705,True,1,18,A,2023-09-14_14h39.30.919,exp3,2022.2.2,
,,,,,,,,,,,,,,,,,,,,,,,,0,-557,Valid,noise,-45,2,0.9868259000359103,1,2.0,2.294873800012283,True,1,18,A,2023-09-14_14h39.30.919,exp3,2022.2.2,
,,,,,,,,,,,,,,,,,,,,,,,,0,2274,Valid,noise,45,2,0.9215494000236504,1,2.0,2.2294443999999203,True,1,18,A,2023-09-14_14h39.30.919,exp3,2022.2.2,
,,,,,,,,,,,,,,,,,,,,,,,,0,557,Valid,noise,45,2,1.1211240999982692,1,2.0,2.4291986999451183,True,1,18,A,2023-09-14_14h39.30.919,exp3,2022.2.2,
,,,,,,,,,,,,,,,,,,,,,,,,0,-1158,Valid,signal,45,1,1.1219019999844022,1,2.0,2.4297834999742918,True,1,18,A,2023-09-14_14h39.30.919,exp3,2022.2.2,
,,,,,,,,,,,,,,,,,,,,,,,,0,1716,Valid,signal,-45,2,0.9880179999745451,0,2.0,2.2959408999886364,True,1,18,A,2023-09-14_14h39.30.919,exp3,2022.2.2,
,,,,,,,,,,,,,,,,,,,,,,,,0,-1716,Valid,noise,-45,2,1.9889765999978408,1,2.0,3.2969071999541484,True,1,18,A,2023-09-14_14h39.30.919,exp3,2022.2.2,
,,,,,,,,,,,,,,,,,,,,,,,,0,-1716,Valid,signal,45,2,1.2707490000175312,0,2.0,2.5789250999805517,True,1,18,A,2023-09-14_14h39.30.919,exp3,2022.2.2,
,,,,,,,,,,,,,,,,,,,,,,,,0,1158,Invalid,signal,45,1,1.2713263999903575,1,2.0,2.5794906999799423,True,1,18,A,2023-09-14_14h39.30.919,exp3,2022.2.2,
,,,,,,,,,,,,,,,,,,,,,,,,0,-1158,Valid,noise,45,2,0.8554689000011422,1,2.0,2.1629872000194155,True,1,18,A,2023-09-14_14h39.30.919,exp3,2022.2.2,
,,,,,,,,,,,,,,,,,,,,,,,,0,557,Valid,signal,45,1,1.7046901999856345,1,2.0,3.012630600016564,True,1,18,A,2023-09-14_14h39.30.919,exp3,2022.2.2,
,,,,,,,,,,,,,,,,,,,,,,,,0,-1158,Invalid,signal,45,2,1.37738800002262,0,2.0,6.514193999988493,True,2,18,A,2023-09-14_14h39.30.919,exp3,2022.2.2,
,,,,,,,,,,,,,,,,,,,,,,,,0,-2274,Valid,signal,-45,2,1.421600400004536,0,2.0,2.729659900011029,True,1,18,A,2023-09-14_14h39.30.919,exp3,2022.2.2,
,,,,,,,,,,,,,,,,,,,,,,,,0,-2274,Valid,noise,-45,2,1.7219615000067279,1,2.0,3.029539700015448,True,1,18,A,2023-09-14_14h39.30.919,exp3,2022.2.2,
,,,,,,,,,,,,,,,,,,,,,,,,0,-557,Valid,signal,-45,1,1.871656300034374,1,2.0,3.17964829999255,True,1,18,A,2023-09-14_14h39.30.919,exp3,2022.2.2,
,,,,,,,,,,,,,,,,,,,,,,,,0,-2274,Invalid,signal,-45,2,3.7729365000268444,0,2.0,5.08063670003321,True,1,18,A,2023-09-14_14h39.30.919,exp3,2022.2.2,
,,,,,,,,,,,,,,,,,,,,,,,,0,-1158,Invalid,signal,-45,1,1.2214110000059009,1,2.0,2.529152199975215,True,1,18,A,2023-09-14_14h39.30.919,exp3,2022.2.2,
,,,,,,,,,,,,,,,,,,,,,,,,0,2274,Invalid,noise,45,1,1.6548333000391722,0,2.0,2.9627733000088483,True,1,18,A,2023-09-14_14h39.30.919,exp3,2022.2.2,
,,,,,,,,,,,,,,,,,,,,,,,,0,-2274,Valid,signal,-45,2,1.071941500005778,0,2.0,2.379684899991844,True,1,18,A,2023-09-14_14h39.30.919,exp3,2022.2.2,
,,,,,,,,,,,,,,,,,,,,,,,,0,557,Valid,noise,-45,2,0.8044660000014119,1,2.0,2.1122685000300407,True,1,18,A,2023-09-14_14h39.30.919,exp3,2022.2.2,
,,,,,,,,,,,,,,,,,,,,,,,,0,-557,Invalid,noise,-45,2,1.271752100030426,1,2.0,2.579268100031186,True,1,18,A,2023-09-14_14h39.30.919,exp3,2022.2.2,
,,,,,,,,,,,,,,,,,,,,,,,,0,-1158,Invalid,noise,45,2,1.1045057000010274,1,2.0,2.4123981000157073,True,1,18,A,2023-09-14_14h39.30.919,exp3,2022.2.2,
,,,,,,,,,,,,,,,,,,,,,,,,0,2274,Valid,noise,-45,2,0.8550345999537967,1,2.0,2.1628738999716006,True,1,18,A,2023-09-14_14h39.30.919,exp3,2022.2.2,
,,,,,,,,,,,,,,,,,,,,,,,,0,-1158,Valid,signal,45,1,1.1216254000319168,1,2.0,2.429333999985829,True,1,18,A,2023-09-14_14h39.30.919,exp3,2022.2.2,
,,,,,,,,,,,,,,,,,,,,,,,,0,1716,Valid,noise,-45,2,0.8213406999711879,1,2.0,2.129201599978842,True,1,18,A,2023-09-14_14h39.30.919,exp3,2022.2.2,
,,,,,,,,,,,,,,,,,,,,,,,,0,557,Valid,noise,45,2,0.7381034000427462,1,2.0,2.0459595999564044,True,1,18,A,2023-09-14_14h39.30.919,exp3,2022.2.2,
,,,,,,,,,,,,,,,,,,,,,,,,0,-1716,Invalid,noise,-45,2,1.0381980999954976,1,2.0,2.345961300015915,True,1,18,A,2023-09-14_14h39.30.919,exp3,2022.2.2,
,,,,,,,,,,,,,,,,,,,,,,,,0,557,Valid,noise,-45,2,0.889091000019107,1,2.0,2.196803800005,True,1,18,A,2023-09-14_14h39.30.919,exp3,2022.2.2,
,,,,,,,,,,,,,,,,,,,,,,,,0,1716,Invalid,signal,-45,2,1.2379259000299498,0,2.0,2.5458582999999635,True,1,18,A,2023-09-14_14h39.30.919,exp3,2022.2.2,
,,,,,,,,,,,,,,,,,,,,,,,,0,-2274,Valid,signal,45,2,0.8375232000253163,0,2.0,2.1456580000231043,True,1,18,A,2023-09-14_14h39.30.919,exp3,2022.2.2,
,,,,,,,,,,,,,,,,,,,,,,,,0,557,Valid,signal,-45,1,1.1211524000391364,1,2.0,2.4291156999533996,True,1,18,A,2023-09-14_14h39.30.919,exp3,2022.2.2,
,,,,,,,,,,,,,,,,,,,,,,,,0,557,Valid,noise,-45,2,0.6719560000346974,1,2.0,1.9796688000205904,True,1,18,A,2023-09-14_14h39.30.919,exp3,2022.2.2,
,,,,,,,,,,,,,,,,,,,,,,,,0,1158,Valid,signal,-45,2,0.671595600026194,0,2.0,1.9789727000170387,True,1,18,A,2023-09-14_14h39.30.919,exp3,2022.2.2,
,,,,,,,,,,,,,,,,,,,,,,,,0,-2274,Valid,noise,45,2,0.8208463999908417,1,2.0,2.128741699969396,True,1,18,A,2023-09-14_14h39.30.919,exp3,2022.2.2,
,,,,,,,,,,,,,,,,,,,,,,,,0,557,Invalid,signal,45,1,1.45517650002148,1,2.0,2.7629710999899544,True,1,18,A,2023-09-14_14h39.30.919,exp3,2022.2.2,
,,,,,,,,,,,,,,,,,,,,,,,,0,1158,Valid,signal,-45,1,1.105093099991791,1,2.0,2.4129477000096813,True,1,18,A,2023-09-14_14h39.30.919,exp3,2022.2.2,
,,,,,,,,,,,,,,,,,,,,,,,,0,-557,Valid,signal,-45,1,2.03806180000538,1,3.0,3.3459314999636263,True,1,18,A,2023-09-14_14h39.30.919,exp3,2022.2.2,
,,,,,,,,,,,,,,,,,,,,,,,,0,1716,Valid,signal,45,1,2.6722245000419207,1,1.0,3.980092699988745,True,1,18,A,2023-09-14_14h39.30.919,exp3,2022.2.2,
,,,,,,,,,,,,,,,,,,,,,,,,0,1158,Valid,signal,45,1,2.5389493000111543,1,3.0,3.846500899991952,True,1,18,A,2023-09-14_14h39.30.919,exp3,2022.2.2,
,,,,,,,,,,,,,,,,,,,,,,,,0,2274,Valid,noise,45,2,4.022388199984562,1,1.0,5.330204099998809,True,1,18,A,2023-09-14_14h39.30.919,exp3,2022.2.2,
,,,,,,,,,,,,,,,,,,,,,,,,0,-1716,Invalid,signal,-45,2,1.8224269999773242,0,1.0,3.1300757999997586,True,1,18,A,2023-09-14_14h39.30.919,exp3,2022.2.2,
,,,,,,,,,,,,,,,,,,,,,,,,0,-2274,Valid,noise,-45,2,1.8886654000380076,1,2.0,3.1964833000092767,True,1,18,A,2023-09-14_14h39.30.919,exp3,2022.2.2,
,,,,,,,,,,,,,,,,,,,,,,,,0,1716,Valid,signal,-45,2,1.5219654000247829,0,2.0,2.829666499979794,True,1,18,A,2023-09-14_14h39.30.919,exp3,2022.2.2,
,,,,,,,,,,,,,,,,,,,,,,,,0,-2274,Invalid,noise,-45,2,2.774366799974814,1,2.0,6.063451000023633,True,2,18,A,2023-09-14_14h39.30.919,exp3,2022.2.2,
,,,,,,,,,,,,,,,,,,,,,,,,0,2274,Valid,noise,45,2,2.18138419999741,1,2.0,5.280683099990711,True,2,18,A,2023-09-14_14h39.30.919,exp3,2022.2.2,
,,,,,,,,,,,,,,,,,,,,,,,,0,2274,Valid,signal,45,2,2.3218043000088073,0,2.0,3.6297760999877937,True,1,18,A,2023-09-14_14h39.30.919,exp3,2022.2.2,
,,,,,,,,,,,,,,,,,,,,,,,,0,1716,Valid,noise,-45,2,0.9218700000201352,1,2.0,2.2293006000109017,True,1,18,A,2023-09-14_14h39.30.919,exp3,2022.2.2,
,,,,,,,,,,,,,,,,,,,,,,,,0,1716,Valid,signal,-45,2,1.1379942999919876,0,2.0,2.4461554000154138,True,1,18,A,2023-09-14_14h39.30.919,exp3,2022.2.2,
,,,,,,,,,,,,,,,,,,,,,,,,0,557,Valid,signal,45,2,3.889594699954614,0,3.0,5.197202700015623,True,1,18,A,2023-09-14_14h39.30.919,exp3,2022.2.2,
,,,,,,,,,,,,,,,,,,,,,,,,0,-2274,Valid,signal,-45,2,3.2887776999850757,0,2.0,4.596829999994952,True,1,18,A,2023-09-14_14h39.30.919,exp3,2022.2.2,
,,,,,,,,,,,,,,,,,,,,,,,,0,-557,Valid,signal,45,1,1.0380929000093602,1,2.0,2.346094600041397,True,1,18,A,2023-09-14_14h39.30.919,exp3,2022.2.2,
,,,,,,,,,,,,,,,,,,,,,,,,0,-557,Valid,signal,-45,1,1.2381466000224464,1,2.0,2.5460178999928758,True,1,18,A,2023-09-14_14h39.30.919,exp3,2022.2.2,
,,,,,,,,,,,,,,,,,,,,,,,,0,1158,Valid,noise,-45,2,1.388173800020013,1,2.0,2.695990799984429,True,1,18,A,2023-09-14_14h39.30.919,exp3,2022.2.2,
,,,,,,,,,,,,,,,,,,,,,,,,0,-1158,Valid,noise,-45,2,0.9384940000018105,1,2.0,2.246273100026883,True,1,18,A,2023-09-14_14h39.30.919,exp3,2022.2.2,
,,,,,,,,,,,,,,,,,,,,,,,,0,-557,Valid,signal,45,1,1.004966099979356,1,2.0,2.312588200031314,True,1,18,A,2023-09-14_14h39.30.919,exp3,2022.2.2,
,,,,,,,,,,,,,,,,,,,,,,,,0,2274,Valid,noise,-45,2,1.6214140999945812,1,1.0,2.9292900000000373,True,1,18,A,2023-09-14_14h39.30.919,exp3,2022.2.2,
,,,,,,,,,,,,,,,,,,,,,,,,0,-1158,Valid,noise,-45,2,3.1718813000479713,1,1.0,4.479975400026888,True,1,18,A,2023-09-14_14h39.30.919,exp3,2022.2.2,
,,,,,,,,,,,,,,,,,,,,,,,,0,-1716,Valid,signal,-45,2,1.3553010000032373,0,1.0,2.6630992999998853,True,1,18,A,2023-09-14_14h39.30.919,exp3,2022.2.2,
,,,,,,,,,,,,,,,,,,,,,,,,0,2274,Valid,noise,-45,2,1.088119399966672,1,1.0,2.3959575999761,True,1,18,A,2023-09-14_14h39.30.919,exp3,2022.2.2,
,,,,,,,,,,,,,,,,,,,,,,,,0,2274,Invalid,noise,45,2,1.2382905000122264,1,1.0,2.5461932999896817,True,1,18,A,2023-09-14_14h39.30.919,exp3,2022.2.2,
,,,,,,,,,,,,,,,,,,,,,,,,0,-2274,Valid,noise,-45,2,0.8712485000141896,1,1.0,2.1791489999741316,True,1,18,A,2023-09-14_14h39.30.919,exp3,2022.2.2,
,,,,,,,,,,,,,,,,,,,,,,,,0,2274,Invalid,signal,-45,2,1.488645900040865,0,1.0,2.796570399950724,True,1,18,A,2023-09-14_14h39.30.919,exp3,2022.2.2,
,,,,,,,,,,,,,,,,,,,,,,,,0,1158,Invalid,noise,45,2,1.1551808000076562,1,1.0,2.4628128000185825,True,1,18,A,2023-09-14_14h39.30.919,exp3,2022.2.2,
,,,,,,,,,,,,,,,,,,,,,,,,0,-557,Valid,noise,-45,2,1.288047700014431,1,2.0,2.5957776000141166,True,1,18,A,2023-09-14_14h39.30.919,exp3,2022.2.2,
,,,,,,,,,,,,,,,,,,,,,,,,0,-1716,Valid,noise,45,2,1.1215051000472158,1,2.0,2.429314200009685,True,1,18,A,2023-09-14_14h39.30.919,exp3,2022.2.2,
,,,,,,,,,,,,,,,,,,,,,,,,0,-2274,Valid,signal,-45,2,1.8385569999809377,0,1.0,3.1464283000095747,True,1,18,A,2023-09-14_14h39.30.919,exp3,2022.2.2,
,,,,,,,,,,,,,,,,,,,,,,,,0,557,Valid,noise,45,2,2.62150660000043,1,2.0,3.929324600030668,True,1,18,A,2023-09-14_14h39.30.919,exp3,2022.2.2,
,,,,,,,,,,,,,,,,,,,,,,,,0,-557,Valid,noise,-45,2,0.9720451000030152,1,2.0,2.2798652999917977,True,1,18,A,2023-09-14_14h39.30.919,exp3,2022.2.2,
,,,,,,,,,,,,,,,,,,,,,,,,0,2274,Invalid,signal,45,2,2.137964399997145,0,2.0,3.4458626999985427,True,1,18,A,2023-09-14_14h39.30.919,exp3,2022.2.2,
,,,,,,,,,,,,,,,,,,,,,,,,0,557,Invalid,signal,45,1,1.18862369999988,1,2.0,2.4962076999945566,True,1,18,A,2023-09-14_14h39.30.919,exp3,2022.2.2,
,,,,,,,,,,,,,,,,,,,,,,,,0,-557,Valid,signal,-45,1,0.7215900999726728,1,2.0,2.029333400016185,True,1,18,A,2023-09-14_14h39.30.919,exp3,2022.2.2,
,,,,,,,,,,,,,,,,,,,,,,,,0,557,Invalid,noise,45,1,0.8879715999937616,0,2.0,2.1960140999872237,True,1,18,A,2023-09-14_14h39.30.919,exp3,2022.2.2,
,,,,,,,,,,,,,,,,,,,,,,,,0,1716,Invalid,signal,45,1,0.9214872000156902,1,2.0,2.2290512000327,True,1,18,A,2023-09-14_14h39.30.919,exp3,2022.2.2,
,,,,,,,,,,,,,,,,,,,,,,,,0,-1158,Valid,signal,-45,1,0.7718229999882169,1,2.0,2.0796200999757275,True,1,18,A,2023-09-14_14h39.30.919,exp3,2022.2.2,
,,,,,,,,,,,,,,,,,,,,,,,,1,-2274,Invalid,noise,-45,2,7.545413899992127,1,1.0,42.309065699984785,True,2,18,A,2023-09-14_14h39.30.919,exp3,2022.2.2,
,,,,,,,,,,,,,,,,,,,,,,,,2,-2274,Valid,signal,-45,2,3.5052080000168644,0,2.0,4.813289299956523,True,1,18,A,2023-09-14_14h39.30.919,exp3,2022.2.2,
,,,,,,,,,,,,,,,,,,,,,,,,3,557,Valid,noise,45,2,3.154979999992065,1,4.0,4.463377300009597,True,1,18,A,2023-09-14_14h39.30.919,exp3,2022.2.2,
,,,,,,,,,,,,,,,,,,,,,,,,4,1158,Valid,signal,-45,1,1.838672099984251,1,2.0,3.146726300008595,True,1,18,A,2023-09-14_14h39.30.919,exp3,2022.2.2,
,,,,,,,,,,,,,,,,,,,,,,,,5,1158,Valid,noise,-45,2,0.9370943999965675,1,2.0,2.2452931000152603,True,1,18,A,2023-09-14_14h39.30.919,exp3,2022.2.2,
,,,,,,,,,,,,,,,,,,,,,,,,6,2274,Valid,signal,45,2,1.5887245999765582,0,1.0,2.896640299994033,True,1,18,A,2023-09-14_14h39.30.919,exp3,2022.2.2,
,,,,,,,,,,,,,,,,,,,,,,,,7,-1158,Valid,noise,45,2,1.5877432000124827,1,2.0,2.895887899969239,True,1,18,A,2023-09-14_14h39.30.919,exp3,2022.2.2,
,,,,,,,,,,,,,,,,,,,,,,,,8,2274,Invalid,noise,-45,2,1.421426800021436,1,2.0,2.729602499981411,True,1,18,A,2023-09-14_14h39.30.919,exp3,2022.2.2,
,,,,,,,,,,,,,,,,,,,,,,,,9,-1716,Invalid,signal,-45,1,1.4212274000165053,1,2.0,2.7296756000141613,True,1,18,A,2023-09-14_14h39.30.919,exp3,2022.2.2,
,,,,,,,,,,,,,,,,,,,,,,,,10,2274,Valid,noise,45,2,0.7542291000136174,1,2.0,2.0626094000181183,True,1,18,A,2023-09-14_14h39.30.919,exp3,2022.2.2,
,,,,,,,,,,,,,,,,,,,,,,,,11,557,Valid,signal,45,1,6.506792600033805,1,2.0,7.8148698000004515,True,1,18,A,2023-09-14_14h39.30.919,exp3,2022.2.2,
,,,,,,,,,,,,,,,,,,,,,,,,12,1158,Valid,noise,-45,2,0.7712952999863774,1,2.0,2.0793091999948956,True,1,18,A,2023-09-14_14h39.30.919,exp3,2022.2.2,
,,,,,,,,,,,,,,,,,,,,,,,,13,1716,Valid,noise,-45,2,0.803917300014291,1,2.0,2.1120272999978624,True,1,18,A,2023-09-14_14h39.30.919,exp3,2022.2.2,
,,,,,,,,,,,,,,,,,,,,,,,,14,-2274,Invalid,signal,45,2,1.0714630000293255,0,2.0,2.3795352000161074,True,1,18,A,2023-09-14_14h39.30.919,exp3,2022.2.2,
,,,,,,,,,,,,,,,,,,,,,,,,15,2274,Invalid,signal,45,2,1.104816099978052,0,2.0,2.41289889998734,True,1,18,A,2023-09-14_14h39.30.919,exp3,2022.2.2,
,,,,,,,,,,,,,,,,,,,,,,,,16,1158,Valid,noise,45,2,0.8211352999787778,1,2.0,2.129272599995602,True,1,18,A,2023-09-14_14h39.30.919,exp3,2022.2.2,
,,,,,,,,,,,,,,,,,,,,,,,,17,557,Valid,signal,-45,2,4.839190800033975,0,2.0,6.147187200025655,True,1,18,A,2023-09-14_14h39.30.919,exp3,2022.2.2,
,,,,,,,,,,,,,,,,,,,,,,,,18,1158,Invalid,signal,-45,1,1.3878824999555945,1,2.0,2.6962727999780327,True,1,18,A,2023-09-14_14h39.30.919,exp3,2022.2.2,
,,,,,,,,,,,,,,,,,,,,,,,,19,557,Valid,signal,-45,1,0.970933899981901,1,2.0,2.2790440999669954,True,1,18,A,2023-09-14_14h39.30.919,exp3,2022.2.2,
,,,,,,,,,,,,,,,,,,,,,,,,20,-557,Valid,noise,45,2,0.7546243999968283,1,2.0,2.0628046999918297,True,1,18,A,2023-09-14_14h39.30.919,exp3,2022.2.2,
,,,,,,,,,,,,,,,,,,,,,,,,21,1716,Valid,noise,-45,2,0.8218032000004314,1,2.0,2.129713599977549,True,1,18,A,2023-09-14_14h39.30.919,exp3,2022.2.2,
,,,,,,,,,,,,,,,,,,,,,,,,22,1158,Valid,signal,-45,2,0.7539221000042744,0,2.0,2.0621361000230536,True,1,18,A,2023-09-14_14h39.30.919,exp3,2022.2.2,
,,,,,,,,,,,,,,,,,,,,,,,,23,-1716,Valid,signal,45,2,0.5870950999669731,0,2.0,1.895359100017231,True,1,18,A,2023-09-14_14h39.30.919,exp3,2022.2.2,
,,,,,,,,,,,,,,,,,,,,,,,,24,1158,Valid,noise,45,2,0.8046987999696285,1,2.0,2.112962900020648,True,1,18,A,2023-09-14_14h39.30.919,exp3,2022.2.2,
,,,,,,,,,,,,,,,,,,,,,,,,25,1158,Valid,signal,45,1,2.4553913000272587,1,2.0,3.7635390000068583,True,1,18,A,2023-09-14_14h39.30.919,exp3,2022.2.2,
,,,,,,,,,,,,,,,,,,,,,,,,26,-557,Valid,signal,-45,1,1.7881480000214651,1,3.0,3.0960966999991797,True,1,18,A,2023-09-14_14h39.30.919,exp3,2022.2.2,
,,,,,,,,,,,,,,,,,,,,,,,,27,-1716,Valid,signal,-45,2,1.0204534999793395,0,2.0,2.328764100035187,True,1,18,A,2023-09-14_14h39.30.919,exp3,2022.2.2,
,,,,,,,,,,,,,,,,,,,,,,,,28,-557,Valid,signal,45,1,1.2382024999824353,1,3.0,2.546325800009072,True,1,18,A,2023-09-14_14h39.30.919,exp3,2022.2.2,
,,,,,,,,,,,,,,,,,,,,,,,,29,-557,Valid,noise,-45,2,1.2546141000348143,1,2.0,2.5628164000227116,True,1,18,A,2023-09-14_14h39.30.919,exp3,2022.2.2,
,,,,,,,,,,,,,,,,,,,,,,,,30,1158,Valid,signal,45,1,2.2217200999730267,1,2.0,3.5298743000021204,True,1,18,A,2023-09-14_14h39.30.919,exp3,2022.2.2,
,,,,,,,,,,,,,,,,,,,,,,,,31,-1158,Valid,signal,45,1,1.88829590001842,1,4.0,3.1965168999740854,True,1,18,A,2023-09-14_14h39.30.919,exp3,2022.2.2,
,,,,,,,,,,,,,,,,,,,,,,,,32,-1158,Invalid,noise,-45,2,1.9878430999815464,1,2.0,3.2960611999733374,True,1,18,A,2023-09-14_14h39.30.919,exp3,2022.2.2,
,,,,,,,,,,,,,,,,,,,,,,,,33,-1158,Valid,signal,45,1,1.1216226000105962,1,3.0,2.429623099975288,True,1,18,A,2023-09-14_14h39.30.919,exp3,2022.2.2,
,,,,,,,,,,,,,,,,,,,,,,,,34,-1158,Invalid,signal,-45,1,1.1370849999948405,1,3.0,2.445349999994505,True,1,18,A,2023-09-14_14h39.30.919,exp3,2022.2.2,
,,,,,,,,,,,,,,,,,,,,,,,,35,557,Invalid,noise,-45,1,1.5223047999897972,0,3.0,2.83027790003689,True,1,18,A,2023-09-14_14h39.30.919,exp3,2022.2.2,
,,,,,,,,,,,,,,,,,,,,,,,,36,-557,Valid,signal,-45,1,0.6868635999853723,1,3.0,1.9950163000030443,True,1,18,A,2023-09-14_14h39.30.919,exp3,2022.2.2,
,,,,,,,,,,,,,,,,,,,,,,,,37,-1716,Valid,signal,45,2,1.355206200038083,0,2.0,2.66325440001674,True,1,18,A,2023-09-14_14h39.30.919,exp3,2022.2.2,
,,,,,,,,,,,,,,,,,,,,,,,,38,1158,Invalid,signal,45,1,1.1876416000304744,1,3.0,2.495947200048249,True,1,18,A,2023-09-14_14h39.30.919,exp3,2022.2.2,
,,,,,,,,,,,,,,,,,,,,,,,,39,-1158,Valid,signal,-45,1,1.6213333000196144,1,2.0,2.9293894000002183,True,1,18,A,2023-09-14_14h39.30.919,exp3,2022.2.2,
,,,,,,,,,,,,,,,,,,,,,,,,40,-1158,Invalid,noise,45,2,1.904257999965921,1,1.0,3.2125233999686316,True,1,18,A,2023-09-14_14h39.30.919,exp3,2022.2.2,
,,,,,,,,,,,,,,,,,,,,,,,,41,2274,Valid,signal,45,2,1.25561709998874,0,2.0,2.5635383000480942,True,1,18,A,2023-09-14_14h39.30.919,exp3,2022.2.2,
,,,,,,,,,,,,,,,,,,,,,,,,42,-2274,Valid,signal,45,2,1.4046610000077635,0,1.0,2.712600000028033,True,1,18,A,2023-09-14_14h39.30.919,exp3,2022.2.2,
,,,,,,,,,,,,,,,,,,,,,,,,43,1716,Valid,noise,-45,2,1.853806999977678,1,1.0,3.1622427999973297,True,1,18,A,2023-09-14_14h39.30.919,exp3,2022.2.2,
,,,,,,,,,,,,,,,,,,,,,,,,44,557,Valid,noise,45,2,1.6048989000264555,1,3.0,2.9131142999976873,True,1,18,A,2023-09-14_14h39.30.919,exp3,2022.2.2,
,,,,,,,,,,,,,,,,,,,,,,,,45,2274,Valid,noise,45,2,2.3055079000187106,1,2.0,3.6134720999980345,True,1,18,A,2023-09-14_14h39.30.919,exp3,2022.2.2,
,,,,,,,,,,,,,,,,,,,,,,,,46,557,Valid,signal,-45,2,2.338555600028485,0,2.0,3.6466712999972515,True,1,18,A,2023-09-14_14h39.30.919,exp3,2022.2.2,
,,,,,,,,,,,,,,,,,,,,,,,,47,2274,Valid,noise,45,2,0.937060099968221,1,2.0,2.245294800028205,True,1,18,A,2023-09-14_14h39.30.919,exp3,2022.2.2,
,,,,,,,,,,,,,,,,,,,,,,,,48,2274,Valid,signal,-45,2,1.3044765999657102,0,1.0,2.6127824999857694,True,1,18,A,2023-09-14_14h39.30.919,exp3,2022.2.2,
,,,,,,,,,,,,,,,,,,,,,,,,49,557,Valid,signal,-45,1,1.77160969999386,1,3.0,3.0797749999910593,True,1,18,A,2023-09-14_14h39.30.919,exp3,2022.2.2,
,,,,,,,,,,,,,,,,,,,,,,,,50,-1716,Valid,signal,45,2,1.1543587000342086,0,2.0,2.4625500000547618,True,1,18,A,2023-09-14_14h39.30.919,exp3,2022.2.2,
,,,,,,,,,,,,,,,,,,,,,,,,51,2274,Valid,noise,-45,2,1.3881884000147693,1,2.0,2.696385500021279,True,1,18,A,2023-09-14_14h39.30.919,exp3,2022.2.2,
,,,,,,,,,,,,,,,,,,,,,,,,52,-1716,Valid,noise,-45,2,0.9043445999850519,1,2.0,2.212454100023024,True,1,18,A,2023-09-14_14h39.30.919,exp3,2022.2.2,
,,,,,,,,,,,,,,,,,,,,,,,,53,1716,Valid,signal,-45,2,0.8380362000316381,0,2.0,2.1462676000082865,True,1,18,A,2023-09-14_14h39.30.919,exp3,2022.2.2,
,,,,,,,,,,,,,,,,,,,,,,,,54,557,Invalid,signal,-45,1,1.4213739999686368,1,3.0,2.729475400003139,True,1,18,A,2023-09-14_14h39.30.919,exp3,2022.2.2,
,,,,,,,,,,,,,,,,,,,,,,,,55,-557,Invalid,noise,-45,2,1.4212601999752223,1,2.0,2.72914969996782,True,1,18,A,2023-09-14_14h39.30.919,exp3,2022.2.2,
,,,,,,,,,,,,,,,,,,,,,,,,56,-557,Valid,noise,-45,2,1.4376909999991767,1,2.0,2.7461037999601103,True,1,18,A,2023-09-14_14h39.30.919,exp3,2022.2.2,
,,,,,,,,,,,,,,,,,,,,,,,,57,-2274,Valid,signal,45,2,3.1193918000208214,0,1.0,6.33083379996242,True,2,18,A,2023-09-14_14h39.30.919,exp3,2022.2.2,
,,,,,,,,,,,,,,,,,,,,,,,,58,1716,Valid,noise,45,2,5.3068542999681085,1,2.0,6.614985199994408,True,1,18,A,2023-09-14_14h39.30.919,exp3,2022.2.2,
,,,,,,,,,,,,,,,,,,,,,,,,59,1716,Invalid,signal,45,2,1.903793300036341,0,2.0,3.212153699947521,True,1,18,A,2023-09-14_14h39.30.919,exp3,2022.2.2,
,,,,,,,,,,,,,,,,,,,,,,,,60,-2274,Valid,noise,45,2,2.639333200000692,1,1.0,3.9474208000465296,True,1,18,A,2023-09-14_14h39.30.919,exp3,2022.2.2,
,,,,,,,,,,,,,,,,,,,,,,,,61,2274,Valid,noise,-45,2,1.1210134999710135,1,1.0,2.429130800010171,True,1,18,A,2023-09-14_14h39.30.919,exp3,2022.2.2,
,,,,,,,,,,,,,,,,,,,,,,,,62,2274,Invalid,signal,-45,2,1.888270499999635,0,1.0,3.196366499993019,True,1,18,A,2023-09-14_14h39.30.919,exp3,2022.2.2,
,,,,,,,,,,,,,,,,,,,,,,,,63,-1716,Valid,noise,45,2,2.3884292999864556,1,2.0,3.6964349999907427,True,1,18,A,2023-09-14_14h39.30.919,exp3,2022.2.2,
,,,,,,,,,,,,,,,,,,,,,,,,64,1158,Valid,noise,-45,2,0.8542101999628358,1,2.0,2.162722200038843,True,1,18,A,2023-09-14_14h39.30.919,exp3,2022.2.2,
,,,,,,,,,,,,,,,,,,,,,,,,65,1158,Valid,noise,45,2,0.8039167000097223,1,2.0,2.112090500013437,True,1,18,A,2023-09-14_14h39.30.919,exp3,2022.2.2,
,,,,,,,,,,,,,,,,,,,,,,,,66,557,Valid,signal,-45,2,0.9213852999964729,0,2.0,2.229462200019043,True,1,18,A,2023-09-14_14h39.30.919,exp3,2022.2.2,
,,,,,,,,,,,,,,,,,,,,,,,,67,2274,Valid,signal,-45,2,1.6546002000104636,0,2.0,2.9629455000394955,True,1,18,A,2023-09-14_14h39.30.919,exp3,2022.2.2,
,,,,,,,,,,,,,,,,,,,,,,,,68,1716,Valid,noise,-45,2,0.9050145000219345,1,2.0,2.213112600031309,True,1,18,A,2023-09-14_14h39.30.919,exp3,2022.2.2,
,,,,,,,,,,,,,,,,,,,,,,,,69,-557,Valid,noise,45,2,1.0874047999968752,1,2.0,2.3953406999935396,True,1,18,A,2023-09-14_14h39.30.919,exp3,2022.2.2,
,,,,,,,,,,,,,,,,,,,,,,,,70,-1158,Valid,noise,-45,2,0.7047113999724388,1,2.0,2.0127123999991454,True,1,18,A,2023-09-14_14h39.30.919,exp3,2022.2.2,
,,,,,,,,,,,,,,,,,,,,,,,,71,-1158,Valid,signal,45,1,1.3717516000033356,1,2.0,2.679771499999333,True,1,18,A,2023-09-14_14h39.30.919,exp3,2022.2.2,
,,,,,,,,,,,,,,,,,,,,,,,,72,-557,Valid,signal,45,1,1.5379929000046104,1,3.0,2.8458534999517724,True,1,18,A,2023-09-14_14h39.30.919,exp3,2022.2.2,
,,,,,,,,,,,,,,,,,,,,,,,,73,-557,Valid,noise,-45,2,1.3707338999956846,1,2.0,2.6790712000220083,True,1,18,A,2023-09-14_14h39.30.919,exp3,2022.2.2,
,,,,,,,,,,,,,,,,,,,,,,,,74,557,Valid,noise,-45,2,1.137470299960114,1,2.0,2.445918100012932,True,1,18,A,2023-09-14_14h39.30.919,exp3,2022.2.2,
,,,,,,,,,,,,,,,,,,,,,,,,75,-1158,Valid,signal,45,1,1.1884102000040002,1,2.0,2.496482399990782,True,1,18,A,2023-09-14_14h39.30.919,exp3,2022.2.2,
,,,,,,,,,,,,,,,,,,,,,,,,76,1158,Valid,noise,45,2,1.020949899975676,1,2.0,2.32892100000754,True,1,18,A,2023-09-14_14h39.30.919,exp3,2022.2.2,
,,,,,,,,,,,,,,,,,,,,,,,,77,1716,Invalid,noise,-45,2,1.0542455000104383,1,2.0,2.362621600041166,True,1,18,A,2023-09-14_14h39.30.919,exp3,2022.2.2,
,,,,,,,,,,,,,,,,,,,,,,,,78,-557,Valid,noise,-45,2,0.8383312000078149,1,2.0,2.1463902999530546,True,1,18,A,2023-09-14_14h39.30.919,exp3,2022.2.2,
,,,,,,,,,,,,,,,,,,,,,,,,79,-2274,Invalid,noise,-45,2,1.120357799984049,1,2.0,2.4286608999827877,True,1,18,A,2023-09-14_14h39.30.919,exp3,2022.2.2,
,,,,,,,,,,,,,,,,,,,,,,,,80,2274,Valid,noise,-45,2,0.8380711000063457,1,2.0,2.14609199995175,True,1,18,A,2023-09-14_14h39.30.919,exp3,2022.2.2,
,,,,,,,,,,,,,,,,,,,,,,,,81,-2274,Valid,noise,45,2,0.8049835999845527,1,2.0,2.112996399984695,True,1,18,A,2023-09-14_14h39.30.919,exp3,2022.2.2,
,,,,,,,,,,,,,,,,,,,,,,,,82,1716,Valid,signal,45,2,2.521830699988641,0,1.0,3.829663200012874,True,1,18,A,2023-09-14_14h39.30.919,exp3,2022.2.2,
,,,,,,,,,,,,,,,,,,,,,,,,83,2274,Valid,signal,45,2,1.604783300019335,0,1.0,2.9127773999935016,True,1,18,A,2023-09-14_14h39.30.919,exp3,2022.2.2,
,,,,,,,,,,,,,,,,,,,,,,,,84,-557,Valid,signal,45,1,1.8385327000287361,1,3.0,3.146570899989456,True,1,18,A,2023-09-14_14h39.30.919,exp3,2022.2.2,
,,,,,,,,,,,,,,,,,,,,,,,,85,-557,Valid,signal,45,1,0.9867002000100911,1,3.0,2.295054899994284,True,1,18,A,2023-09-14_14h39.30.919,exp3,2022.2.2,
,,,,,,,,,,,,,,,,,,,,,,,,86,-2274,Valid,noise,45,2,1.8060091999941505,1,2.0,3.1140847000060603,True,1,18,A,2023-09-14_14h39.30.919,exp3,2022.2.2,
,,,,,,,,,,,,,,,,,,,,,,,,87,-1716,Invalid,signal,45,1,1.3204536000266671,1,2.0,2.6287591999862343,True,1,18,A,2023-09-14_14h39.30.919,exp3,2022.2.2,
,,,,,,,,,,,,,,,,,,,,,,,,88,1716,Valid,noise,45,2,0.8878493999945931,1,2.0,2.196105399983935,True,1,18,A,2023-09-14_14h39.30.919,exp3,2022.2.2,
,,,,,,,,,,,,,,,,,,,,,,,,89,-1716,Valid,noise,45,2,0.9875399000011384,1,2.0,2.2958446000120603,True,1,18,A,2023-09-14_14h39.30.919,exp3,2022.2.2,
,,,,,,,,,,,,,,,,,,,,,,,,90,557,Invalid,noise,45,2,1.5715513000031933,1,2.0,2.879865799972322,True,1,18,A,2023-09-14_14h39.30.919,exp3,2022.2.2,
,,,,,,,,,,,,,,,,,,,,,,,,91,-1158,Valid,signal,45,2,1.6378022999851964,0,2.0,2.9462597999954596,True,1,18,A,2023-09-14_14h39.30.919,exp3,2022.2.2,
,,,,,,,,,,,,,,,,,,,,,,,,92,-2274,Valid,signal,45,2,0.7542668000096455,0,2.0,2.0624566999613307,True,1,18,A,2023-09-14_14h39.30.919,exp3,2022.2.2,
,,,,,,,,,,,,,,,,,,,,,,,,93,1716,Invalid,noise,-45,2,0.8387763000209816,1,2.0,2.1467039000126533,True,1,18,A,2023-09-14_14h39.30.919,exp3,2022.2.2,
,,,,,,,,,,,,,,,,,,,,,,,,94,-1716,Valid,signal,-45,2,1.5706527999718674,0,2.0,2.878672699967865,True,1,18,A,2023-09-14_14h39.30.919,exp3,2022.2.2,
,,,,,,,,,,,,,,,,,,,,,,,,95,-557,Invalid,signal,45,2,2.270958600041922,0,2.0,3.579421399976127,True,1,18,A,2023-09-14_14h39.30.919,exp3,2022.2.2,
,,,,,,,,,,,,,,,,,,,,,,,,96,1158,Valid,signal,45,1,0.9715694999904372,1,2.0,2.2795537000056356,True,1,18,A,2023-09-14_14h39.30.919,exp3,2022.2.2,
,,,,,,,,,,,,,,,,,,,,,,,,97,1158,Valid,signal,-45,1,1.3373812999925576,1,3.0,2.6457255999557674,True,1,18,A,2023-09-14_14h39.30.919,exp3,2022.2.2,
,,,,,,,,,,,,,,,,,,,,,,,,98,-1158,Valid,noise,-45,2,1.4544291999773122,1,2.0,2.7628094000392593,True,1,18,A,2023-09-14_14h39.30.919,exp3,2022.2.2,
,,,,,,,,,,,,,,,,,,,,,,,,99,-1158,Valid,signal,45,1,2.622531100001652,1,2.0,3.9305920000188053,True,1,18,A,2023-09-14_14h39.30.919,exp3,2022.2.2,
,,,,,,,,,,,,,,,,,,,,,,,,100,1716,Valid,noise,-45,2,1.3040774999535643,1,1.0,2.6123022999963723,True,1,18,A,2023-09-14_14h39.30.919,exp3,2022.2.2,
,,,,,,,,,,,,,,,,,,,,,,,,101,1716,Invalid,signal,-45,1,1.6555901999818161,1,2.0,2.9637459999648854,True,1,18,A,2023-09-14_14h39.30.919,exp3,2022.2.2,
,,,,,,,,,,,,,,,,,,,,,,,,102,2274,Valid,signal,-45,2,1.1876647000317462,0,1.0,2.4959555999957956,True,1,18,A,2023-09-14_14h39.30.919,exp3,2022.2.2,
,,,,,,,,,,,,,,,,,,,,,,,,103,-557,Valid,noise,45,2,1.7040734000038356,1,2.0,3.0122987999930046,True,1,18,A,2023-09-14_14h39.30.919,exp3,2022.2.2,
,,,,,,,,,,,,,,,,,,,,,,,,104,-1716,Valid,signal,45,2,1.1211473000003025,0,2.0,2.4293798999860883,True,1,18,A,2023-09-14_14h39.30.919,exp3,2022.2.2,
,,,,,,,,,,,,,,,,,,,,,,,,105,-2274,Valid,signal,45,2,1.171979899983853,0,1.0,2.479865500004962,True,1,18,A,2023-09-14_14h39.30.919,exp3,2022.2.2,
,,,,,,,,,,,,,,,,,,,,,,,,106,557,Valid,noise,-45,2,2.388070599990897,1,2.0,3.6963516999967396,True,1,18,A,2023-09-14_14h39.30.919,exp3,2022.2.2,
,,,,,,,,,,,,,,,,,,,,,,,,107,-2274,Invalid,signal,45,2,1.0881727000232786,0,2.0,2.396255799976643,True,1,18,A,2023-09-14_14h39.30.919,exp3,2022.2.2,
,,,,,,,,,,,,,,,,,,,,,,,,108,-2274,Valid,noise,-45,2,1.3201888999901712,1,2.0,2.6286121999728493,True,1,18,A,2023-09-14_14h39.30.919,exp3,2022.2.2,
,,,,,,,,,,,,,,,,,,,,,,,,109,2274,Valid,noise,-45,2,0.8879910000250675,1,2.0,2.196343799994793,True,1,18,A,2023-09-14_14h39.30.919,exp3,2022.2.2,
,,,,,,,,,,,,,,,,,,,,,,,,110,-1158,Valid,noise,45,2,0.8382764999987558,1,2.0,2.1462011000257917,True,1,18,A,2023-09-14_14h39.30.919,exp3,2022.2.2,
,,,,,,,,,,,,,,,,,,,,,,,,111,-1716,Valid,noise,45,2,0.7215068999794312,1,2.0,2.029438500001561,True,1,18,A,2023-09-14_14h39.30.919,exp3,2022.2.2,
,,,,,,,,,,,,,,,,,,,,,,,,112,-2274,Valid,noise,-45,2,0.8538239999907091,1,2.0,2.1621106000384316,True,1,18,A,2023-09-14_14h39.30.919,exp3,2022.2.2,
,,,,,,,,,,,,,,,,,,,,,,,,113,-2274,Valid,noise,45,2,0.7876703999936581,1,2.0,2.0960622999700718,True,1,18,A,2023-09-14_14h39.30.919,exp3,2022.2.2,
,,,,,,,,,,,,,,,,,,,,,,,,114,1716,Valid,signal,-45,2,0.6706941000302322,0,2.0,1.9790397000033408,True,1,18,A,2023-09-14_14h39.30.919,exp3,2022.2.2,
,,,,,,,,,,,,,,,,,,,,,,,,115,-2274,Valid,signal,45,2,4.062283099978231,0,1.0,7.081911800021771,True,2,18,A,2023-09-14_14h39.30.919,exp3,2022.2.2,
,,,,,,,,,,,,,,,,,,,,,,,,116,-2274,Valid,noise,45,2,1.3540974000352435,1,2.0,2.662324199976865,True,1,18,A,2023-09-14_14h39.30.919,exp3,2022.2.2,
,,,,,,,,,,,,,,,,,,,,,,,,117,-1158,Valid,signal,-45,1,1.671360700041987,1,3.0,2.979445799952373,True,1,18,A,2023-09-14_14h39.30.919,exp3,2022.2.2,
,,,,,,,,,,,,,,,,,,,,,,,,118,-1716,Valid,noise,45,2,1.6049422000069171,1,2.0,2.9128660000278614,True,1,18,A,2023-09-14_14h39.30.919,exp3,2022.2.2,
,,,,,,,,,,,,,,,,,,,,,,,,119,557,Invalid,signal,45,1,3.2055497000110336,1,4.0,4.513669500011019,True,1,18,A,2023-09-14_14h39.30.919,exp3,2022.2.2,
,,,,,,,,,,,,,,,,,,,,,,,,120,1716,Valid,signal,-45,2,1.5711383000016212,0,2.0,2.8794878000044264,True,1,18,A,2023-09-14_14h39.30.919,exp3,2022.2.2,
,,,,,,,,,,,,,,,,,,,,,,,,121,-1716,Invalid,noise,-45,2,1.1883137000259012,1,2.0,2.496426400030032,True,1,18,A,2023-09-14_14h39.30.919,exp3,2022.2.2,
,,,,,,,,,,,,,,,,,,,,,,,,122,-557,Valid,signal,-45,1,1.7214517000247724,1,4.0,3.0296124999877065,True,1,18,A,2023-09-14_14h39.30.919,exp3,2022.2.2,
,,,,,,,,,,,,,,,,,,,,,,,,123,-557,Valid,signal,-45,1,1.2212755999644287,1,4.0,2.5296324999653734,True,1,18,A,2023-09-14_14h39.30.919,exp3,2022.2.2,
,,,,,,,,,,,,,,,,,,,,,,,,124,-1716,Valid,noise,-45,2,1.8888551000272855,1,2.0,3.1969280000193976,True,1,18,A,2023-09-14_14h39.30.919,exp3,2022.2.2,
,,,,,,,,,,,,,,,,,,,,,,,,125,1158,Valid,noise,45,2,1.870591999962926,1,2.0,3.178922000050079,True,1,18,A,2023-09-14_14h39.30.919,exp3,2022.2.2,
,,,,,,,,,,,,,,,,,,,,,,,,126,557,Valid,noise,45,2,1.422234199999366,1,2.0,2.730072200007271,True,1,18,A,2023-09-14_14h39.30.919,exp3,2022.2.2,
,,,,,,,,,,,,,,,,,,,,,,,,127,-557,Invalid,noise,45,2,1.3370152999996208,1,2.0,2.6453654000069946,True,1,18,A,2023-09-14_14h39.30.919,exp3,2022.2.2,
,,,,,,,,,,,,,,,,,,,,,,,,128,557,Valid,signal,-45,1,1.4712389000342228,1,4.0,2.7797027999768034,True,1,18,A,2023-09-14_14h39.30.919,exp3,2022.2.2,
,,,,,,,,,,,,,,,,,,,,,,,,129,1158,Invalid,noise,-45,2,3.3719485999899916,1,2.0,4.680145699996501,True,1,18,A,2023-09-14_14h39.30.919,exp3,2022.2.2,
,,,,,,,,,,,,,,,,,,,,,,,,130,557,Valid,signal,45,1,1.271520500013139,1,2.0,2.5796229999978095,True,1,18,A,2023-09-14_14h39.30.919,exp3,2022.2.2,
,,,,,,,,,,,,,,,,,,,,,,,,131,1158,Invalid,noise,45,2,2.038360200007446,1,2.0,3.346633600012865,True,1,18,A,2023-09-14_14h39.30.919,exp3,2022.2.2,
,,,,,,,,,,,,,,,,,,,,,,,,132,-1716,Valid,signal,45,2,2.288354700023774,0,1.0,3.5965947000076994,True,1,18,A,2023-09-14_14h39.30.919,exp3,2022.2.2,
,,,,,,,,,,,,,,,,,,,,,,,,133,-557,Valid,signal,-45,1,3.4131631999625824,1,2.0,8.215059299953282,True,2,18,A,2023-09-14_14h39.30.919,exp3,2022.2.2,
,,,,,,,,,,,,,,,,,,,,,,,,134,-1158,Valid,noise,-45,2,1.304859000025317,1,2.0,2.6129415999748744,True,1,18,A,2023-09-14_14h39.30.919,exp3,2022.2.2,
,,,,,,,,,,,,,,,,,,,,,,,,135,1158,Valid,signal,-45,2,4.122485100000631,0,2.0,5.4305875999853015,True,1,18,A,2023-09-14_14h39.30.919,exp3,2022.2.2,
,,,,,,,,,,,,,,,,,,,,,,,,136,-557,Valid,noise,-45,2,2.955246400029864,1,3.0,4.263323699997272,True,1,18,A,2023-09-14_14h39.30.919,exp3,2022.2.2,
,,,,,,,,,,,,,,,,,,,,,,,,137,2274,Valid,noise,45,2,2.038025099958759,1,1.0,3.3461157999699935,True,1,18,A,2023-09-14_14h39.30.919,exp3,2022.2.2,
,,,,,,,,,,,,,,,,,,,,,,,,138,1158,Valid,signal,-45,1,1.8715743999928236,1,3.0,3.179616600042209,True,1,18,A,2023-09-14_14h39.30.919,exp3,2022.2.2,
,,,,,,,,,,,,,,,,,,,,,,,,139,1158,Valid,noise,45,2,2.2051248000352643,1,2.0,3.513103500008583,True,1,18,A,2023-09-14_14h39.30.919,exp3,2022.2.2,
,,,,,,,,,,,,,,,,,,,,,,,,140,1716,Valid,signal,45,2,1.4539475999772549,0,2.0,2.762240700016264,True,1,18,A,2023-09-14_14h39.30.919,exp3,2022.2.2,
,,,,,,,,,,,,,,,,,,,,,,,,141,-1716,Valid,noise,45,2,1.8049634999479167,1,2.0,3.1129446999984793,True,1,18,A,2023-09-14_14h39.30.919,exp3,2022.2.2,
,,,,,,,,,,,,,,,,,,,,,,,,142,1716,Valid,signal,-45,2,1.438353699981235,0,2.0,2.746465700038243,True,1,18,A,2023-09-14_14h39.30.919,exp3,2022.2.2,
,,,,,,,,,,,,,,,,,,,,,,,,143,-2274,Valid,signal,45,2,2.5881173000088893,0,1.0,3.8964664000086486,True,1,18,A,2023-09-14_14h39.30.919,exp3,2022.2.2,
,,,,,,,,,,,,,,,,,,,,,,,,144,557,Valid,noise,-45,2,2.4049058000091463,1,3.0,3.7130142000387423,True,1,18,A,2023-09-14_14h39.30.919,exp3,2022.2.2,
,,,,,,,,,,,,,,,,,,,,,,,,145,1716,Valid,noise,-45,2,1.2550252000219189,1,2.0,2.5632393999840133,True,1,18,A,2023-09-14_14h39.30.919,exp3,2022.2.2,
,,,,,,,,,,,,,,,,,,,,,,,,146,-1716,Valid,signal,45,2,1.2707962000276893,0,2.0,2.579050699947402,True,1,18,A,2023-09-14_14h39.30.919,exp3,2022.2.2,
,,,,,,,,,,,,,,,,,,,,,,,,147,-1158,Valid,signal,45,1,1.7555146000231616,1,3.0,3.06347910000477,True,1,18,A,2023-09-14_14h39.30.919,exp3,2022.2.2,
,,,,,,,,,,,,,,,,,,,,,,,,148,1716,Valid,signal,-45,2,1.6378825000138022,0,2.0,2.9459557000081986,True,1,18,A,2023-09-14_14h39.30.919,exp3,2022.2.2,
,,,,,,,,,,,,,,,,,,,,,,,,149,-1716,Valid,noise,-45,2,3.73858130001463,1,2.0,5.046712499985006,True,1,18,A,2023-09-14_14h39.30.919,exp3,2022.2.2,
,,,,,,,,,,,,,,,,,,,,,,,,150,2274,Valid,signal,45,2,2.0215816000127234,0,2.0,3.3298678000574,True,1,18,A,2023-09-14_14h39.30.919,exp3,2022.2.2,
,,,,,,,,,,,,,,,,,,,,,,,,151,-1158,Valid,noise,-45,2,1.5544491999899037,1,2.0,2.8625791000085883,True,1,18,A,2023-09-14_14h39.30.919,exp3,2022.2.2,
,,,,,,,,,,,,,,,,,,,,,,,,152,-2274,Valid,noise,45,2,1.0718544999836013,1,2.0,2.379941700026393,True,1,18,A,2023-09-14_14h39.30.919,exp3,2022.2.2,
,,,,,,,,,,,,,,,,,,,,,,,,153,-1158,Valid,noise,45,2,1.0708881999598816,1,2.0,2.3790097000310197,True,1,18,A,2023-09-14_14h39.30.919,exp3,2022.2.2,
,,,,,,,,,,,,,,,,,,,,,,,,154,1158,Valid,signal,-45,2,0.9542987999739125,0,2.0,2.2625276000471786,True,1,18,A,2023-09-14_14h39.30.919,exp3,2022.2.2,
,,,,,,,,,,,,,,,,,,,,,,,,155,-1716,Valid,signal,45,2,1.1379822999588214,0,2.0,2.4461317000095733,True,1,18,A,2023-09-14_14h39.30.919,exp3,2022.2.2,
,,,,,,,,,,,,,,,,,,,,,,,,156,-1716,Valid,noise,-45,2,1.321230600005947,1,2.0,2.6293984000221826,True,1,18,A,2023-09-14_14h39.30.919,exp3,2022.2.2,
,,,,,,,,,,,,,,,,,,,,,,,,157,-557,Valid,noise,45,2,0.8544502999866381,1,2.0,2.1627669000299647,True,1,18,A,2023-09-14_14h39.30.919,exp3,2022.2.2,
,,,,,,,,,,,,,,,,,,,,,,,,158,-2274,Valid,noise,45,2,1.488215300021693,1,2.0,2.796330199984368,True,1,18,A,2023-09-14_14h39.30.919,exp3,2022.2.2,
,,,,,,,,,,,,,,,,,,,,,,,,159,1716,Valid,signal,45,2,0.704435600026045,0,2.0,2.0126604000106454,True,1,18,A,2023-09-14_14h39.30.919,exp3,2022.2.2,
,,,,,,,,,,,,,,,,,,,,,,,,160,-1158,Valid,noise,45,2,0.6706271999864839,1,2.0,1.9788426999584772,True,1,18,A,2023-09-14_14h39.30.919,exp3,2022.2.2,
,,,,,,,,,,,,,,,,,,,,,,,,161,-2274,Valid,signal,-45,2,0.9045273999799974,0,2.0,2.2125457999645732,True,1,18,A,2023-09-14_14h39.30.919,exp3,2022.2.2,
,,,,,,,,,,,,,,,,,,,,,,,,162,557,Valid,noise,45,2,1.0542694000178017,1,2.0,2.3623802000074647,True,1,18,A,2023-09-14_14h39.30.919,exp3,2022.2.2,
,,,,,,,,,,,,,,,,,,,,,,,,163,2274,Valid,signal,-45,2,1.955677200050559,0,1.0,3.2636741999886,True,1,18,A,2023-09-14_14h39.30.919,exp3,2022.2.2,
,,,,,,,,,,,,,,,,,,,,,,,,164,1716,Valid,noise,45,2,1.6372279999777675,1,2.0,2.9454625999787822,True,1,18,A,2023-09-14_14h39.30.919,exp3,2022.2.2,
,,,,,,,,,,,,,,,,,,,,,,,,165,557,Valid,signal,-45,1,1.5379822999821045,1,3.0,2.8464764999807812,True,1,18,A,2023-09-14_14h39.30.919,exp3,2022.2.2,
,,,,,,,,,,,,,,,,,,,,,,,,166,1716,Valid,signal,-45,2,1.4219477000297047,0,2.0,2.729910699999891,True,1,18,A,2023-09-14_14h39.30.919,exp3,2022.2.2,
,,,,,,,,,,,,,,,,,,,,,,,,167,2274,Valid,noise,45,2,1.2038021000334993,1,2.0,2.5122059999848716,True,1,18,A,2023-09-14_14h39.30.919,exp3,2022.2.2,
,,,,,,,,,,,,,,,,,,,,,,,,168,-2274,Valid,signal,-45,2,1.6216157000162639,0,1.0,2.9296919000335038,True,1,18,A,2023-09-14_14h39.30.919,exp3,2022.2.2,
,,,,,,,,,,,,,,,,,,,,,,,,169,557,Valid,noise,-45,2,2.2881283999886364,1,3.0,3.5964476999943145,True,1,18,A,2023-09-14_14h39.30.919,exp3,2022.2.2,
,,,,,,,,,,,,,,,,,,,,,,,,170,-1716,Invalid,noise,-45,2,1.6384624000056647,1,2.0,2.946664499992039,True,1,18,A,2023-09-14_14h39.30.919,exp3,2022.2.2,
,,,,,,,,,,,,,,,,,,,,,,,,171,-557,Invalid,signal,-45,2,3.9553148999693803,0,2.0,5.2636380000039935,True,1,18,A,2023-09-14_14h39.30.919,exp3,2022.2.2,
,,,,,,,,,,,,,,,,,,,,,,,,172,2274,Invalid,noise,45,2,1.6046454000170343,1,2.0,2.9129160000011325,True,1,18,A,2023-09-14_14h39.30.919,exp3,2022.2.2,
,,,,,,,,,,,,,,,,,,,,,,,,173,2274,Valid,signal,45,2,2.205082100001164,0,1.0,3.5131589000229724,True,1,18,A,2023-09-14_14h39.30.919,exp3,2022.2.2,
,,,,,,,,,,,,,,,,,,,,,,,,174,-1158,Valid,noise,-45,2,1.2713416999904439,1,2.0,2.579665500030387,True,1,18,A,2023-09-14_14h39.30.919,exp3,2022.2.2,
,,,,,,,,,,,,,,,,,,,,,,,,175,557,Valid,noise,45,2,1.138630600005854,1,2.0,2.4465928999707103,True,1,18,A,2023-09-14_14h39.30.919,exp3,2022.2.2,
,,,,,,,,,,,,,,,,,,,,,,,,176,-1158,Invalid,signal,-45,1,2.0044542000396177,1,2.0,3.312347700004466,True,1,18,A,2023-09-14_14h39.30.919,exp3,2022.2.2,
,,,,,,,,,,,,,,,,,,,,,,,,2,-557,Valid,noise,45,2,10.17752249998739,1,2.0,11.486246600048617,True,1,18,A,2023-09-14_14h39.30.919,exp3,2022.2.2,
,,,,,,,,,,,,,,,,,,,,,,,,4,1716,Valid,signal,45,2,0.9207612000172958,0,2.0,2.229168599995319,True,1,18,A,2023-09-14_14h39.30.919,exp3,2022.2.2,
,,,,,,,,,,,,,,,,,,,,,,,,6,1716,Valid,noise,45,2,0.7037829000037163,1,2.0,2.0121471000020392,True,1,18,A,2023-09-14_14h39.30.919,exp3,2022.2.2,
,,,,,,,,,,,,,,,,,,,,,,,,8,1716,Valid,signal,-45,2,0.8204021999845281,0,2.0,2.129273500002455,True,1,18,A,2023-09-14_14h39.30.919,exp3,2022.2.2,
,,,,,,,,,,,,,,,,,,,,,,,,10,-1716,Valid,noise,45,2,1.1881589000113308,1,2.0,2.496482599992305,True,1,18,A,2023-09-14_14h39.30.919,exp3,2022.2.2,
,,,,,,,,,,,,,,,,,,,,,,,,12,-1716,Valid,noise,-45,2,1.1378706999821588,1,2.0,2.446103000023868,True,1,18,A,2023-09-14_14h39.30.919,exp3,2022.2.2,
,,,,,,,,,,,,,,,,,,,,,,,,14,-1716,Invalid,signal,45,2,0.9544693999923766,0,2.0,2.262638700020034,True,1,18,A,2023-09-14_14h39.30.919,exp3,2022.2.2,
,,,,,,,,,,,,,,,,,,,,,,,,16,-2274,Valid,noise,45,2,1.6043674999964423,1,2.0,2.912735200021416,True,1,18,A,2023-09-14_14h39.30.919,exp3,2022.2.2,
,,,,,,,,,,,,,,,,,,,,,,,,18,-557,Valid,noise,45,2,0.720980399986729,1,2.0,2.029386500013061,True,1,18,A,2023-09-14_14h39.30.919,exp3,2022.2.2,
,,,,,,,,,,,,,,,,,,,,,,,,20,-2274,Valid,noise,-45,2,0.836804399965331,1,2.0,2.145456500002183,True,1,18,A,2023-09-14_14h39.30.919,exp3,2022.2.2,
,,,,,,,,,,,,,,,,,,,,,,,,22,557,Valid,signal,-45,2,1.0873993000132032,0,2.0,2.3957379999919794,True,1,18,A,2023-09-14_14h39.30.919,exp3,2022.2.2,
,,,,,,,,,,,,,,,,,,,,,,,,24,2274,Valid,signal,45,2,0.9039207000168972,0,2.0,2.2126038999995217,True,1,18,A,2023-09-14_14h39.30.919,exp3,2022.2.2,
,,,,,,,,,,,,,,,,,,,,,,,,26,557,Invalid,noise,-45,2,1.5372611000202596,1,2.0,2.846095699991565,True,1,18,A,2023-09-14_14h39.30.919,exp3,2022.2.2,
,,,,,,,,,,,,,,,,,,,,,,,,28,1158,Invalid,noise,-45,2,1.1878696999629028,1,2.0,2.496208500000648,True,1,18,A,2023-09-14_14h39.30.919,exp3,2022.2.2,
,,,,,,,,,,,,,,,,,,,,,,,,30,1158,Valid,signal,-45,2,0.9205712999682873,0,2.0,2.2292327000177465,True,1,18,A,2023-09-14_14h39.30.919,exp3,2022.2.2,
,,,,,,,,,,,,,,,,,,,,,,,,32,-2274,Valid,noise,-45,2,0.7540099999750964,1,2.0,2.062489599979017,True,1,18,A,2023-09-14_14h39.30.919,exp3,2022.2.2,
,,,,,,,,,,,,,,,,,,,,,,,,34,1158,Valid,noise,45,2,1.0376736000180244,1,2.0,2.3462276000063866,True,1,18,A,2023-09-14_14h39.30.919,exp3,2022.2.2,
,,,,,,,,,,,,,,,,,,,,,,,,36,-2274,Valid,noise,45,2,0.7879343999666162,1,2.0,2.096146299969405,True,1,18,A,2023-09-14_14h39.30.919,exp3,2022.2.2,
,,,,,,,,,,,,,,,,,,,,,,,,38,-2274,Valid,signal,45,2,0.9039214000222273,0,2.0,2.212450999999419,True,1,18,A,2023-09-14_14h39.30.919,exp3,2022.2.2,
,,,,,,,,,,,,,,,,,,,,,,,,40,1716,Valid,noise,-45,2,0.7036329999682494,1,2.0,2.0121961000259034,True,1,18,A,2023-09-14_14h39.30.919,exp3,2022.2.2,
,,,,,,,,,,,,,,,,,,,,,,,,42,-2274,Valid,noise,45,2,0.6703735999763012,1,2.0,1.9788586999638937,True,1,18,A,2023-09-14_14h39.30.919,exp3,2022.2.2,
,,,,,,,,,,,,,,,,,,,,,,,,44,-557,Valid,signal,-45,1,1.8881399999954738,1,3.0,3.1963655999861658,True,1,18,A,2023-09-14_14h39.30.919,exp3,2022.2.2,
,,,,,,,,,,,,,,,,,,,,,,,,46,2274,Valid,noise,45,2,2.087875899975188,1,1.0,3.3963003999670036,True,1,18,A,2023-09-14_14h39.30.919,exp3,2022.2.2,
,,,,,,,,,,,,,,,,,,,,,,,,48,-1716,Valid,signal,45,2,1.8875996000133455,0,2.0,3.1960937999538146,True,1,18,A,2023-09-14_14h39.30.919,exp3,2022.2.2,
,,,,,,,,,,,,,,,,,,,,,,,,50,557,Valid,signal,45,1,2.937974200001918,1,4.0,4.246804399997927,True,1,18,A,2023-09-14_14h39.30.919,exp3,2022.2.2,
,,,,,,,,,,,,,,,,,,,,,,,,52,-1716,Valid,signal,45,1,1.5214690000284463,1,4.0,2.8297074000001885,True,1,18,A,2023-09-14_14h39.30.919,exp3,2022.2.2,
,,,,,,,,,,,,,,,,,,,,,,,,54,-1158,Valid,signal,-45,1,1.237116300035268,1,3.0,2.545742300048005,True,1,18,A,2023-09-14_14h39.30.919,exp3,2022.2.2,
,,,,,,,,,,,,,,,,,,,,,,,,56,1716,Valid,signal,-45,2,1.8046348000061698,0,3.0,3.112914199999068,True,1,18,A,2023-09-14_14h39.30.919,exp3,2022.2.2,
,,,,,,,,,,,,,,,,,,,,,,,,58,-2274,Valid,signal,-45,2,1.7041791999945417,0,2.0,3.012806400016416,True,1,18,A,2023-09-14_14h39.30.919,exp3,2022.2.2,
,,,,,,,,,,,,,,,,,,,,,,,,60,1158,Valid,signal,45,1,2.737931200012099,1,2.0,4.046690399991348,True,1,18,A,2023-09-14_14h39.30.919,exp3,2022.2.2,
,,,,,,,,,,,,,,,,,,,,,,,,62,-1158,Valid,noise,-45,2,1.2207940999651328,1,2.0,2.529424000007566,True,1,18,A,2023-09-14_14h39.30.919,exp3,2022.2.2,
,,,,,,,,,,,,,,,,,,,,,,,,64,-1158,Valid,signal,-45,1,2.505046800011769,1,3.0,3.813322700036224,True,1,18,A,2023-09-14_14h39.30.919,exp3,2022.2.2,
,,,,,,,,,,,,,,,,,,,,,,,,66,2274,Valid,noise,-45,2,1.2706022000056691,1,2.0,2.579201299988199,True,1,18,A,2023-09-14_14h39.30.919,exp3,2022.2.2,
,,,,,,,,,,,,,,,,,,,,,,,,68,2274,Invalid,signal,-45,2,1.787911300023552,0,1.0,3.0962357000098564,True,1,18,A,2023-09-14_14h39.30.919,exp3,2022.2.2,
,,,,,,,,,,,,,,,,,,,,,,,,70,-557,Valid,signal,-45,1,1.3209996999939904,1,4.0,2.6296437999699265,True,1,18,A,2023-09-14_14h39.30.919,exp3,2022.2.2,
,,,,,,,,,,,,,,,,,,,,,,,,72,-1158,Valid,signal,-45,1,1.6209219000302255,1,3.0,2.9294343999936245,True,1,18,A,2023-09-14_14h39.30.919,exp3,2022.2.2,
,,,,,,,,,,,,,,,,,,,,,,,,74,2274,Invalid,noise,-45,2,2.271445300022606,1,1.0,3.579866799991578,True,1,18,A,2023-09-14_14h39.30.919,exp3,2022.2.2,
,,,,,,,,,,,,,,,,,,,,,,,,76,-557,Valid,noise,45,2,1.8051516999839805,1,2.0,3.113368099962827,True,1,18,A,2023-09-14_14h39.30.919,exp3,2022.2.2,
,,,,,,,,,,,,,,,,,,,,,,,,78,1716,Invalid,signal,45,2,1.0369228000054136,0,2.0,2.3456355000380427,True,1,18,A,2023-09-14_14h39.30.919,exp3,2022.2.2,
,,,,,,,,,,,,,,,,,,,,,,,,80,-1716,Valid,noise,-45,2,1.0870845000026748,1,2.0,2.396000200009439,True,1,18,A,2023-09-14_14h39.30.919,exp3,2022.2.2,
,,,,,,,,,,,,,,,,,,,,,,,,82,-1716,Valid,signal,-45,1,1.1216055999975652,1,2.0,2.4299428000231273,True,1,18,A,2023-09-14_14h39.30.919,exp3,2022.2.2,
,,,,,,,,,,,,,,,,,,,,,,,,84,-557,Valid,noise,45,2,0.9706293999915943,1,2.0,2.2789135000202805,True,1,18,A,2023-09-14_14h39.30.919,exp3,2022.2.2,
,,,,,,,,,,,,,,,,,,,,,,,,86,2274,Valid,signal,-45,2,0.7210529000149108,0,2.0,2.0295327000203542,True,1,18,A,2023-09-14_14h39.30.919,exp3,2022.2.2,
