trials.label,trials.startVal,trials.maxVal,trials.minVal,trials.startValSd,trials.pthreshold,trials.beta,trials.delta,trials.gamma,trials.grain,trials.stepSize,trials.range,trials.cue,trials.thisIndex,trials.thisRepN,trials.thisN,trials.direction,trials.stepType,trials.intensity,signalOpacity,level,trials.response,stair_eye_ok,nTrial,position,validity,Stimulus,orientation,response_key,response_rt,response_correct,confidence,confidence_rt,curr_trial_rep,eye_ok,participant,session,date,expName,psychopyVersion,
low_opac_i,0.4,1,0.01,3,0.82,3.5,0.01,0,0.01,4,5,Invalid,2,1,0,start,lin,0.4,0,0.4,1,True,,,,,,,,,,,,,9,A,2023-09-06_10h40.43.410,exp3,2022.2.2,
low_opac_v,0.4,1,0.01,3,0.82,3.5,0.01,0,0.01,4,5,Valid,0,1,1,start,lin,0.4,0.4,0.4,1,True,,,,,,,,,,,,,9,A,2023-09-06_10h40.43.410,exp3,2022.2.2,
high_opac_v,0.01,1,0.01,3,0.82,3.5,0.01,0,0.01,4,5,Valid,1,1,2,start,lin,0.01,0,0.01,1,True,,,,,,,,,,,,,9,A,2023-09-06_10h40.43.410,exp3,2022.2.2,
high_opac_v,0.01,1,0.01,3,0.82,3.5,0.01,0,0.01,4,5,Valid,1,2,3,start,lin,0.01,0.01,0.01,0,True,,,,,,,,,,,,,9,A,2023-09-06_10h40.43.410,exp3,2022.2.2,
low_opac_i,0.4,1,0.01,3,0.82,3.5,0.01,0,0.01,4,5,Invalid,2,2,4,start,lin,0.01,0,0.01,1,True,,,,,,,,,,,,,9,A,2023-09-06_10h40.43.410,exp3,2022.2.2,
low_opac_v,0.4,1,0.01,3,0.82,3.5,0.01,0,0.01,4,5,Valid,0,2,5,start,lin,0.01,0,0.01,0,True,,,,,,,,,,,,,9,A,2023-09-06_10h40.43.410,exp3,2022.2.2,
low_opac_v,0.4,1,0.01,3,0.82,3.5,0.01,0,0.01,4,5,Valid,0,3,6,start,lin,0.3144098688205103,0,0.3144098688205103,1,True,,,,,,,,,,,,,9,A,2023-09-06_10h40.43.410,exp3,2022.2.2,
low_opac_i,0.4,1,0.01,3,0.82,3.5,0.01,0,0.01,4,5,Invalid,2,3,7,start,lin,0.01,0,0.01,1,True,,,,,,,,,,,,,9,A,2023-09-06_10h40.43.410,exp3,2022.2.2,
high_opac_v,0.01,1,0.01,3,0.82,3.5,0.01,0,0.01,4,5,Valid,1,3,8,start,lin,0.11405774706782823,0,0.11405774706782823,1,True,,,,,,,,,,,,,9,A,2023-09-06_10h40.43.410,exp3,2022.2.2,
low_opac_v,0.4,1,0.01,3,0.82,3.5,0.01,0,0.01,4,5,Valid,0,4,9,start,lin,0.23561159539411833,0,0.23561159539411833,1,True,,,,,,,,,,,,,9,A,2023-09-06_10h40.43.410,exp3,2022.2.2,
high_opac_v,0.01,1,0.01,3,0.82,3.5,0.01,0,0.01,4,5,Valid,1,4,10,start,lin,0.04641491138063986,0.04641491138063986,0.04641491138063986,1,True,,,,,,,,,,,,,9,A,2023-09-06_10h40.43.410,exp3,2022.2.2,
low_opac_i,0.4,1,0.01,3,0.82,3.5,0.01,0,0.01,4,5,Invalid,2,4,11,start,lin,0.01,0.01,0.01,1,True,,,,,,,,,,,,,9,A,2023-09-06_10h40.43.410,exp3,2022.2.2,
low_opac_v,0.4,1,0.01,3,0.82,3.5,0.01,0,0.01,4,5,Valid,0,5,12,start,lin,0.1841780991895161,0,0.1841780991895161,0,True,,,,,,,,,,,,,9,A,2023-09-06_10h40.43.410,exp3,2022.2.2,
low_opac_i,0.4,1,0.01,3,0.82,3.5,0.01,0,0.01,4,5,Invalid,2,5,13,start,lin,0.01,0,0.01,1,True,,,,,,,,,,,,,9,A,2023-09-06_10h40.43.410,exp3,2022.2.2,
high_opac_v,0.01,1,0.01,3,0.82,3.5,0.01,0,0.01,4,5,Valid,1,5,14,start,lin,0.01,0.01,0.01,1,True,,,,,,,,,,,,,9,A,2023-09-06_10h40.43.410,exp3,2022.2.2,
high_opac_v,0.01,1,0.01,3,0.82,3.5,0.01,0,0.01,4,5,Valid,1,6,15,start,lin,0.01,0.01,0.01,0,True,,,,,,,,,,,,,9,A,2023-09-06_10h40.43.410,exp3,2022.2.2,
low_opac_i,0.4,1,0.01,3,0.82,3.5,0.01,0,0.01,4,5,Invalid,2,6,16,start,lin,0.01,0,0.01,1,True,,,,,,,,,,,,,9,A,2023-09-06_10h40.43.410,exp3,2022.2.2,
low_opac_v,0.4,1,0.01,3,0.82,3.5,0.01,0,0.01,4,5,Valid,0,6,17,start,lin,0.2906212640370164,0.2906212640370164,0.2906212640370164,1,True,,,,,,,,,,,,,9,A,2023-09-06_10h40.43.410,exp3,2022.2.2,
low_opac_v,0.4,1,0.01,3,0.82,3.5,0.01,0,0.01,4,5,Valid,0,7,18,start,lin,0.26757657584032296,0,0.26757657584032296,0,True,,,,,,,,,,,,,9,A,2023-09-06_10h40.43.410,exp3,2022.2.2,
high_opac_v,0.01,1,0.01,3,0.82,3.5,0.01,0,0.01,4,5,Valid,1,7,19,start,lin,0.08059727445902883,0,0.08059727445902883,1,True,,,,,,,,,,,,,9,A,2023-09-06_10h40.43.410,exp3,2022.2.2,
low_opac_i,0.4,1,0.01,3,0.82,3.5,0.01,0,0.01,4,5,Invalid,2,7,20,start,lin,0.01,0.01,0.01,0,True,,,,,,,,,,,,,9,A,2023-09-06_10h40.43.410,exp3,2022.2.2,
high_opac_v,0.01,1,0.01,3,0.82,3.5,0.01,0,0.01,4,5,Valid,1,8,21,start,lin,0.06575104018623358,0,0.06575104018623358,0,True,,,,,,,,,,,,,9,A,2023-09-06_10h40.43.410,exp3,2022.2.2,
low_opac_v,0.4,1,0.01,3,0.82,3.5,0.01,0,0.01,4,5,Valid,0,8,22,start,lin,0.33060221770215237,0,0.33060221770215237,1,True,,,,,,,,,,,,,9,A,2023-09-06_10h40.43.410,exp3,2022.2.2,
low_opac_i,0.4,1,0.01,3,0.82,3.5,0.01,0,0.01,4,5,Invalid,2,8,23,start,lin,0.01,0.01,0.01,1,True,,,,,,,,,,,,,9,A,2023-09-06_10h40.43.410,exp3,2022.2.2,
low_opac_v,0.4,1,0.01,3,0.82,3.5,0.01,0,0.01,4,5,Valid,0,9,24,start,lin,0.3157131597468398,0,0.3157131597468398,1,True,,,,,,,,,,,,,9,A,2023-09-06_10h40.43.410,exp3,2022.2.2,
high_opac_v,0.01,1,0.01,3,0.82,3.5,0.01,0,0.01,4,5,Valid,1,9,25,start,lin,0.11231702698349236,0,0.11231702698349236,1,True,,,,,,,,,,,,,9,A,2023-09-06_10h40.43.410,exp3,2022.2.2,
low_opac_i,0.4,1,0.01,3,0.82,3.5,0.01,0,0.01,4,5,Invalid,2,9,26,start,lin,0.01,0.01,0.01,0,True,,,,,,,,,,,,,9,A,2023-09-06_10h40.43.410,exp3,2022.2.2,
high_opac_v,0.01,1,0.01,3,0.82,3.5,0.01,0,0.01,4,5,Valid,1,10,27,start,lin,0.10134709921305429,0.10134709921305429,0.10134709921305429,1,True,,,,,,,,,,,,,9,A,2023-09-06_10h40.43.410,exp3,2022.2.2,
low_opac_v,0.4,1,0.01,3,0.82,3.5,0.01,0,0.01,4,5,Valid,0,10,28,start,lin,0.3035751310773851,0.3035751310773851,0.3035751310773851,1,True,,,,,,,,,,,,,9,A,2023-09-06_10h40.43.410,exp3,2022.2.2,
low_opac_i,0.4,1,0.01,3,0.82,3.5,0.01,0,0.01,4,5,Invalid,2,10,29,start,lin,0.02762579054101677,0,0.02762579054101677,1,True,,,,,,,,,,,,,9,A,2023-09-06_10h40.43.410,exp3,2022.2.2,
high_opac_v,0.01,1,0.01,3,0.82,3.5,0.01,0,0.01,4,5,Valid,1,11,30,start,lin,0.09186998137813927,0.09186998137813927,0.09186998137813927,1,True,,,,,,,,,,,,,9,A,2023-09-06_10h40.43.410,exp3,2022.2.2,
low_opac_v,0.4,1,0.01,3,0.82,3.5,0.01,0,0.01,4,5,Valid,0,11,31,start,lin,0.29230235587962106,0,0.29230235587962106,1,True,,,,,,,,,,,,,9,A,2023-09-06_10h40.43.410,exp3,2022.2.2,
low_opac_i,0.4,1,0.01,3,0.82,3.5,0.01,0,0.01,4,5,Invalid,2,11,32,start,lin,0.015960395468436472,0,0.015960395468436472,1,True,,,,,,,,,,,,,9,A,2023-09-06_10h40.43.410,exp3,2022.2.2,
low_opac_i,0.4,1,0.01,3,0.82,3.5,0.01,0,0.01,4,5,Invalid,2,12,33,start,lin,0.01,0,0.01,1,True,,,,,,,,,,,,,9,A,2023-09-06_10h40.43.410,exp3,2022.2.2,
high_opac_v,0.01,1,0.01,3,0.82,3.5,0.01,0,0.01,4,5,Valid,1,12,34,start,lin,0.08338662018528166,0,0.08338662018528166,1,True,,,,,,,,,,,,,9,A,2023-09-06_10h40.43.410,exp3,2022.2.2,
low_opac_v,0.4,1,0.01,3,0.82,3.5,0.01,0,0.01,4,5,Valid,0,12,35,start,lin,0.28231914061361274,0.28231914061361274,0.28231914061361274,1,True,,,,,,,,,,,,,9,A,2023-09-06_10h40.43.410,exp3,2022.2.2,
low_opac_i,0.4,1,0.01,3,0.82,3.5,0.01,0,0.01,4,5,Invalid,2,13,36,start,lin,0.01,0,0.01,1,True,,,,,,,,,,,,,9,A,2023-09-06_10h40.43.410,exp3,2022.2.2,
low_opac_v,0.4,1,0.01,3,0.82,3.5,0.01,0,0.01,4,5,Valid,0,13,37,start,lin,0.273233681854534,0,0.273233681854534,1,True,,,,,,,,,,,,,9,A,2023-09-06_10h40.43.410,exp3,2022.2.2,
high_opac_v,0.01,1,0.01,3,0.82,3.5,0.01,0,0.01,4,5,Valid,1,13,38,start,lin,0.07559199712746986,0.07559199712746986,0.07559199712746986,1,True,,,,,,,,,,,,,9,A,2023-09-06_10h40.43.410,exp3,2022.2.2,
high_opac_v,0.01,1,0.01,3,0.82,3.5,0.01,0,0.01,4,5,Valid,1,14,39,start,lin,0.06886097972411549,0,0.06886097972411549,1,True,,,,,,,,,,,,,9,A,2023-09-06_10h40.43.410,exp3,2022.2.2,
low_opac_i,0.4,1,0.01,3,0.82,3.5,0.01,0,0.01,4,5,Invalid,2,14,40,start,lin,0.01,0,0.01,1,True,,,,,,,,,,,,,9,A,2023-09-06_10h40.43.410,exp3,2022.2.2,
low_opac_v,0.4,1,0.01,3,0.82,3.5,0.01,0,0.01,4,5,Valid,0,14,41,start,lin,0.2647898448659357,0,0.2647898448659357,1,True,,,,,,,,,,,,,9,A,2023-09-06_10h40.43.410,exp3,2022.2.2,
high_opac_v,0.01,1,0.01,3,0.82,3.5,0.01,0,0.01,4,5,Valid,1,15,42,start,lin,0.062450813617977205,0,0.062450813617977205,1,True,,,,,,,,,,,,,9,A,2023-09-06_10h40.43.410,exp3,2022.2.2,
low_opac_v,0.4,1,0.01,3,0.82,3.5,0.01,0,0.01,4,5,Valid,0,15,43,start,lin,0.25681611346701083,0.25681611346701083,0.25681611346701083,1,True,,,,,,,,,,,,,9,A,2023-09-06_10h40.43.410,exp3,2022.2.2,
low_opac_i,0.4,1,0.01,3,0.82,3.5,0.01,0,0.01,4,5,Invalid,2,15,44,start,lin,0.01,0,0.01,1,True,,,,,,,,,,,,,9,A,2023-09-06_10h40.43.410,exp3,2022.2.2,
high_opac_v,0.01,1,0.01,3,0.82,3.5,0.01,0,0.01,4,5,Valid,1,16,45,start,lin,0.05622627474425454,0.05622627474425454,0.05622627474425454,0,True,,,,,,,,,,,,,9,A,2023-09-06_10h40.43.410,exp3,2022.2.2,
low_opac_i,0.4,1,0.01,3,0.82,3.5,0.01,0,0.01,4,5,Invalid,2,16,46,start,lin,0.01,0,0.01,1,True,,,,,,,,,,,,,9,A,2023-09-06_10h40.43.410,exp3,2022.2.2,
low_opac_v,0.4,1,0.01,3,0.82,3.5,0.01,0,0.01,4,5,Valid,0,16,47,start,lin,0.24980077876848128,0.24980077876848128,0.24980077876848128,1,True,,,,,,,,,,,,,9,A,2023-09-06_10h40.43.410,exp3,2022.2.2,
high_opac_v,0.01,1,0.01,3,0.82,3.5,0.01,0,0.01,4,5,Valid,1,17,48,start,lin,0.0788725417778806,0.0788725417778806,0.0788725417778806,1,True,,,,,,,,,,,,,9,A,2023-09-06_10h40.43.410,exp3,2022.2.2,
low_opac_i,0.4,1,0.01,3,0.82,3.5,0.01,0,0.01,4,5,Invalid,2,17,49,start,lin,0.01,0,0.01,1,True,,,,,,,,,,,,,9,A,2023-09-06_10h40.43.410,exp3,2022.2.2,
low_opac_v,0.4,1,0.01,3,0.82,3.5,0.01,0,0.01,4,5,Valid,0,17,50,start,lin,0.24296622249978625,0.24296622249978625,0.24296622249978625,1,True,,,,,,,,,,,,,9,A,2023-09-06_10h40.43.410,exp3,2022.2.2,
low_opac_i,0.4,1,0.01,3,0.82,3.5,0.01,0,0.01,4,5,Invalid,2,18,51,start,lin,0.01,0.01,0.01,0,True,,,,,,,,,,,,,9,A,2023-09-06_10h40.43.410,exp3,2022.2.2,
low_opac_v,0.4,1,0.01,3,0.82,3.5,0.01,0,0.01,4,5,Valid,0,18,52,start,lin,0.23624743234498505,0.23624743234498505,0.23624743234498505,1,True,,,,,,,,,,,,,9,A,2023-09-06_10h40.43.410,exp3,2022.2.2,
high_opac_v,0.01,1,0.01,3,0.82,3.5,0.01,0,0.01,4,5,Valid,1,18,53,start,lin,0.07385097104229862,0,0.07385097104229862,1,True,,,,,,,,,,,,,9,A,2023-09-06_10h40.43.410,exp3,2022.2.2,
low_opac_v,0.4,1,0.01,3,0.82,3.5,0.01,0,0.01,4,5,Valid,0,19,54,start,lin,0.23017489092416848,0.23017489092416848,0.23017489092416848,1,True,,,,,,,,,,,,,9,A,2023-09-06_10h40.43.410,exp3,2022.2.2,
low_opac_i,0.4,1,0.01,3,0.82,3.5,0.01,0,0.01,4,5,Invalid,2,19,55,start,lin,0.01,0.01,0.01,0,True,,,,,,,,,,,,,9,A,2023-09-06_10h40.43.410,exp3,2022.2.2,
high_opac_v,0.01,1,0.01,3,0.82,3.5,0.01,0,0.01,4,5,Valid,1,19,56,start,lin,0.0688861628842363,0.0688861628842363,0.0688861628842363,1,True,,,,,,,,,,,,,9,A,2023-09-06_10h40.43.410,exp3,2022.2.2,
low_opac_v,0.4,1,0.01,3,0.82,3.5,0.01,0,0.01,4,5,Valid,0,20,57,start,lin,0.224056446137306,0.224056446137306,0.224056446137306,1,True,,,,,,,,,,,,,9,A,2023-09-06_10h40.43.410,exp3,2022.2.2,
low_opac_i,0.4,1,0.01,3,0.82,3.5,0.01,0,0.01,4,5,Invalid,2,20,58,start,lin,0.023575110252695597,0.023575110252695597,0.023575110252695597,0,True,,,,,,,,,,,,,9,A,2023-09-06_10h40.43.410,exp3,2022.2.2,
high_opac_v,0.01,1,0.01,3,0.82,3.5,0.01,0,0.01,4,5,Valid,1,20,59,start,lin,0.06439534389988724,0.06439534389988724,0.06439534389988724,0,True,,,,,,,,,,,,,9,A,2023-09-06_10h40.43.410,exp3,2022.2.2,
high_opac_v,0.01,1,0.01,3,0.82,3.5,0.01,0,0.01,4,5,Valid,1,21,60,start,lin,0.08093682195033274,0,0.08093682195033274,1,True,,,,,,,,,,,,,9,A,2023-09-06_10h40.43.410,exp3,2022.2.2,
low_opac_v,0.4,1,0.01,3,0.82,3.5,0.01,0,0.01,4,5,Valid,0,21,61,start,lin,0.21790848452145795,0,0.21790848452145795,1,True,,,,,,,,,,,,,9,A,2023-09-06_10h40.43.410,exp3,2022.2.2,
low_opac_i,0.4,1,0.01,3,0.82,3.5,0.01,0,0.01,4,5,Invalid,2,21,62,start,lin,0.04017027099900966,0.04017027099900966,0.04017027099900966,1,True,,,,,,,,,,,,,9,A,2023-09-06_10h40.43.410,exp3,2022.2.2,
low_opac_v,0.4,1,0.01,3,0.82,3.5,0.01,0,0.01,4,5,Valid,0,22,63,start,lin,0.21220854899671773,0.21220854899671773,0.21220854899671773,1,True,,,,,,,,,,,,,9,A,2023-09-06_10h40.43.410,exp3,2022.2.2,
low_opac_i,0.4,1,0.01,3,0.82,3.5,0.01,0,0.01,4,5,Invalid,2,22,64,start,lin,0.036103925216165844,0,0.036103925216165844,1,True,,,,,,,,,,,,,9,A,2023-09-06_10h40.43.410,exp3,2022.2.2,
high_opac_v,0.01,1,0.01,3,0.82,3.5,0.01,0,0.01,4,5,Valid,1,22,65,start,lin,0.07686414380761174,0,0.07686414380761174,1,True,,,,,,,,,,,,,9,A,2023-09-06_10h40.43.410,exp3,2022.2.2,
low_opac_v,0.4,1,0.01,3,0.82,3.5,0.01,0,0.01,4,5,Valid,0,23,66,start,lin,0.20633474793542997,0.20633474793542997,0.20633474793542997,1,True,,,,,,,,,,,,,9,A,2023-09-06_10h40.43.410,exp3,2022.2.2,
high_opac_v,0.01,1,0.01,3,0.82,3.5,0.01,0,0.01,4,5,Valid,1,23,67,start,lin,0.07314731000613256,0.07314731000613256,0.07314731000613256,1,True,,,,,,,,,,,,,9,A,2023-09-06_10h40.43.410,exp3,2022.2.2,
low_opac_i,0.4,1,0.01,3,0.82,3.5,0.01,0,0.01,4,5,Invalid,2,23,68,start,lin,0.032389078298372564,0,0.032389078298372564,1,True,,,,,,,,,,,,,9,A,2023-09-06_10h40.43.410,exp3,2022.2.2,
high_opac_v,0.01,1,0.01,3,0.82,3.5,0.01,0,0.01,4,5,Valid,1,24,69,start,lin,0.06935948255219046,0,0.06935948255219046,1,True,,,,,,,,,,,,,9,A,2023-09-06_10h40.43.410,exp3,2022.2.2,
low_opac_i,0.4,1,0.01,3,0.82,3.5,0.01,0,0.01,4,5,Invalid,2,24,70,start,lin,0.028612750196746695,0,0.028612750196746695,1,True,,,,,,,,,,,,,9,A,2023-09-06_10h40.43.410,exp3,2022.2.2,
low_opac_v,0.4,1,0.01,3,0.82,3.5,0.01,0,0.01,4,5,Valid,0,24,71,start,lin,0.20086061994905047,0,0.20086061994905047,1,True,,,,,,,,,,,,,9,A,2023-09-06_10h40.43.410,exp3,2022.2.2,
high_opac_v,0.01,1,0.01,3,0.82,3.5,0.01,0,0.01,4,5,Valid,1,25,72,start,lin,0.06586032462749715,0,0.06586032462749715,1,True,,,,,,,,,,,,,9,A,2023-09-06_10h40.43.410,exp3,2022.2.2,
low_opac_v,0.4,1,0.01,3,0.82,3.5,0.01,0,0.01,4,5,Valid,0,25,73,start,lin,0.1950984527816429,0,0.1950984527816429,1,True,,,,,,,,,,,,,9,A,2023-09-06_10h40.43.410,exp3,2022.2.2,
low_opac_i,0.4,1,0.01,3,0.82,3.5,0.01,0,0.01,4,5,Invalid,2,25,74,start,lin,0.025152726728704944,0.025152726728704944,0.025152726728704944,0,True,,,,,,,,,,,,,9,A,2023-09-06_10h40.43.410,exp3,2022.2.2,
high_opac_v,0.01,1,0.01,3,0.82,3.5,0.01,0,0.01,4,5,Valid,1,26,75,start,lin,0.0626109920093684,0,0.0626109920093684,1,True,,,,,,,,,,,,,9,A,2023-09-06_10h40.43.410,exp3,2022.2.2,
low_opac_i,0.4,1,0.01,3,0.82,3.5,0.01,0,0.01,4,5,Invalid,2,26,76,start,lin,0.03906279667389506,0.03906279667389506,0.03906279667389506,0,True,,,,,,,,,,,,,9,A,2023-09-06_10h40.43.410,exp3,2022.2.2,
low_opac_v,0.4,1,0.01,3,0.82,3.5,0.01,0,0.01,4,5,Valid,0,26,77,start,lin,0.18968536119401866,0,0.18968536119401866,1,True,,,,,,,,,,,,,9,A,2023-09-06_10h40.43.410,exp3,2022.2.2,
high_opac_v,0.01,1,0.01,3,0.82,3.5,0.01,0,0.01,4,5,Valid,1,27,78,start,lin,0.05925051169310043,0,0.05925051169310043,1,True,,,,,,,,,,,,,9,A,2023-09-06_10h40.43.410,exp3,2022.2.2,
low_opac_i,0.4,1,0.01,3,0.82,3.5,0.01,0,0.01,4,5,Invalid,2,27,79,start,lin,0.05208418250232555,0,0.05208418250232555,1,True,,,,,,,,,,,,,9,A,2023-09-06_10h40.43.410,exp3,2022.2.2,
low_opac_v,0.4,1,0.01,3,0.82,3.5,0.01,0,0.01,4,5,Valid,0,27,80,start,lin,0.18389848373860776,0,0.18389848373860776,1,True,,,,,,,,,,,,,9,A,2023-09-06_10h40.43.410,exp3,2022.2.2,
low_opac_i,0.4,1,0.01,3,0.82,3.5,0.01,0,0.01,4,5,Invalid,2,28,81,start,lin,0.048891225510602154,0.048891225510602154,0.048891225510602154,0,True,,,,,,,,,,,,,9,A,2023-09-06_10h40.43.410,exp3,2022.2.2,
high_opac_v,0.01,1,0.01,3,0.82,3.5,0.01,0,0.01,4,5,Valid,1,28,82,start,lin,0.05611478568019304,0,0.05611478568019304,1,True,,,,,,,,,,,,,9,A,2023-09-06_10h40.43.410,exp3,2022.2.2,
low_opac_v,0.4,1,0.01,3,0.82,3.5,0.01,0,0.01,4,5,Valid,0,28,83,start,lin,0.17781492371821656,0.17781492371821656,0.17781492371821656,1,True,,,,,,,,,,,,,9,A,2023-09-06_10h40.43.410,exp3,2022.2.2,
high_opac_v,0.01,1,0.01,3,0.82,3.5,0.01,0,0.01,4,5,Valid,1,29,84,start,lin,0.05318232712255002,0.05318232712255002,0.05318232712255002,0,True,,,,,,,,,,,,,9,A,2023-09-06_10h40.43.410,exp3,2022.2.2,
low_opac_v,0.4,1,0.01,3,0.82,3.5,0.01,0,0.01,4,5,Valid,0,29,85,start,lin,0.1719061709456084,0,0.1719061709456084,1,True,,,,,,,,,,,,,9,A,2023-09-06_10h40.43.410,exp3,2022.2.2,
low_opac_i,0.4,1,0.01,3,0.82,3.5,0.01,0,0.01,4,5,Invalid,2,29,86,start,lin,0.06102448393476401,0.06102448393476401,0.06102448393476401,0,True,,,,,,,,,,,,,9,A,2023-09-06_10h40.43.410,exp3,2022.2.2,
low_opac_v,0.4,1,0.01,3,0.82,3.5,0.01,0,0.01,4,5,Valid,0,30,87,start,lin,0.16548595380399186,0,0.16548595380399186,1,True,,,,,,,,,,,,,9,A,2023-09-06_10h40.43.410,exp3,2022.2.2,
low_opac_i,0.4,1,0.01,3,0.82,3.5,0.01,0,0.01,4,5,Invalid,2,30,88,start,lin,0.07266376827661636,0.07266376827661636,0.07266376827661636,0,True,,,,,,,,,,,,,9,A,2023-09-06_10h40.43.410,exp3,2022.2.2,
high_opac_v,0.01,1,0.01,3,0.82,3.5,0.01,0,0.01,4,5,Valid,1,30,89,start,lin,0.06477072061013951,0,0.06477072061013951,1,True,,,,,,,,,,,,,9,A,2023-09-06_10h40.43.410,exp3,2022.2.2,
low_opac_v,0.4,1,0.01,3,0.82,3.5,0.01,0,0.01,4,5,Valid,0,31,90,start,lin,0.15926141362691265,0,0.15926141362691265,1,True,,,,,,,,,,,,,9,A,2023-09-06_10h40.43.410,exp3,2022.2.2,
high_opac_v,0.01,1,0.01,3,0.82,3.5,0.01,0,0.01,4,5,Valid,1,31,91,start,lin,0.06189065941810234,0.06189065941810234,0.06189065941810234,0,True,,,,,,,,,,,,,9,A,2023-09-06_10h40.43.410,exp3,2022.2.2,
low_opac_i,0.4,1,0.01,3,0.82,3.5,0.01,0,0.01,4,5,Invalid,2,31,92,start,lin,0.08392648318907386,0.08392648318907386,0.08392648318907386,1,True,,,,,,,,,,,,,9,A,2023-09-06_10h40.43.410,exp3,2022.2.2,
low_opac_v,0.4,1,0.01,3,0.82,3.5,0.01,0,0.01,4,5,Valid,0,32,93,start,lin,0.1523789368778418,0,0.1523789368778418,1,True,,,,,,,,,,,,,9,A,2023-09-06_10h40.43.410,exp3,2022.2.2,
low_opac_i,0.4,1,0.01,3,0.82,3.5,0.01,0,0.01,4,5,Invalid,2,32,94,start,lin,0.08104376966914462,0.08104376966914462,0.08104376966914462,1,True,,,,,,,,,,,,,9,A,2023-09-06_10h40.43.410,exp3,2022.2.2,
high_opac_v,0.01,1,0.01,3,0.82,3.5,0.01,0,0.01,4,5,Valid,1,32,95,start,lin,0.072616263549196,0,0.072616263549196,1,True,,,,,,,,,,,,,9,A,2023-09-06_10h40.43.410,exp3,2022.2.2,
low_opac_v,0.4,1,0.01,3,0.82,3.5,0.01,0,0.01,4,5,Valid,0,33,96,start,lin,0.14481840737209828,0,0.14481840737209828,1,True,,,,,,,,,,,,,9,A,2023-09-06_10h40.43.410,exp3,2022.2.2,
high_opac_v,0.01,1,0.01,3,0.82,3.5,0.01,0,0.01,4,5,Valid,1,33,97,start,lin,0.06996427702466014,0,0.06996427702466014,1,True,,,,,,,,,,,,,9,A,2023-09-06_10h40.43.410,exp3,2022.2.2,
low_opac_i,0.4,1,0.01,3,0.82,3.5,0.01,0,0.01,4,5,Invalid,2,33,98,start,lin,0.07831249877348712,0.07831249877348712,0.07831249877348712,1,True,,,,,,,,,,,,,9,A,2023-09-06_10h40.43.410,exp3,2022.2.2,
low_opac_v,0.4,1,0.01,3,0.82,3.5,0.01,0,0.01,4,5,Valid,0,34,99,start,lin,0.1364921209510127,0.1364921209510127,0.1364921209510127,1,True,,,,,,,,,,,,,9,A,2023-09-06_10h40.43.410,exp3,2022.2.2,
high_opac_v,0.01,1,0.01,3,0.82,3.5,0.01,0,0.01,4,5,Valid,1,34,100,start,lin,0.0674500958640484,0,0.0674500958640484,1,True,,,,,,,,,,,,,9,A,2023-09-06_10h40.43.410,exp3,2022.2.2,
low_opac_i,0.4,1,0.01,3,0.82,3.5,0.01,0,0.01,4,5,Invalid,2,34,101,start,lin,0.07578506487699305,0,0.07578506487699305,1,True,,,,,,,,,,,,,9,A,2023-09-06_10h40.43.410,exp3,2022.2.2,
low_opac_v,0.4,1,0.01,3,0.82,3.5,0.01,0,0.01,4,5,Valid,0,35,102,start,lin,0.12810976112042283,0,0.12810976112042283,1,True,,,,,,,,,,,,,9,A,2023-09-06_10h40.43.410,exp3,2022.2.2,
high_opac_v,0.01,1,0.01,3,0.82,3.5,0.01,0,0.01,4,5,Valid,1,35,103,start,lin,0.0650936718262122,0.0650936718262122,0.0650936718262122,0,True,,,,,,,,,,,,,9,A,2023-09-06_10h40.43.410,exp3,2022.2.2,
low_opac_i,0.4,1,0.01,3,0.82,3.5,0.01,0,0.01,4,5,Invalid,2,35,104,start,lin,0.07340568885452037,0.07340568885452037,0.07340568885452037,1,True,,,,,,,,,,,,,9,A,2023-09-06_10h40.43.410,exp3,2022.2.2,
high_opac_v,0.01,1,0.01,3,0.82,3.5,0.01,0,0.01,4,5,Valid,1,36,105,start,lin,0.07498083833282917,0,0.07498083833282917,1,True,,,,,,,,,,,,,9,A,2023-09-06_10h40.43.410,exp3,2022.2.2,
low_opac_i,0.4,1,0.01,3,0.82,3.5,0.01,0,0.01,4,5,Invalid,2,36,106,start,lin,0.07092465880496784,0.07092465880496784,0.07092465880496784,1,True,,,,,,,,,,,,,9,A,2023-09-06_10h40.43.410,exp3,2022.2.2,
low_opac_v,0.4,1,0.01,3,0.82,3.5,0.01,0,0.01,4,5,Valid,0,36,107,start,lin,0.11877661447658416,0.11877661447658416,0.11877661447658416,1,True,,,,,,,,,,,,,9,A,2023-09-06_10h40.43.410,exp3,2022.2.2,
low_opac_i,0.4,1,0.01,3,0.82,3.5,0.01,0,0.01,4,5,Invalid,2,37,108,start,lin,0.06854523850214639,0,0.06854523850214639,1,True,,,,,,,,,,,,,9,A,2023-09-06_10h40.43.410,exp3,2022.2.2,
high_opac_v,0.01,1,0.01,3,0.82,3.5,0.01,0,0.01,4,5,Valid,1,37,109,start,lin,0.07263874496466229,0.07263874496466229,0.07263874496466229,1,True,,,,,,,,,,,,,9,A,2023-09-06_10h40.43.410,exp3,2022.2.2,
low_opac_v,0.4,1,0.01,3,0.82,3.5,0.01,0,0.01,4,5,Valid,0,37,110,start,lin,0.10833454555989991,0,0.10833454555989991,1,True,,,,,,,,,,,,,9,A,2023-09-06_10h40.43.410,exp3,2022.2.2,
high_opac_v,0.01,1,0.01,3,0.82,3.5,0.01,0,0.01,4,5,Valid,1,38,111,start,lin,0.07036787622010171,0,0.07036787622010171,1,True,,,,,,,,,,,,,9,A,2023-09-06_10h40.43.410,exp3,2022.2.2,
low_opac_v,0.4,1,0.01,3,0.82,3.5,0.01,0,0.01,4,5,Valid,0,38,112,start,lin,0.09662685875082139,0,0.09662685875082139,0,True,,,,,,,,,,,,,9,A,2023-09-06_10h40.43.410,exp3,2022.2.2,
low_opac_i,0.4,1,0.01,3,0.82,3.5,0.01,0,0.01,4,5,Invalid,2,38,113,start,lin,0.06632515425392621,0.06632515425392621,0.06632515425392621,1,True,,,,,,,,,,,,,9,A,2023-09-06_10h40.43.410,exp3,2022.2.2,
low_opac_i,0.4,1,0.01,3,0.82,3.5,0.01,0,0.01,4,5,Invalid,2,39,114,start,lin,0.06422587743798586,0,0.06422587743798586,0,True,,,,,,,,,,,,,9,A,2023-09-06_10h40.43.410,exp3,2022.2.2,
low_opac_v,0.4,1,0.01,3,0.82,3.5,0.01,0,0.01,4,5,Valid,0,39,115,start,lin,0.13619271521328763,0.13619271521328763,0.13619271521328763,1,True,,,,,,,,,,,,,9,A,2023-09-06_10h40.43.410,exp3,2022.2.2,
high_opac_v,0.01,1,0.01,3,0.82,3.5,0.01,0,0.01,4,5,Valid,1,39,116,start,lin,0.0681807268237165,0,0.0681807268237165,1,True,,,,,,,,,,,,,9,A,2023-09-06_10h40.43.410,exp3,2022.2.2,
high_opac_v,0.01,1,0.01,3,0.82,3.5,0.01,0,0.01,4,5,Valid,1,40,117,start,lin,0.0661247320927381,0.0661247320927381,0.0661247320927381,1,True,,,,,,,,,,,,,9,A,2023-09-06_10h40.43.410,exp3,2022.2.2,
low_opac_i,0.4,1,0.01,3,0.82,3.5,0.01,0,0.01,4,5,Invalid,2,40,118,start,lin,0.07265308596199666,0,0.07265308596199666,1,True,,,,,,,,,,,,,9,A,2023-09-06_10h40.43.410,exp3,2022.2.2,
low_opac_v,0.4,1,0.01,3,0.82,3.5,0.01,0,0.01,4,5,Valid,0,40,119,start,lin,0.13115653209021993,0.13115653209021993,0.13115653209021993,1,True,,,,,,,,,,,,,9,A,2023-09-06_10h40.43.410,exp3,2022.2.2,
low_opac_i,0.4,1,0.01,3,0.82,3.5,0.01,0,0.01,4,5,Invalid,2,41,120,start,lin,0.07050739151658858,0,0.07050739151658858,1,True,,,,,,,,,,,,,9,A,2023-09-06_10h40.43.410,exp3,2022.2.2,
high_opac_v,0.01,1,0.01,3,0.82,3.5,0.01,0,0.01,4,5,Valid,1,41,121,start,lin,0.06416704979935611,0,0.06416704979935611,1,True,,,,,,,,,,,,,9,A,2023-09-06_10h40.43.410,exp3,2022.2.2,
low_opac_v,0.4,1,0.01,3,0.82,3.5,0.01,0,0.01,4,5,Valid,0,41,122,start,lin,0.12573943910542174,0,0.12573943910542174,1,True,,,,,,,,,,,,,9,A,2023-09-06_10h40.43.410,exp3,2022.2.2,
low_opac_v,0.4,1,0.01,3,0.82,3.5,0.01,0,0.01,4,5,Valid,0,42,123,start,lin,0.12059817635896103,0,0.12059817635896103,1,True,,,,,,,,,,,,,9,A,2023-09-06_10h40.43.410,exp3,2022.2.2,
low_opac_i,0.4,1,0.01,3,0.82,3.5,0.01,0,0.01,4,5,Invalid,2,42,124,start,lin,0.0684421772259936,0,0.0684421772259936,1,True,,,,,,,,,,,,,9,A,2023-09-06_10h40.43.410,exp3,2022.2.2,
high_opac_v,0.01,1,0.01,3,0.82,3.5,0.01,0,0.01,4,5,Valid,1,42,125,start,lin,0.06210936053061941,0.06210936053061941,0.06210936053061941,0,True,,,,,,,,,,,,,9,A,2023-09-06_10h40.43.410,exp3,2022.2.2,
high_opac_v,0.01,1,0.01,3,0.82,3.5,0.01,0,0.01,4,5,Valid,1,43,126,start,lin,0.06993093786560928,0.06993093786560928,0.06993093786560928,1,True,,,,,,,,,,,,,9,A,2023-09-06_10h40.43.410,exp3,2022.2.2,
low_opac_i,0.4,1,0.01,3,0.82,3.5,0.01,0,0.01,4,5,Invalid,2,43,127,start,lin,0.06650404370820556,0,0.06650404370820556,1,True,,,,,,,,,,,,,9,A,2023-09-06_10h40.43.410,exp3,2022.2.2,
low_opac_v,0.4,1,0.01,3,0.82,3.5,0.01,0,0.01,4,5,Valid,0,43,128,start,lin,0.11507692057725805,0.11507692057725805,0.11507692057725805,1,True,,,,,,,,,,,,,9,A,2023-09-06_10h40.43.410,exp3,2022.2.2,
high_opac_v,0.01,1,0.01,3,0.82,3.5,0.01,0,0.01,4,5,Valid,1,44,129,start,lin,0.0680182448295254,0,0.0680182448295254,1,True,,,,,,,,,,,,,9,A,2023-09-06_10h40.43.410,exp3,2022.2.2,
low_opac_v,0.4,1,0.01,3,0.82,3.5,0.01,0,0.01,4,5,Valid,0,44,130,start,lin,0.10984955932438212,0.10984955932438212,0.10984955932438212,1,True,,,,,,,,,,,,,9,A,2023-09-06_10h40.43.410,exp3,2022.2.2,
low_opac_i,0.4,1,0.01,3,0.82,3.5,0.01,0,0.01,4,5,Invalid,2,44,131,start,lin,0.06466221734040534,0,0.06466221734040534,1,True,,,,,,,,,,,,,9,A,2023-09-06_10h40.43.410,exp3,2022.2.2,
low_opac_i,0.4,1,0.01,3,0.82,3.5,0.01,0,0.01,4,5,Invalid,2,45,132,start,lin,0.0627328908008189,0,0.0627328908008189,1,True,,,,,,,,,,,,,9,A,2023-09-06_10h40.43.410,exp3,2022.2.2,
low_opac_v,0.4,1,0.01,3,0.82,3.5,0.01,0,0.01,4,5,Valid,0,45,133,start,lin,0.10424735218781583,0,0.10424735218781583,1,True,,,,,,,,,,,,,9,A,2023-09-06_10h40.43.410,exp3,2022.2.2,
high_opac_v,0.01,1,0.01,3,0.82,3.5,0.01,0,0.01,4,5,Valid,1,45,134,start,lin,0.06621061618457302,0,0.06621061618457302,0,True,,,,,,,,,,,,,9,A,2023-09-06_10h40.43.410,exp3,2022.2.2,
low_opac_v,0.4,1,0.01,3,0.82,3.5,0.01,0,0.01,4,5,Valid,0,46,135,start,lin,0.09838731305108644,0,0.09838731305108644,1,True,,,,,,,,,,,,,9,A,2023-09-06_10h40.43.410,exp3,2022.2.2,
low_opac_i,0.4,1,0.01,3,0.82,3.5,0.01,0,0.01,4,5,Invalid,2,46,136,start,lin,0.060850918537934506,0.060850918537934506,0.060850918537934506,1,True,,,,,,,,,,,,,9,A,2023-09-06_10h40.43.410,exp3,2022.2.2,
high_opac_v,0.01,1,0.01,3,0.82,3.5,0.01,0,0.01,4,5,Valid,1,46,137,start,lin,0.07382582263103221,0.07382582263103221,0.07382582263103221,1,True,,,,,,,,,,,,,9,A,2023-09-06_10h40.43.410,exp3,2022.2.2,
low_opac_i,0.4,1,0.01,3,0.82,3.5,0.01,0,0.01,4,5,Invalid,2,47,138,start,lin,0.05901090044755947,0.05901090044755947,0.05901090044755947,1,True,,,,,,,,,,,,,9,A,2023-09-06_10h40.43.410,exp3,2022.2.2,
low_opac_v,0.4,1,0.01,3,0.82,3.5,0.01,0,0.01,4,5,Valid,0,47,139,start,lin,0.09271557133281827,0.09271557133281827,0.09271557133281827,1,True,,,,,,,,,,,,,9,A,2023-09-06_10h40.43.410,exp3,2022.2.2,
high_opac_v,0.01,1,0.01,3,0.82,3.5,0.01,0,0.01,4,5,Valid,1,47,140,start,lin,0.07202670768334385,0.07202670768334385,0.07202670768334385,1,True,,,,,,,,,,,,,9,A,2023-09-06_10h40.43.410,exp3,2022.2.2,
low_opac_v,0.4,1,0.01,3,0.82,3.5,0.01,0,0.01,4,5,Valid,0,48,141,start,lin,0.0866600530028479,0,0.0866600530028479,1,True,,,,,,,,,,,,,9,A,2023-09-06_10h40.43.410,exp3,2022.2.2,
high_opac_v,0.01,1,0.01,3,0.82,3.5,0.01,0,0.01,4,5,Valid,1,48,142,start,lin,0.07025741456899666,0,0.07025741456899666,1,True,,,,,,,,,,,,,9,A,2023-09-06_10h40.43.410,exp3,2022.2.2,
low_opac_i,0.4,1,0.01,3,0.82,3.5,0.01,0,0.01,4,5,Invalid,2,48,143,start,lin,0.057271820029235476,0,0.057271820029235476,1,True,,,,,,,,,,,,,9,A,2023-09-06_10h40.43.410,exp3,2022.2.2,
low_opac_v,0.4,1,0.01,3,0.82,3.5,0.01,0,0.01,4,5,Valid,0,49,144,start,lin,0.08083493959688859,0.08083493959688859,0.08083493959688859,1,True,,,,,,,,,,,,,9,A,2023-09-06_10h40.43.410,exp3,2022.2.2,
low_opac_i,0.4,1,0.01,3,0.82,3.5,0.01,0,0.01,4,5,Invalid,2,49,145,start,lin,0.055618001470883804,0.055618001470883804,0.055618001470883804,1,True,,,,,,,,,,,,,9,A,2023-09-06_10h40.43.410,exp3,2022.2.2,
high_opac_v,0.01,1,0.01,3,0.82,3.5,0.01,0,0.01,4,5,Valid,1,49,146,start,lin,0.06853573320328249,0.06853573320328249,0.06853573320328249,1,True,,,,,,,,,,,,,9,A,2023-09-06_10h40.43.410,exp3,2022.2.2,
low_opac_i,0.4,1,0.01,3,0.82,3.5,0.01,0,0.01,4,5,Invalid,2,50,147,start,lin,0.05402810620458309,0.05402810620458309,0.05402810620458309,0,True,,,,,,,,,,,,,9,A,2023-09-06_10h40.43.410,exp3,2022.2.2,
low_opac_v,0.4,1,0.01,3,0.82,3.5,0.01,0,0.01,4,5,Valid,0,50,148,start,lin,0.07444390413588253,0.07444390413588253,0.07444390413588253,1,True,,,,,,,,,,,,,9,A,2023-09-06_10h40.43.410,exp3,2022.2.2,
high_opac_v,0.01,1,0.01,3,0.82,3.5,0.01,0,0.01,4,5,Valid,1,50,149,start,lin,0.06690603951528187,0,0.06690603951528187,0,True,,,,,,,,,,,,,9,A,2023-09-06_10h40.43.410,exp3,2022.2.2,
low_opac_v,0.4,1,0.01,3,0.82,3.5,0.01,0,0.01,4,5,Valid,0,51,150,start,lin,0.0675483927248251,0,0.0675483927248251,1,True,,,,,,,,,,,,,9,A,2023-09-06_10h40.43.410,exp3,2022.2.2,
low_opac_i,0.4,1,0.01,3,0.82,3.5,0.01,0,0.01,4,5,Invalid,2,51,151,start,lin,0.060559442094144766,0,0.060559442094144766,0,True,,,,,,,,,,,,,9,A,2023-09-06_10h40.43.410,exp3,2022.2.2,
high_opac_v,0.01,1,0.01,3,0.82,3.5,0.01,0,0.01,4,5,Valid,1,51,152,start,lin,0.07372506906067386,0.07372506906067386,0.07372506906067386,1,True,,,,,,,,,,,,,9,A,2023-09-06_10h40.43.410,exp3,2022.2.2,
low_opac_i,0.4,1,0.01,3,0.82,3.5,0.01,0,0.01,4,5,Invalid,2,52,153,start,lin,0.06706616468018911,0,0.06706616468018911,1,True,,,,,,,,,,,,,9,A,2023-09-06_10h40.43.410,exp3,2022.2.2,
high_opac_v,0.01,1,0.01,3,0.82,3.5,0.01,0,0.01,4,5,Valid,1,52,154,start,lin,0.07211227140718414,0,0.07211227140718414,1,True,,,,,,,,,,,,,9,A,2023-09-06_10h40.43.410,exp3,2022.2.2,
low_opac_v,0.4,1,0.01,3,0.82,3.5,0.01,0,0.01,4,5,Valid,0,52,155,start,lin,0.06068998838709311,0,0.06068998838709311,1,True,,,,,,,,,,,,,9,A,2023-09-06_10h40.43.410,exp3,2022.2.2,
high_opac_v,0.01,1,0.01,3,0.82,3.5,0.01,0,0.01,4,5,Valid,1,53,156,start,lin,0.07052139264722639,0,0.07052139264722639,1,True,,,,,,,,,,,,,9,A,2023-09-06_10h40.43.410,exp3,2022.2.2,
low_opac_v,0.4,1,0.01,3,0.82,3.5,0.01,0,0.01,4,5,Valid,0,53,157,start,lin,0.05289235953442156,0,0.05289235953442156,1,True,,,,,,,,,,,,,9,A,2023-09-06_10h40.43.410,exp3,2022.2.2,
low_opac_i,0.4,1,0.01,3,0.82,3.5,0.01,0,0.01,4,5,Invalid,2,53,158,start,lin,0.06555358506165282,0,0.06555358506165282,1,True,,,,,,,,,,,,,9,A,2023-09-06_10h40.43.410,exp3,2022.2.2,
low_opac_v,0.4,1,0.01,3,0.82,3.5,0.01,0,0.01,4,5,Valid,0,54,159,start,lin,0.04405010110155011,0,0.04405010110155011,1,True,,,,,,,,,,,,,9,A,2023-09-06_10h40.43.410,exp3,2022.2.2,
low_opac_i,0.4,1,0.01,3,0.82,3.5,0.01,0,0.01,4,5,Invalid,2,54,160,start,lin,0.06409567741703565,0.06409567741703565,0.06409567741703565,1,True,,,,,,,,,,,,,9,A,2023-09-06_10h40.43.410,exp3,2022.2.2,
high_opac_v,0.01,1,0.01,3,0.82,3.5,0.01,0,0.01,4,5,Valid,1,54,161,start,lin,0.06895651090155744,0.06895651090155744,0.06895651090155744,1,True,,,,,,,,,,,,,9,A,2023-09-06_10h40.43.410,exp3,2022.2.2,
low_opac_v,0.4,1,0.01,3,0.82,3.5,0.01,0,0.01,4,5,Valid,0,55,162,start,lin,0.03375405686889543,0.03375405686889543,0.03375405686889543,0,True,,,,,,,,,,,,,9,A,2023-09-06_10h40.43.410,exp3,2022.2.2,
high_opac_v,0.01,1,0.01,3,0.82,3.5,0.01,0,0.01,4,5,Valid,1,55,163,start,lin,0.06746981694566097,0.06746981694566097,0.06746981694566097,1,True,,,,,,,,,,,,,9,A,2023-09-06_10h40.43.410,exp3,2022.2.2,
low_opac_i,0.4,1,0.01,3,0.82,3.5,0.01,0,0.01,4,5,Invalid,2,55,164,start,lin,0.06254936217564888,0.06254936217564888,0.06254936217564888,1,True,,,,,,,,,,,,,9,A,2023-09-06_10h40.43.410,exp3,2022.2.2,
low_opac_v,0.4,1,0.01,3,0.82,3.5,0.01,0,0.01,4,5,Valid,0,56,165,start,lin,0.06725211608119785,0.06725211608119785,0.06725211608119785,1,True,,,,,,,,,,,,,9,A,2023-09-06_10h40.43.410,exp3,2022.2.2,
high_opac_v,0.01,1,0.01,3,0.82,3.5,0.01,0,0.01,4,5,Valid,1,56,166,start,lin,0.06604924690491748,0,0.06604924690491748,1,True,,,,,,,,,,,,,9,A,2023-09-06_10h40.43.410,exp3,2022.2.2,
low_opac_i,0.4,1,0.01,3,0.82,3.5,0.01,0,0.01,4,5,Invalid,2,56,167,start,lin,0.06102752895308766,0.06102752895308766,0.06102752895308766,1,True,,,,,,,,,,,,,9,A,2023-09-06_10h40.43.410,exp3,2022.2.2,
low_opac_v,0.4,1,0.01,3,0.82,3.5,0.01,0,0.01,4,5,Valid,0,57,168,start,lin,0.06304138401449039,0.06304138401449039,0.06304138401449039,0,True,,,,,,,,,,,,,9,A,2023-09-06_10h40.43.410,exp3,2022.2.2,
high_opac_v,0.01,1,0.01,3,0.82,3.5,0.01,0,0.01,4,5,Valid,1,57,169,start,lin,0.06467940715094699,0,0.06467940715094699,1,True,,,,,,,,,,,,,9,A,2023-09-06_10h40.43.410,exp3,2022.2.2,
low_opac_i,0.4,1,0.01,3,0.82,3.5,0.01,0,0.01,4,5,Invalid,2,57,170,start,lin,0.059519613085904866,0,0.059519613085904866,0,True,,,,,,,,,,,,,9,A,2023-09-06_10h40.43.410,exp3,2022.2.2,
low_opac_v,0.4,1,0.01,3,0.82,3.5,0.01,0,0.01,4,5,Valid,0,58,171,start,lin,0.07918828607332129,0,0.07918828607332129,1,True,,,,,,,,,,,,,9,A,2023-09-06_10h40.43.410,exp3,2022.2.2,
low_opac_i,0.4,1,0.01,3,0.82,3.5,0.01,0,0.01,4,5,Invalid,2,58,172,start,lin,0.06541559668327851,0.06541559668327851,0.06541559668327851,1,True,,,,,,,,,,,,,9,A,2023-09-06_10h40.43.410,exp3,2022.2.2,
high_opac_v,0.01,1,0.01,3,0.82,3.5,0.01,0,0.01,4,5,Valid,1,58,173,start,lin,0.06322735408655847,0.06322735408655847,0.06322735408655847,1,True,,,,,,,,,,,,,9,A,2023-09-06_10h40.43.410,exp3,2022.2.2,
low_opac_v,0.4,1,0.01,3,0.82,3.5,0.01,0,0.01,4,5,Valid,0,59,174,start,lin,0.07581046966032229,0.07581046966032229,0.07581046966032229,0,True,,,,,,,,,,,,,9,A,2023-09-06_10h40.43.410,exp3,2022.2.2,
high_opac_v,0.01,1,0.01,3,0.82,3.5,0.01,0,0.01,4,5,Valid,1,59,175,start,lin,0.061799982074515945,0.061799982074515945,0.061799982074515945,1,True,,,,,,,,,,,,,9,A,2023-09-06_10h40.43.410,exp3,2022.2.2,
low_opac_i,0.4,1,0.01,3,0.82,3.5,0.01,0,0.01,4,5,Invalid,2,59,176,start,lin,0.06409368168378471,0,0.06409368168378471,0,True,,,,,,,,,,,,,9,A,2023-09-06_10h40.43.410,exp3,2022.2.2,
low_opac_v,0.4,1,0.01,3,0.82,3.5,0.01,0,0.01,4,5,Valid,0,60,177,start,lin,0.0892579493361369,0,0.0892579493361369,1,True,,,,,,,,,,,,,9,A,2023-09-06_10h40.43.410,exp3,2022.2.2,
low_opac_i,0.4,1,0.01,3,0.82,3.5,0.01,0,0.01,4,5,Invalid,2,60,178,start,lin,0.06955358443985149,0.06955358443985149,0.06955358443985149,1,True,,,,,,,,,,,,,9,A,2023-09-06_10h40.43.410,exp3,2022.2.2,
high_opac_v,0.01,1,0.01,3,0.82,3.5,0.01,0,0.01,4,5,Valid,1,60,179,start,lin,0.06038299828988362,0.06038299828988362,0.06038299828988362,1,True,,,,,,,,,,,,,9,A,2023-09-06_10h40.43.410,exp3,2022.2.2,
low_opac_i,0.4,1,0.01,3,0.82,3.5,0.01,0,0.01,4,5,Invalid,2,61,180,start,lin,0.06818568726693208,0.06818568726693208,0.06818568726693208,1,True,,,,,,,,,,,,,9,A,2023-09-06_10h40.43.410,exp3,2022.2.2,
low_opac_v,0.4,1,0.01,3,0.82,3.5,0.01,0,0.01,4,5,Valid,0,61,181,start,lin,0.08637784654228153,0,0.08637784654228153,1,True,,,,,,,,,,,,,9,A,2023-09-06_10h40.43.410,exp3,2022.2.2,
high_opac_v,0.01,1,0.01,3,0.82,3.5,0.01,0,0.01,4,5,Valid,1,61,182,start,lin,0.05898231982229407,0,0.05898231982229407,1,True,,,,,,,,,,,,,9,A,2023-09-06_10h40.43.410,exp3,2022.2.2,
high_opac_v,0.01,1,0.01,3,0.82,3.5,0.01,0,0.01,4,5,Valid,1,62,183,start,lin,0.05764688101977198,0,0.05764688101977198,1,True,,,,,,,,,,,,,9,A,2023-09-06_10h40.43.410,exp3,2022.2.2,
low_opac_v,0.4,1,0.01,3,0.82,3.5,0.01,0,0.01,4,5,Valid,0,62,184,start,lin,0.08365277897956214,0.08365277897956214,0.08365277897956214,1,True,,,,,,,,,,,,,9,A,2023-09-06_10h40.43.410,exp3,2022.2.2,
low_opac_i,0.4,1,0.01,3,0.82,3.5,0.01,0,0.01,4,5,Invalid,2,62,185,start,lin,0.06688215559565225,0.06688215559565225,0.06688215559565225,1,True,,,,,,,,,,,,,9,A,2023-09-06_10h40.43.410,exp3,2022.2.2,
low_opac_v,0.4,1,0.01,3,0.82,3.5,0.01,0,0.01,4,5,Valid,0,63,186,start,lin,0.08079033376468919,0.08079033376468919,0.08079033376468919,1,True,,,,,,,,,,,,,9,A,2023-09-06_10h40.43.410,exp3,2022.2.2,
high_opac_v,0.01,1,0.01,3,0.82,3.5,0.01,0,0.01,4,5,Valid,1,63,187,start,lin,0.05636740935466451,0.05636740935466451,0.05636740935466451,0,True,,,,,,,,,,,,,9,A,2023-09-06_10h40.43.410,exp3,2022.2.2,
low_opac_i,0.4,1,0.01,3,0.82,3.5,0.01,0,0.01,4,5,Invalid,2,63,188,start,lin,0.06562964227104995,0,0.06562964227104995,0,True,,,,,,,,,,,,,9,A,2023-09-06_10h40.43.410,exp3,2022.2.2,
high_opac_v,0.01,1,0.01,3,0.82,3.5,0.01,0,0.01,4,5,Valid,1,64,189,start,lin,0.06190252919712177,0.06190252919712177,0.06190252919712177,1,True,,,,,,,,,,,,,9,A,2023-09-06_10h40.43.410,exp3,2022.2.2,
low_opac_i,0.4,1,0.01,3,0.82,3.5,0.01,0,0.01,4,5,Invalid,2,64,190,start,lin,0.07113024432858828,0.07113024432858828,0.07113024432858828,1,True,,,,,,,,,,,,,9,A,2023-09-06_10h40.43.410,exp3,2022.2.2,
low_opac_v,0.4,1,0.01,3,0.82,3.5,0.01,0,0.01,4,5,Valid,0,64,191,start,lin,0.07798748830819341,0.07798748830819341,0.07798748830819341,1,True,,,,,,,,,,,,,9,A,2023-09-06_10h40.43.410,exp3,2022.2.2,
low_opac_i,0.4,1,0.01,3,0.82,3.5,0.01,0,0.01,4,5,Invalid,2,65,192,start,lin,0.06981451190321147,0.06981451190321147,0.06981451190321147,1,True,,,,,,,,,,,,,9,A,2023-09-06_10h40.43.410,exp3,2022.2.2,
high_opac_v,0.01,1,0.01,3,0.82,3.5,0.01,0,0.01,4,5,Valid,1,65,193,start,lin,0.060602700746804794,0,0.060602700746804794,1,True,,,,,,,,,,,,,9,A,2023-09-06_10h40.43.410,exp3,2022.2.2,
low_opac_v,0.4,1,0.01,3,0.82,3.5,0.01,0,0.01,4,5,Valid,0,65,194,start,lin,0.0753333845450681,0,0.0753333845450681,1,True,,,,,,,,,,,,,9,A,2023-09-06_10h40.43.410,exp3,2022.2.2,
low_opac_v,0.4,1,0.01,3,0.82,3.5,0.01,0,0.01,4,5,Valid,0,66,195,start,lin,0.07279721050201277,0,0.07279721050201277,1,True,,,,,,,,,,,,,9,A,2023-09-06_10h40.43.410,exp3,2022.2.2,
low_opac_i,0.4,1,0.01,3,0.82,3.5,0.01,0,0.01,4,5,Invalid,2,66,196,start,lin,0.06854379703307156,0.06854379703307156,0.06854379703307156,1,True,,,,,,,,,,,,,9,A,2023-09-06_10h40.43.410,exp3,2022.2.2,
high_opac_v,0.01,1,0.01,3,0.82,3.5,0.01,0,0.01,4,5,Valid,1,66,197,start,lin,0.05930785340663546,0.05930785340663546,0.05930785340663546,0,True,,,,,,,,,,,,,9,A,2023-09-06_10h40.43.410,exp3,2022.2.2,
low_opac_v,0.4,1,0.01,3,0.82,3.5,0.01,0,0.01,4,5,Valid,0,67,198,start,lin,0.0701065539739768,0,0.0701065539739768,1,True,,,,,,,,,,,,,9,A,2023-09-06_10h40.43.410,exp3,2022.2.2,
low_opac_i,0.4,1,0.01,3,0.82,3.5,0.01,0,0.01,4,5,Invalid,2,67,199,start,lin,0.06733264278031081,0.06733264278031081,0.06733264278031081,1,True,,,,,,,,,,,,,9,A,2023-09-06_10h40.43.410,exp3,2022.2.2,
high_opac_v,0.01,1,0.01,3,0.82,3.5,0.01,0,0.01,4,5,Valid,1,67,200,start,lin,0.06441611854295635,0,0.06441611854295635,1,True,,,,,,,,,,,,,9,A,2023-09-06_10h40.43.410,exp3,2022.2.2,
low_opac_i,0.4,1,0.01,3,0.82,3.5,0.01,0,0.01,4,5,Invalid,2,68,201,start,lin,0.0661695086770206,0,0.0661695086770206,1,True,,,,,,,,,,,,,9,A,2023-09-06_10h40.43.410,exp3,2022.2.2,
high_opac_v,0.01,1,0.01,3,0.82,3.5,0.01,0,0.01,4,5,Valid,1,68,202,start,lin,0.06319502829818952,0,0.06319502829818952,1,True,,,,,,,,,,,,,9,A,2023-09-06_10h40.43.410,exp3,2022.2.2,
low_opac_v,0.4,1,0.01,3,0.82,3.5,0.01,0,0.01,4,5,Valid,0,68,203,start,lin,0.06746078106485826,0,0.06746078106485826,1,True,,,,,,,,,,,,,9,A,2023-09-06_10h40.43.410,exp3,2022.2.2,
low_opac_v,0.4,1,0.01,3,0.82,3.5,0.01,0,0.01,4,5,Valid,0,69,204,start,lin,0.06495503761042559,0,0.06495503761042559,1,True,,,,,,,,,,,,,9,A,2023-09-06_10h40.43.410,exp3,2022.2.2,
high_opac_v,0.01,1,0.01,3,0.82,3.5,0.01,0,0.01,4,5,Valid,1,69,205,start,lin,0.06198932574719818,0,0.06198932574719818,1,True,,,,,,,,,,,,,9,A,2023-09-06_10h40.43.410,exp3,2022.2.2,
low_opac_i,0.4,1,0.01,3,0.82,3.5,0.01,0,0.01,4,5,Invalid,2,69,206,start,lin,0.06504411418053996,0.06504411418053996,0.06504411418053996,1,True,,,,,,,,,,,,,9,A,2023-09-06_10h40.43.410,exp3,2022.2.2,
low_opac_i,0.4,1,0.01,3,0.82,3.5,0.01,0,0.01,4,5,Invalid,2,70,207,start,lin,0.06394719919155822,0.06394719919155822,0.06394719919155822,1,True,,,,,,,,,,,,,9,A,2023-09-06_10h40.43.410,exp3,2022.2.2,
high_opac_v,0.01,1,0.01,3,0.82,3.5,0.01,0,0.01,4,5,Valid,1,70,208,start,lin,0.06078891755727781,0,0.06078891755727781,1,True,,,,,,,,,,,,,9,A,2023-09-06_10h40.43.410,exp3,2022.2.2,
low_opac_v,0.4,1,0.01,3,0.82,3.5,0.01,0,0.01,4,5,Valid,0,70,209,start,lin,0.06232920226427435,0.06232920226427435,0.06232920226427435,1,True,,,,,,,,,,,,,9,A,2023-09-06_10h40.43.410,exp3,2022.2.2,
low_opac_i,0.4,1,0.01,3,0.82,3.5,0.01,0,0.01,4,5,Invalid,2,71,210,start,lin,0.06277292989141053,0,0.06277292989141053,1,True,,,,,,,,,,,,,9,A,2023-09-06_10h40.43.410,exp3,2022.2.2,
high_opac_v,0.01,1,0.01,3,0.82,3.5,0.01,0,0.01,4,5,Valid,1,71,211,start,lin,0.05958684194948075,0,0.05958684194948075,1,True,,,,,,,,,,,,,9,A,2023-09-06_10h40.43.410,exp3,2022.2.2,
low_opac_v,0.4,1,0.01,3,0.82,3.5,0.01,0,0.01,4,5,Valid,0,71,212,start,lin,0.05975285477585629,0.05975285477585629,0.05975285477585629,1,True,,,,,,,,,,,,,9,A,2023-09-06_10h40.43.410,exp3,2022.2.2,
low_opac_v,0.4,1,0.01,3,0.82,3.5,0.01,0,0.01,4,5,Valid,0,72,213,start,lin,0.0572203571926963,0,0.0572203571926963,1,True,,,,,,,,,,,,,9,A,2023-09-06_10h40.43.410,exp3,2022.2.2,
high_opac_v,0.01,1,0.01,3,0.82,3.5,0.01,0,0.01,4,5,Valid,1,72,214,start,lin,0.05842550820219801,0.05842550820219801,0.05842550820219801,0,True,,,,,,,,,,,,,9,A,2023-09-06_10h40.43.410,exp3,2022.2.2,
low_opac_i,0.4,1,0.01,3,0.82,3.5,0.01,0,0.01,4,5,Invalid,2,72,215,start,lin,0.06161012341480887,0.06161012341480887,0.06161012341480887,1,True,,,,,,,,,,,,,9,A,2023-09-06_10h40.43.410,exp3,2022.2.2,
low_opac_v,0.4,1,0.01,3,0.82,3.5,0.01,0,0.01,4,5,Valid,0,73,216,start,lin,0.05481351487612107,0.05481351487612107,0.05481351487612107,0,True,,,,,,,,,,,,,9,A,2023-09-06_10h40.43.410,exp3,2022.2.2,
high_opac_v,0.01,1,0.01,3,0.82,3.5,0.01,0,0.01,4,5,Valid,1,73,217,start,lin,0.06318249585331688,0,0.06318249585331688,1,True,,,,,,,,,,,,,9,A,2023-09-06_10h40.43.410,exp3,2022.2.2,
low_opac_i,0.4,1,0.01,3,0.82,3.5,0.01,0,0.01,4,5,Invalid,2,73,218,start,lin,0.060449494632830725,0.060449494632830725,0.060449494632830725,0,True,,,,,,,,,,,,,9,A,2023-09-06_10h40.43.410,exp3,2022.2.2,
low_opac_v,0.4,1,0.01,3,0.82,3.5,0.01,0,0.01,4,5,Valid,0,74,219,start,lin,0.06428153091760092,0.06428153091760092,0.06428153091760092,1,True,,,,,,,,,,,,,9,A,2023-09-06_10h40.43.410,exp3,2022.2.2,
low_opac_i,0.4,1,0.01,3,0.82,3.5,0.01,0,0.01,4,5,Invalid,2,74,220,start,lin,0.0649811628696575,0.0649811628696575,0.0649811628696575,1,True,,,,,,,,,,,,,9,A,2023-09-06_10h40.43.410,exp3,2022.2.2,
high_opac_v,0.01,1,0.01,3,0.82,3.5,0.01,0,0.01,4,5,Valid,1,74,221,start,lin,0.06206390476385041,0.06206390476385041,0.06206390476385041,1,True,,,,,,,,,,,,,9,A,2023-09-06_10h40.43.410,exp3,2022.2.2,
high_opac_v,0.01,1,0.01,3,0.82,3.5,0.01,0,0.01,4,5,Valid,1,75,222,start,lin,0.06094892982760549,0,0.06094892982760549,0,True,,,,,,,,,,,,,9,A,2023-09-06_10h40.43.410,exp3,2022.2.2,
low_opac_i,0.4,1,0.01,3,0.82,3.5,0.01,0,0.01,4,5,Invalid,2,75,223,start,lin,0.06387292269812983,0.06387292269812983,0.06387292269812983,1,True,,,,,,,,,,,,,9,A,2023-09-06_10h40.43.410,exp3,2022.2.2,
low_opac_v,0.4,1,0.01,3,0.82,3.5,0.01,0,0.01,4,5,Valid,0,75,224,start,lin,0.06203205656615285,0,0.06203205656615285,1,True,,,,,,,,,,,,,9,A,2023-09-06_10h40.43.410,exp3,2022.2.2,
,,,,,,,,,,,,,,,,,,,,,,,0,-2274,Invalid,signal,0,2,945.5394962001592,0,3.0,6.085458799963817,1,True,9,A,2023-09-06_10h40.43.410,exp3,2022.2.2,
,,,,,,,,,,,,,,,,,,,,,,,0,1716,Invalid,noise,0,2,951.7633579003159,1,4.0,9.48243540013209,1,True,9,A,2023-09-06_10h40.43.410,exp3,2022.2.2,
,,,,,,,,,,,,,,,,,,,,,,,0,1716,Valid,noise,0,2,961.6996391001157,1,3.0,3.229083300102502,1,True,9,A,2023-09-06_10h40.43.410,exp3,2022.2.2,
,,,,,,,,,,,,,,,,,,,,,,,0,-1158,Valid,noise,0,2,965.7314277002588,1,3.0,3.046372100012377,1,True,9,A,2023-09-06_10h40.43.410,exp3,2022.2.2,
,,,,,,,,,,,,,,,,,,,,,,,0,557,Valid,signal,0,2,969.6827621001285,0,4.0,2.862777200061828,1,True,9,A,2023-09-06_10h40.43.410,exp3,2022.2.2,
,,,,,,,,,,,,,,,,,,,,,,,0,1716,Valid,noise,0,2,973.4273050001357,1,4.0,3.0466394000686705,1,True,9,A,2023-09-06_10h40.43.410,exp3,2022.2.2,
,,,,,,,,,,,,,,,,,,,,,,,0,1158,Valid,noise,0,2,977.4752652002499,1,3.0,3.045927400002256,1,True,9,A,2023-09-06_10h40.43.410,exp3,2022.2.2,
,,,,,,,,,,,,,,,,,,,,,,,0,-1158,Valid,noise,0,2,981.4597399001941,1,4.0,2.5958881000988185,1,True,9,A,2023-09-06_10h40.43.410,exp3,2022.2.2,
,,,,,,,,,,,,,,,,,,,,,,,0,-1716,Valid,signal,0,2,985.1232542002108,0,4.0,2.6129153999499977,1,True,9,A,2023-09-06_10h40.43.410,exp3,2022.2.2,
,,,,,,,,,,,,,,,,,,,,,,,0,-557,Valid,signal,0,2,988.5789619002026,0,4.0,2.746183600043878,1,True,9,A,2023-09-06_10h40.43.410,exp3,2022.2.2,
,,,,,,,,,,,,,,,,,,,,,,,0,-2274,Invalid,noise,0,2,993.444064100273,1,2.0,3.896592500153929,1,True,9,A,2023-09-06_10h40.43.410,exp3,2022.2.2,
,,,,,,,,,,,,,,,,,,,,,,,0,1716,Valid,signal,0,2,997.699017100269,0,4.0,3.162393999984488,1,True,9,A,2023-09-06_10h40.43.410,exp3,2022.2.2,
,,,,,,,,,,,,,,,,,,,,,,,0,-557,Invalid,signal,0,2,1002.2431833001319,0,4.0,3.397243299987167,1,True,9,A,2023-09-06_10h40.43.410,exp3,2022.2.2,
,,,,,,,,,,,,,,,,,,,,,,,0,2274,Valid,noise,0,2,1007.7638637002092,1,3.0,5.046647599898279,1,True,9,A,2023-09-06_10h40.43.410,exp3,2022.2.2,
,,,,,,,,,,,,,,,,,,,,,,,0,1716,Valid,noise,0,2,1011.8911787001416,1,4.0,2.363072199979797,1,True,9,A,2023-09-06_10h40.43.410,exp3,2022.2.2,
,,,,,,,,,,,,,,,,,,,,,,,0,1716,Valid,signal,0,2,1015.4918209002353,0,4.0,3.463123300112784,1,True,9,A,2023-09-06_10h40.43.410,exp3,2022.2.2,
,,,,,,,,,,,,,,,,,,,,,,,0,1716,Invalid,signal,0,2,1020.868041800335,0,3.0,3.6128829000517726,1,True,9,A,2023-09-06_10h40.43.410,exp3,2022.2.2,
,,,,,,,,,,,,,,,,,,,,,,,0,2274,Valid,signal,0,2,1024.7390047002118,0,3.0,2.9301595999859273,1,True,9,A,2023-09-06_10h40.43.410,exp3,2022.2.2,
,,,,,,,,,,,,,,,,,,,,,,,0,-2274,Valid,noise,0,2,1029.587086000247,1,3.0,3.67957970011048,1,True,9,A,2023-09-06_10h40.43.410,exp3,2022.2.2,
,,,,,,,,,,,,,,,,,,,,,,,0,1158,Invalid,noise,0,2,1033.7155758002773,1,3.0,3.0958159000147134,1,True,9,A,2023-09-06_10h40.43.410,exp3,2022.2.2,
,,,,,,,,,,,,,,,,,,,,,,,0,-1716,Valid,signal,0,2,1037.1711758002639,0,3.0,2.3956017000600696,1,True,9,A,2023-09-06_10h40.43.410,exp3,2022.2.2,
,,,,,,,,,,,,,,,,,,,,,,,0,1158,Valid,noise,0,2,1041.3312076001894,1,3.0,3.3800941000226885,1,True,9,A,2023-09-06_10h40.43.410,exp3,2022.2.2,
,,,,,,,,,,,,,,,,,,,,,,,0,1158,Valid,noise,0,2,1045.010843400145,1,3.0,2.729315900010988,1,True,9,A,2023-09-06_10h40.43.410,exp3,2022.2.2,
,,,,,,,,,,,,,,,,,,,,,,,0,2274,Valid,signal,0,2,1051.8428885003086,0,2.0,6.4313328000716865,2,True,9,A,2023-09-06_10h40.43.410,exp3,2022.2.2,
,,,,,,,,,,,,,,,,,,,,,,,0,-557,Valid,signal,0,2,1056.1798287001438,0,4.0,4.913925100117922,1,True,9,A,2023-09-06_10h40.43.410,exp3,2022.2.2,
,,,,,,,,,,,,,,,,,,,,,,,0,-1158,Valid,signal,0,2,1062.1320209002588,0,3.0,2.6289184999186546,1,True,9,A,2023-09-06_10h40.43.410,exp3,2022.2.2,
,,,,,,,,,,,,,,,,,,,,,,,0,-1158,Invalid,noise,0,2,1065.9073853001464,1,3.0,3.4464871999807656,1,True,9,A,2023-09-06_10h40.43.410,exp3,2022.2.2,
,,,,,,,,,,,,,,,,,,,,,,,0,2274,Valid,noise,0,2,1070.7079852002207,1,3.0,3.5130946000572294,1,True,9,A,2023-09-06_10h40.43.410,exp3,2022.2.2,
,,,,,,,,,,,,,,,,,,,,,,,0,2274,Valid,signal,0,2,1075.6195579001214,0,2.0,4.163814299972728,1,True,9,A,2023-09-06_10h40.43.410,exp3,2022.2.2,
,,,,,,,,,,,,,,,,,,,,,,,0,2274,Valid,signal,0,2,1080.1148444002029,0,2.0,2.862343000015244,1,True,9,A,2023-09-06_10h40.43.410,exp3,2022.2.2,
,,,,,,,,,,,,,,,,,,,,,,,0,557,Invalid,signal,0,2,1083.8280165002216,0,4.0,3.213048600126058,1,True,9,A,2023-09-06_10h40.43.410,exp3,2022.2.2,
,,,,,,,,,,,,,,,,,,,,,,,0,2274,Valid,signal,0,2,1088.2750375003088,0,2.0,3.2965855998918414,1,True,9,A,2023-09-06_10h40.43.410,exp3,2022.2.2,
,,,,,,,,,,,,,,,,,,,,,,,0,-1716,Valid,noise,0,2,1092.2273480002768,1,3.0,2.962943200021982,1,True,9,A,2023-09-06_10h40.43.410,exp3,2022.2.2,
,,,,,,,,,,,,,,,,,,,,,,,0,2274,Invalid,signal,0,2,1097.0114596001804,0,2.0,3.24608669988811,1,True,9,A,2023-09-06_10h40.43.410,exp3,2022.2.2,
,,,,,,,,,,,,,,,,,,,,,,,0,-1716,Valid,signal,0,2,1100.4200483001769,0,3.0,2.862926699919626,1,True,9,A,2023-09-06_10h40.43.410,exp3,2022.2.2,
,,,,,,,,,,,,,,,,,,,,,,,0,-557,Valid,signal,0,2,1104.259256800171,0,3.0,2.8126076001208276,1,True,9,A,2023-09-06_10h40.43.410,exp3,2022.2.2,
,,,,,,,,,,,,,,,,,,,,,,,0,-2274,Valid,noise,0,2,1108.3231548003387,1,3.0,4.0642512999475,1,True,9,A,2023-09-06_10h40.43.410,exp3,2022.2.2,
,,,,,,,,,,,,,,,,,,,,,,,0,-1716,Valid,noise,0,2,1113.3466211003251,1,3.0,3.1289772000163794,1,True,9,A,2023-09-06_10h40.43.410,exp3,2022.2.2,
,,,,,,,,,,,,,,,,,,,,,,,0,1158,Valid,noise,0,2,1117.3788316003047,1,3.0,2.6628876000177115,1,True,9,A,2023-09-06_10h40.43.410,exp3,2022.2.2,
,,,,,,,,,,,,,,,,,,,,,,,0,-1716,Valid,signal,0,2,1121.0910338002723,0,3.0,3.079598099924624,1,True,9,A,2023-09-06_10h40.43.410,exp3,2022.2.2,
,,,,,,,,,,,,,,,,,,,,,,,0,-1158,Valid,noise,0,2,1125.2036237001885,1,3.0,3.4966692000161856,1,True,9,A,2023-09-06_10h40.43.410,exp3,2022.2.2,
,,,,,,,,,,,,,,,,,,,,,,,0,-1158,Valid,noise,0,2,1130.387318600202,1,3.0,5.747232699999586,1,True,9,A,2023-09-06_10h40.43.410,exp3,2022.2.2,
,,,,,,,,,,,,,,,,,,,,,,,0,-557,Valid,signal,0,2,1137.027398600243,0,3.0,4.9142654000315815,1,True,9,A,2023-09-06_10h40.43.410,exp3,2022.2.2,
,,,,,,,,,,,,,,,,,,,,,,,0,557,Invalid,noise,0,2,1143.5717480003368,1,3.0,7.414023899938911,1,True,9,A,2023-09-06_10h40.43.410,exp3,2022.2.2,
,,,,,,,,,,,,,,,,,,,,,,,0,557,Valid,signal,0,2,1150.5955010002945,0,4.0,2.6630549000110477,1,True,9,A,2023-09-06_10h40.43.410,exp3,2022.2.2,
,,,,,,,,,,,,,,,,,,,,,,,0,-2274,Valid,signal,0,2,1154.547590300208,0,2.0,2.6958367999177426,1,True,9,A,2023-09-06_10h40.43.410,exp3,2022.2.2,
,,,,,,,,,,,,,,,,,,,,,,,0,-2274,Valid,noise,0,2,1158.0185859003104,1,3.0,2.5794084998779,1,True,9,A,2023-09-06_10h40.43.410,exp3,2022.2.2,
,,,,,,,,,,,,,,,,,,,,,,,0,1158,Valid,signal,0,2,1161.9868219001219,0,3.0,2.7962583999615163,1,True,9,A,2023-09-06_10h40.43.410,exp3,2022.2.2,
,,,,,,,,,,,,,,,,,,,,,,,0,-557,Valid,noise,0,2,1166.5159482001327,1,3.0,12.383209899999201,1,True,9,A,2023-09-06_10h40.43.410,exp3,2022.2.2,
,,,,,,,,,,,,,,,,,,,,,,,0,-2274,Invalid,noise,0,2,1180.786530900281,1,3.0,5.797245499910787,1,True,9,A,2023-09-06_10h40.43.410,exp3,2022.2.2,
,,,,,,,,,,,,,,,,,,,,,,,0,1716,Valid,noise,0,2,1186.1952426002827,1,3.0,4.647073799977079,1,True,9,A,2023-09-06_10h40.43.410,exp3,2022.2.2,
,,,,,,,,,,,,,,,,,,,,,,,0,-1158,Invalid,signal,0,2,1192.2909283002373,0,3.0,4.363178699975833,1,True,9,A,2023-09-06_10h40.43.410,exp3,2022.2.2,
,,,,,,,,,,,,,,,,,,,,,,,0,-557,Valid,noise,0,2,1196.5945644001476,1,3.0,2.530045700026676,1,True,9,A,2023-09-06_10h40.43.410,exp3,2022.2.2,
,,,,,,,,,,,,,,,,,,,,,,,0,-1158,Valid,signal,0,2,1200.9954445001204,0,2.0,3.5962241999804974,1,True,9,A,2023-09-06_10h40.43.410,exp3,2022.2.2,
,,,,,,,,,,,,,,,,,,,,,,,0,-1158,Valid,noise,0,2,1204.7868736002129,1,2.0,3.32988109998405,1,True,9,A,2023-09-06_10h40.43.410,exp3,2022.2.2,
,,,,,,,,,,,,,,,,,,,,,,,0,1716,Valid,noise,0,2,1209.2834418001585,1,3.0,2.9126335000619292,1,True,9,A,2023-09-06_10h40.43.410,exp3,2022.2.2,
,,,,,,,,,,,,,,,,,,,,,,,0,-557,Valid,signal,0,2,1213.29934220016,0,3.0,2.8797672998625785,1,True,9,A,2023-09-06_10h40.43.410,exp3,2022.2.2,
,,,,,,,,,,,,,,,,,,,,,,,0,-1158,Valid,signal,0,1,1224.3239727001637,1,1.0,10.932439599884674,1,True,9,A,2023-09-06_10h40.43.410,exp3,2022.2.2,
,,,,,,,,,,,,,,,,,,,,,,,0,1158,Valid,noise,0,2,1229.1869066001382,1,3.0,3.1297804000787437,1,True,9,A,2023-09-06_10h40.43.410,exp3,2022.2.2,
,,,,,,,,,,,,,,,,,,,,,,,0,-1716,Valid,noise,0,2,1234.179723000154,1,2.0,3.796673599863425,1,True,9,A,2023-09-06_10h40.43.410,exp3,2022.2.2,
,,,,,,,,,,,,,,,,,,,,,,,0,1716,Valid,noise,0,2,1237.8273261003196,1,3.0,3.2463563999626786,1,True,9,A,2023-09-06_10h40.43.410,exp3,2022.2.2,
,,,,,,,,,,,,,,,,,,,,,,,0,2274,Invalid,noise,0,2,1250.307142900303,1,2.0,12.033033899962902,2,True,9,A,2023-09-06_10h40.43.410,exp3,2022.2.2,
,,,,,,,,,,,,,,,,,,,,,,,0,-1716,Invalid,signal,0,2,1255.843309200136,0,3.0,3.5795543000567704,1,True,9,A,2023-09-06_10h40.43.410,exp3,2022.2.2,
,,,,,,,,,,,,,,,,,,,,,,,0,-2274,Valid,signal,0,2,1261.427012800239,0,2.0,6.365421400172636,1,True,9,A,2023-09-06_10h40.43.410,exp3,2022.2.2,
,,,,,,,,,,,,,,,,,,,,,,,0,557,Valid,signal,0,2,1267.6676424001344,0,3.0,3.445841700071469,1,True,9,A,2023-09-06_10h40.43.410,exp3,2022.2.2,
,,,,,,,,,,,,,,,,,,,,,,,0,1716,Valid,signal,0,2,1271.4912764001638,0,3.0,2.612525099888444,1,True,9,A,2023-09-06_10h40.43.410,exp3,2022.2.2,
,,,,,,,,,,,,,,,,,,,,,,,0,1158,Valid,signal,0,2,1275.93990080012,0,2.0,4.196687099989504,1,True,9,A,2023-09-06_10h40.43.410,exp3,2022.2.2,
,,,,,,,,,,,,,,,,,,,,,,,0,557,Valid,signal,0,1,1286.4191548002418,1,1.0,9.232171900104731,1,True,9,A,2023-09-06_10h40.43.410,exp3,2022.2.2,
,,,,,,,,,,,,,,,,,,,,,,,0,-1158,Valid,noise,0,2,1291.1870739001315,1,2.0,3.262962699867785,1,True,9,A,2023-09-06_10h40.43.410,exp3,2022.2.2,
,,,,,,,,,,,,,,,,,,,,,,,0,1158,Invalid,noise,0,2,1295.8599490001798,1,2.0,3.5298771001398563,1,True,9,A,2023-09-06_10h40.43.410,exp3,2022.2.2,
,,,,,,,,,,,,,,,,,,,,,,,0,-2274,Valid,noise,0,2,1300.2432656001765,1,2.0,3.5128802999388427,1,True,9,A,2023-09-06_10h40.43.410,exp3,2022.2.2,
,,,,,,,,,,,,,,,,,,,,,,,0,-1158,Valid,signal,0,2,1305.763133800123,0,2.0,4.797282499959692,1,True,9,A,2023-09-06_10h40.43.410,exp3,2022.2.2,
,,,,,,,,,,,,,,,,,,,,,,,0,1158,Valid,signal,0,2,1310.4991526002996,0,2.0,3.830268300138414,1,True,9,A,2023-09-06_10h40.43.410,exp3,2022.2.2,
,,,,,,,,,,,,,,,,,,,,,,,0,-557,Valid,noise,0,2,1314.9793666002806,1,3.0,3.6631705001927912,1,True,9,A,2023-09-06_10h40.43.410,exp3,2022.2.2,
,,,,,,,,,,,,,,,,,,,,,,,0,557,Valid,noise,0,2,1320.1311014001258,1,3.0,4.045798999955878,1,True,9,A,2023-09-06_10h40.43.410,exp3,2022.2.2,
,,,,,,,,,,,,,,,,,,,,,,,0,-1716,Valid,noise,0,2,1324.6265677001793,1,2.0,3.063102399930358,1,True,9,A,2023-09-06_10h40.43.410,exp3,2022.2.2,
,,,,,,,,,,,,,,,,,,,,,,,0,-2274,Valid,noise,0,2,1328.5471236002631,1,2.0,2.896103899925947,1,True,9,A,2023-09-06_10h40.43.410,exp3,2022.2.2,
,,,,,,,,,,,,,,,,,,,,,,,0,-557,Valid,noise,0,2,1334.1468459002208,1,3.0,5.947345199994743,1,True,9,A,2023-09-06_10h40.43.410,exp3,2022.2.2,
,,,,,,,,,,,,,,,,,,,,,,,0,2274,Valid,signal,0,2,1339.4110535001382,0,3.0,5.880428700009361,1,True,9,A,2023-09-06_10h40.43.410,exp3,2022.2.2,
,,,,,,,,,,,,,,,,,,,,,,,0,-1716,Invalid,signal,0,2,1346.3710185003001,0,4.0,3.346449099946767,1,True,9,A,2023-09-06_10h40.43.410,exp3,2022.2.2,
,,,,,,,,,,,,,,,,,,,,,,,0,1158,Invalid,signal,0,2,1351.6357431001961,0,2.0,3.8802356999367476,1,True,9,A,2023-09-06_10h40.43.410,exp3,2022.2.2,
,,,,,,,,,,,,,,,,,,,,,,,0,-557,Valid,signal,0,2,1356.0353781001177,0,2.0,3.54621269996278,1,True,9,A,2023-09-06_10h40.43.410,exp3,2022.2.2,
,,,,,,,,,,,,,,,,,,,,,,,0,-557,Valid,signal,0,1,1363.6508336002007,1,1.0,7.9487175000831485,1,True,9,A,2023-09-06_10h40.43.410,exp3,2022.2.2,
,,,,,,,,,,,,,,,,,,,,,,,0,557,Valid,signal,0,2,1369.2031158001628,0,2.0,3.1628570000175387,1,True,9,A,2023-09-06_10h40.43.410,exp3,2022.2.2,
,,,,,,,,,,,,,,,,,,,,,,,0,-557,Valid,noise,0,2,1373.1396882003173,1,3.0,3.312658599810675,1,True,9,A,2023-09-06_10h40.43.410,exp3,2022.2.2,
,,,,,,,,,,,,,,,,,,,,,,,0,-1716,Valid,noise,0,2,1379.411750400206,1,2.0,4.81347390008159,1,True,9,A,2023-09-06_10h40.43.410,exp3,2022.2.2,
,,,,,,,,,,,,,,,,,,,,,,,0,-1716,Invalid,noise,0,2,1383.4115655003116,1,3.0,2.6791167000774294,1,True,9,A,2023-09-06_10h40.43.410,exp3,2022.2.2,
,,,,,,,,,,,,,,,,,,,,,,,0,-1158,Invalid,noise,0,2,1387.7474956002552,1,2.0,5.163780499948189,1,True,9,A,2023-09-06_10h40.43.410,exp3,2022.2.2,
,,,,,,,,,,,,,,,,,,,,,,,0,1158,Valid,signal,0,2,1395.538422100246,0,3.0,7.464667400112376,1,True,9,A,2023-09-06_10h40.43.410,exp3,2022.2.2,
,,,,,,,,,,,,,,,,,,,,,,,0,557,Valid,signal,0,2,1402.1147518001962,0,2.0,3.4797213999554515,1,True,9,A,2023-09-06_10h40.43.410,exp3,2022.2.2,
,,,,,,,,,,,,,,,,,,,,,,,0,1716,Valid,signal,0,2,1410.2107066002209,0,2.0,8.081694500055164,2,True,9,A,2023-09-06_10h40.43.410,exp3,2022.2.2,
,,,,,,,,,,,,,,,,,,,,,,,0,1158,Valid,signal,0,2,1415.3476376002654,0,2.0,4.364017399959266,1,True,9,A,2023-09-06_10h40.43.410,exp3,2022.2.2,
,,,,,,,,,,,,,,,,,,,,,,,0,557,Invalid,signal,0,2,1421.1398484001402,0,2.0,3.6125478998292238,1,True,9,A,2023-09-06_10h40.43.410,exp3,2022.2.2,
,,,,,,,,,,,,,,,,,,,,,,,0,-1716,Valid,noise,0,2,1426.4195912003051,1,2.0,4.23057290003635,1,True,9,A,2023-09-06_10h40.43.410,exp3,2022.2.2,
,,,,,,,,,,,,,,,,,,,,,,,0,-557,Valid,noise,0,2,1430.5952544002794,1,3.0,5.730411999858916,1,True,9,A,2023-09-06_10h40.43.410,exp3,2022.2.2,
,,,,,,,,,,,,,,,,,,,,,,,0,-557,Valid,signal,0,2,1437.282590500312,0,4.0,3.5794637000653893,1,True,9,A,2023-09-06_10h40.43.410,exp3,2022.2.2,
,,,,,,,,,,,,,,,,,,,,,,,0,2274,Valid,noise,0,2,1442.083603600273,1,3.0,3.296316099818796,1,True,9,A,2023-09-06_10h40.43.410,exp3,2022.2.2,
,,,,,,,,,,,,,,,,,,,,,,,0,-1158,Valid,noise,0,1,1448.0993149001151,0,2.0,5.113664100179449,1,True,9,A,2023-09-06_10h40.43.410,exp3,2022.2.2,
,,,,,,,,,,,,,,,,,,,,,,,0,-1716,Valid,noise,0,2,1452.0831346001942,1,2.0,2.6962092998437583,1,True,9,A,2023-09-06_10h40.43.410,exp3,2022.2.2,
,,,,,,,,,,,,,,,,,,,,,,,0,1716,Valid,noise,0,2,1455.9392364001833,1,3.0,2.9129629000090063,1,True,9,A,2023-09-06_10h40.43.410,exp3,2022.2.2,
,,,,,,,,,,,,,,,,,,,,,,,0,-2274,Valid,noise,0,2,1460.2744129002094,1,2.0,3.363360400078818,1,True,9,A,2023-09-06_10h40.43.410,exp3,2022.2.2,
,,,,,,,,,,,,,,,,,,,,,,,0,1158,Invalid,signal,0,1,1464.7869185002055,1,4.0,3.6796502999495715,1,True,9,A,2023-09-06_10h40.43.410,exp3,2022.2.2,
,,,,,,,,,,,,,,,,,,,,,,,0,-2274,Valid,noise,0,2,1473.0752885001712,1,1.0,7.864804400131106,1,True,9,A,2023-09-06_10h40.43.410,exp3,2022.2.2,
,,,,,,,,,,,,,,,,,,,,,,,0,-2274,Valid,signal,0,1,1478.6586540001445,1,2.0,4.480294299777597,1,True,9,A,2023-09-06_10h40.43.410,exp3,2022.2.2,
,,,,,,,,,,,,,,,,,,,,,,,0,1158,Valid,noise,0,2,1483.3788895001635,1,2.0,3.0459511999506503,1,True,9,A,2023-09-06_10h40.43.410,exp3,2022.2.2,
,,,,,,,,,,,,,,,,,,,,,,,0,1158,Valid,noise,0,2,1487.7154095002916,1,2.0,3.9129016001243144,1,True,9,A,2023-09-06_10h40.43.410,exp3,2022.2.2,
,,,,,,,,,,,,,,,,,,,,,,,0,1158,Valid,signal,0,1,1491.9391217001248,1,4.0,2.5462088000494987,1,True,9,A,2023-09-06_10h40.43.410,exp3,2022.2.2,
,,,,,,,,,,,,,,,,,,,,,,,0,-1158,Valid,noise,0,2,1495.8916597003117,1,3.0,3.1128546001855284,1,True,9,A,2023-09-06_10h40.43.410,exp3,2022.2.2,
,,,,,,,,,,,,,,,,,,,,,,,0,557,Invalid,noise,0,2,1499.842629100196,1,3.0,3.079656699905172,1,True,9,A,2023-09-06_10h40.43.410,exp3,2022.2.2,
,,,,,,,,,,,,,,,,,,,,,,,0,-1716,Invalid,noise,0,1,1505.0105076001491,0,2.0,4.146852700039744,1,True,9,A,2023-09-06_10h40.43.410,exp3,2022.2.2,
,,,,,,,,,,,,,,,,,,,,,,,0,557,Valid,signal,0,2,1508.947673200164,0,4.0,3.0964200999587774,1,True,9,A,2023-09-06_10h40.43.410,exp3,2022.2.2,
,,,,,,,,,,,,,,,,,,,,,,,0,-1716,Valid,signal,0,2,1513.3472975001205,0,3.0,3.0301524000242352,1,True,9,A,2023-09-06_10h40.43.410,exp3,2022.2.2,
,,,,,,,,,,,,,,,,,,,,,,,0,1158,Valid,noise,0,2,1517.2026375001296,1,3.0,4.5797321000136435,1,True,9,A,2023-09-06_10h40.43.410,exp3,2022.2.2,
,,,,,,,,,,,,,,,,,,,,,,,0,2274,Valid,noise,0,1,1523.0116386001464,0,3.0,3.029479700140655,1,True,9,A,2023-09-06_10h40.43.410,exp3,2022.2.2,
,,,,,,,,,,,,,,,,,,,,,,,0,557,Valid,noise,0,2,1526.5948435002938,1,3.0,2.796379999956116,1,True,9,A,2023-09-06_10h40.43.410,exp3,2022.2.2,
,,,,,,,,,,,,,,,,,,,,,,,0,2274,Invalid,noise,0,2,1531.8268245002255,1,2.0,6.064526899950579,1,True,9,A,2023-09-06_10h40.43.410,exp3,2022.2.2,
,,,,,,,,,,,,,,,,,,,,,,,0,-557,Invalid,signal,0,1,1538.0183727003168,1,2.0,3.7126588001847267,1,True,9,A,2023-09-06_10h40.43.410,exp3,2022.2.2,
,,,,,,,,,,,,,,,,,,,,,,,0,-1158,Valid,signal,0,1,1542.2917612001766,1,4.0,2.663185399957001,1,True,9,A,2023-09-06_10h40.43.410,exp3,2022.2.2,
,,,,,,,,,,,,,,,,,,,,,,,0,1158,Valid,signal,0,1,1545.7309109002817,1,4.0,2.4122675000689924,1,True,9,A,2023-09-06_10h40.43.410,exp3,2022.2.2,
,,,,,,,,,,,,,,,,,,,,,,,0,2274,Valid,signal,0,1,1549.9064908002038,1,2.0,3.6970014998223633,1,True,9,A,2023-09-06_10h40.43.410,exp3,2022.2.2,
,,,,,,,,,,,,,,,,,,,,,,,0,-2274,Valid,signal,0,1,1554.8514955001883,1,1.0,3.5295460000634193,1,True,9,A,2023-09-06_10h40.43.410,exp3,2022.2.2,
,,,,,,,,,,,,,,,,,,,,,,,0,-1158,Valid,noise,0,2,1558.6107658003457,1,3.0,2.596622899873182,1,True,9,A,2023-09-06_10h40.43.410,exp3,2022.2.2,
,,,,,,,,,,,,,,,,,,,,,,,0,557,Valid,signal,0,2,1562.3225883003324,0,3.0,3.045885000145063,1,True,9,A,2023-09-06_10h40.43.410,exp3,2022.2.2,
,,,,,,,,,,,,,,,,,,,,,,,0,1716,Valid,signal,0,1,1566.48325940012,1,4.0,3.1963125001639128,1,True,9,A,2023-09-06_10h40.43.410,exp3,2022.2.2,
,,,,,,,,,,,,,,,,,,,,,,,0,-2274,Valid,signal,0,2,1571.0596649001818,0,2.0,3.462818499887362,1,True,9,A,2023-09-06_10h40.43.410,exp3,2022.2.2,
,,,,,,,,,,,,,,,,,,,,,,,0,2274,Valid,signal,0,1,1574.9629786002915,1,3.0,2.713018300011754,1,True,9,A,2023-09-06_10h40.43.410,exp3,2022.2.2,
,,,,,,,,,,,,,,,,,,,,,,,0,1158,Valid,noise,0,2,1578.8023839001544,1,2.0,3.230104200076312,1,True,9,A,2023-09-06_10h40.43.410,exp3,2022.2.2,
,,,,,,,,,,,,,,,,,,,,,,,0,557,Valid,noise,0,2,1582.7385402002838,1,4.0,3.0623671000357717,1,True,9,A,2023-09-06_10h40.43.410,exp3,2022.2.2,
,,,,,,,,,,,,,,,,,,,,,,,0,2274,Valid,noise,0,1,1588.5631418002304,0,1.0,4.4302660000976175,1,True,9,A,2023-09-06_10h40.43.410,exp3,2022.2.2,
,,,,,,,,,,,,,,,,,,,,,,,0,-1716,Valid,signal,0,2,1592.355567100225,0,3.0,3.2632135001476854,1,True,9,A,2023-09-06_10h40.43.410,exp3,2022.2.2,
,,,,,,,,,,,,,,,,,,,,,,,0,-557,Valid,noise,0,2,1596.8987539003137,1,4.0,2.8629855001345277,1,True,9,A,2023-09-06_10h40.43.410,exp3,2022.2.2,
,,,,,,,,,,,,,,,,,,,,,,,0,-2274,Valid,noise,0,2,1601.1075048001949,1,2.0,3.2795167001895607,1,True,9,A,2023-09-06_10h40.43.410,exp3,2022.2.2,
,,,,,,,,,,,,,,,,,,,,,,,0,-2274,Valid,signal,0,2,1608.307712000329,0,2.0,7.131732400041074,1,True,9,A,2023-09-06_10h40.43.410,exp3,2022.2.2,
,,,,,,,,,,,,,,,,,,,,,,,0,1716,Valid,noise,0,2,1612.899013900198,1,3.0,2.5124661999288946,1,True,9,A,2023-09-06_10h40.43.410,exp3,2022.2.2,
,,,,,,,,,,,,,,,,,,,,,,,0,557,Valid,noise,0,2,1616.3868544001598,1,4.0,2.996108700055629,1,True,9,A,2023-09-06_10h40.43.410,exp3,2022.2.2,
,,,,,,,,,,,,,,,,,,,,,,,0,2274,Valid,signal,0,2,1633.571260600118,0,2.0,16.301556200021878,2,True,9,A,2023-09-06_10h40.43.410,exp3,2022.2.2,
,,,,,,,,,,,,,,,,,,,,,,,0,557,Valid,noise,0,2,1637.6830706002656,1,4.0,2.7124499001074582,1,True,9,A,2023-09-06_10h40.43.410,exp3,2022.2.2,
,,,,,,,,,,,,,,,,,,,,,,,0,1716,Valid,signal,0,2,1641.9705427002627,0,2.0,3.2797061998862773,1,True,9,A,2023-09-06_10h40.43.410,exp3,2022.2.2,
,,,,,,,,,,,,,,,,,,,,,,,0,1716,Valid,signal,0,2,1645.7147489001509,0,2.0,4.480490899877623,1,True,9,A,2023-09-06_10h40.43.410,exp3,2022.2.2,
,,,,,,,,,,,,,,,,,,,,,,,0,-1158,Valid,signal,0,1,1651.8267386001535,1,2.0,3.8130608999636024,1,True,9,A,2023-09-06_10h40.43.410,exp3,2022.2.2,
,,,,,,,,,,,,,,,,,,,,,,,0,-1716,Valid,noise,0,2,1656.306612800341,1,2.0,4.48011999996379,1,True,9,A,2023-09-06_10h40.43.410,exp3,2022.2.2,
,,,,,,,,,,,,,,,,,,,,,,,0,-1716,Valid,signal,0,1,1662.0504652003292,1,2.0,3.630400100024417,1,True,9,A,2023-09-06_10h40.43.410,exp3,2022.2.2,
,,,,,,,,,,,,,,,,,,,,,,,0,-1158,Valid,signal,0,1,1666.2595340001862,1,3.0,3.5126680000685155,1,True,9,A,2023-09-06_10h40.43.410,exp3,2022.2.2,
,,,,,,,,,,,,,,,,,,,,,,,0,-557,Valid,noise,0,2,1670.7396806001198,1,4.0,3.0135606001131237,1,True,9,A,2023-09-06_10h40.43.410,exp3,2022.2.2,
,,,,,,,,,,,,,,,,,,,,,,,0,2274,Valid,noise,0,2,1680.2587434002198,1,3.0,8.83096389984712,2,True,9,A,2023-09-06_10h40.43.410,exp3,2022.2.2,
,,,,,,,,,,,,,,,,,,,,,,,0,1716,Invalid,signal,0,1,1685.1226240003016,1,2.0,3.4468247999902815,1,True,9,A,2023-09-06_10h40.43.410,exp3,2022.2.2,
,,,,,,,,,,,,,,,,,,,,,,,0,-557,Invalid,noise,0,2,1689.4749371001963,1,3.0,3.2298434998374432,1,True,9,A,2023-09-06_10h40.43.410,exp3,2022.2.2,
,,,,,,,,,,,,,,,,,,,,,,,0,-1716,Valid,signal,0,2,1694.8667969002854,0,2.0,4.81349779991433,1,True,9,A,2023-09-06_10h40.43.410,exp3,2022.2.2,
,,,,,,,,,,,,,,,,,,,,,,,0,-557,Valid,signal,0,1,1703.234623900149,1,2.0,7.181279300013557,1,True,9,A,2023-09-06_10h40.43.410,exp3,2022.2.2,
,,,,,,,,,,,,,,,,,,,,,,,0,-557,Invalid,noise,0,2,1709.2513429003302,1,4.0,9.48183219996281,2,True,9,A,2023-09-06_10h40.43.410,exp3,2022.2.2,
,,,,,,,,,,,,,,,,,,,,,,,0,557,Valid,noise,0,2,1718.0183032001369,1,3.0,3.529598099878058,1,True,9,A,2023-09-06_10h40.43.410,exp3,2022.2.2,
,,,,,,,,,,,,,,,,,,,,,,,0,2274,Valid,noise,0,2,1722.4662976001855,1,3.0,3.01320519996807,1,True,9,A,2023-09-06_10h40.43.410,exp3,2022.2.2,
,,,,,,,,,,,,,,,,,,,,,,,0,557,Valid,noise,0,2,1726.1150884001981,1,4.0,2.945870899828151,1,True,9,A,2023-09-06_10h40.43.410,exp3,2022.2.2,
,,,,,,,,,,,,,,,,,,,,,,,0,-1716,Valid,signal,0,2,1730.7069327002391,0,2.0,3.2795878001488745,1,True,9,A,2023-09-06_10h40.43.410,exp3,2022.2.2,
,,,,,,,,,,,,,,,,,,,,,,,0,-2274,Valid,noise,0,2,1734.6264915002976,1,2.0,3.8804576999973506,1,True,9,A,2023-09-06_10h40.43.410,exp3,2022.2.2,
,,,,,,,,,,,,,,,,,,,,,,,0,1158,Valid,signal,0,2,1739.5703460001387,0,3.0,3.9463444999419153,1,True,9,A,2023-09-06_10h40.43.410,exp3,2022.2.2,
,,,,,,,,,,,,,,,,,,,,,,,0,-1716,Valid,noise,0,2,1744.5471322003286,1,3.0,3.27967459987849,1,True,9,A,2023-09-06_10h40.43.410,exp3,2022.2.2,
,,,,,,,,,,,,,,,,,,,,,,,0,-1158,Valid,signal,0,1,1748.9787487001158,1,2.0,3.129987800028175,1,True,9,A,2023-09-06_10h40.43.410,exp3,2022.2.2,
,,,,,,,,,,,,,,,,,,,,,,,0,557,Valid,noise,0,2,1752.642675800249,1,3.0,2.6960520001593977,1,True,9,A,2023-09-06_10h40.43.410,exp3,2022.2.2,
,,,,,,,,,,,,,,,,,,,,,,,0,2274,Valid,noise,0,2,1759.3622887001839,1,3.0,6.164359299931675,2,True,9,A,2023-09-06_10h40.43.410,exp3,2022.2.2,
,,,,,,,,,,,,,,,,,,,,,,,0,557,Valid,signal,0,2,1764.1156393003184,0,3.0,3.3797930001746863,1,True,9,A,2023-09-06_10h40.43.410,exp3,2022.2.2,
,,,,,,,,,,,,,,,,,,,,,,,0,1716,Invalid,noise,0,2,1768.627069100272,1,2.0,3.3622662001289427,1,True,9,A,2023-09-06_10h40.43.410,exp3,2022.2.2,
,,,,,,,,,,,,,,,,,,,,,,,0,2274,Valid,noise,0,2,1772.7550493001472,1,2.0,2.8464299999177456,1,True,9,A,2023-09-06_10h40.43.410,exp3,2022.2.2,
,,,,,,,,,,,,,,,,,,,,,,,0,-557,Valid,noise,0,2,1776.1947594003286,1,3.0,5.747476399876177,1,True,9,A,2023-09-06_10h40.43.410,exp3,2022.2.2,
,,,,,,,,,,,,,,,,,,,,,,,0,1716,Valid,signal,0,2,1783.3796566003002,0,3.0,3.1797204001341015,1,True,9,A,2023-09-06_10h40.43.410,exp3,2022.2.2,
,,,,,,,,,,,,,,,,,,,,,,,0,-2274,Valid,signal,0,2,1787.4583794001956,0,2.0,2.996420399984345,1,True,9,A,2023-09-06_10h40.43.410,exp3,2022.2.2,
,,,,,,,,,,,,,,,,,,,,,,,0,-2274,Valid,signal,0,2,1791.426901400322,0,2.0,3.847232300089672,1,True,9,A,2023-09-06_10h40.43.410,exp3,2022.2.2,
,,,,,,,,,,,,,,,,,,,,,,,0,-1158,Invalid,signal,0,2,1796.9468037001789,0,3.0,11.398940799990669,1,True,9,A,2023-09-06_10h40.43.410,exp3,2022.2.2,
,,,,,,,,,,,,,,,,,,,,,,,0,-2274,Valid,signal,0,2,1808.594403900206,0,2.0,2.8132283999584615,1,True,9,A,2023-09-06_10h40.43.410,exp3,2022.2.2,
,,,,,,,,,,,,,,,,,,,,,,,0,1716,Valid,signal,0,2,1812.882548800204,0,3.0,4.412648299941793,1,True,9,A,2023-09-06_10h40.43.410,exp3,2022.2.2,
,,,,,,,,,,,,,,,,,,,,,,,0,1158,Valid,signal,0,2,1817.7952711002436,0,3.0,2.6966834999620914,1,True,9,A,2023-09-06_10h40.43.410,exp3,2022.2.2,
,,,,,,,,,,,,,,,,,,,,,,,0,-1158,Valid,signal,0,1,1821.7784172003157,1,2.0,3.04589070007205,1,True,9,A,2023-09-06_10h40.43.410,exp3,2022.2.2,
,,,,,,,,,,,,,,,,,,,,,,,0,-2274,Invalid,signal,0,2,1826.1144997002557,0,1.0,3.6137708998285234,1,True,9,A,2023-09-06_10h40.43.410,exp3,2022.2.2,
,,,,,,,,,,,,,,,,,,,,,,,0,2274,Invalid,signal,0,2,1830.6106795002706,0,1.0,3.4965815998148173,1,True,9,A,2023-09-06_10h40.43.410,exp3,2022.2.2,
,,,,,,,,,,,,,,,,,,,,,,,0,557,Valid,noise,0,2,1834.4190882002003,1,4.0,2.462163900025189,1,True,9,A,2023-09-06_10h40.43.410,exp3,2022.2.2,
,,,,,,,,,,,,,,,,,,,,,,,0,1716,Valid,noise,0,2,1839.82637430029,1,4.0,4.730286499951035,2,True,9,A,2023-09-06_10h40.43.410,exp3,2022.2.2,
,,,,,,,,,,,,,,,,,,,,,,,1,-1158,Valid,noise,0,2,2013.0593819001224,1,4.0,3.824628899805248,1,True,9,A,2023-09-06_10h40.43.410,exp3,2022.2.2,
,,,,,,,,,,,,,,,,,,,,,,,2,-2274,Valid,signal,0,2,2018.530344400322,0,2.0,4.5302392998710275,1,True,9,A,2023-09-06_10h40.43.410,exp3,2022.2.2,
,,,,,,,,,,,,,,,,,,,,,,,3,1716,Valid,signal,0,2,2023.491161600221,0,3.0,3.21328889997676,1,True,9,A,2023-09-06_10h40.43.410,exp3,2022.2.2,
,,,,,,,,,,,,,,,,,,,,,,,4,-2274,Valid,signal,0,1,2027.9388907002285,1,1.0,3.5638482999056578,1,True,9,A,2023-09-06_10h40.43.410,exp3,2022.2.2,
,,,,,,,,,,,,,,,,,,,,,,,5,-1716,Valid,noise,0,2,2032.5308252002578,1,2.0,4.813160500023514,1,True,9,A,2023-09-06_10h40.43.410,exp3,2022.2.2,
,,,,,,,,,,,,,,,,,,,,,,,6,-557,Valid,signal,0,2,2039.362765500322,0,2.0,4.546688999980688,1,True,9,A,2023-09-06_10h40.43.410,exp3,2022.2.2,
,,,,,,,,,,,,,,,,,,,,,,,7,557,Valid,signal,0,2,2043.2983751001302,0,4.0,2.829591300105676,1,True,9,A,2023-09-06_10h40.43.410,exp3,2022.2.2,
,,,,,,,,,,,,,,,,,,,,,,,8,-557,Valid,signal,0,2,2047.0267672003247,0,4.0,3.5466908998787403,1,True,9,A,2023-09-06_10h40.43.410,exp3,2022.2.2,
,,,,,,,,,,,,,,,,,,,,,,,9,-2274,Valid,signal,0,2,2052.035033200169,0,2.0,9.631761100143194,1,True,9,A,2023-09-06_10h40.43.410,exp3,2022.2.2,
,,,,,,,,,,,,,,,,,,,,,,,10,557,Valid,noise,0,2,2062.227482000133,1,4.0,4.363855500007048,1,True,9,A,2023-09-06_10h40.43.410,exp3,2022.2.2,
,,,,,,,,,,,,,,,,,,,,,,,11,1716,Valid,signal,0,2,2068.5150284003466,0,4.0,5.4972945000045,1,True,9,A,2023-09-06_10h40.43.410,exp3,2022.2.2,
,,,,,,,,,,,,,,,,,,,,,,,12,1158,Valid,signal,0,2,2075.3300779003184,0,4.0,4.313385199988261,1,True,9,A,2023-09-06_10h40.43.410,exp3,2022.2.2,
,,,,,,,,,,,,,,,,,,,,,,,13,2274,Valid,signal,0,2,2084.451081600273,0,3.0,9.14896750007756,2,True,9,A,2023-09-06_10h40.43.410,exp3,2022.2.2,
,,,,,,,,,,,,,,,,,,,,,,,14,1716,Valid,noise,0,2,2089.906175300246,1,3.0,3.3790295999497175,1,True,9,A,2023-09-06_10h40.43.410,exp3,2022.2.2,
,,,,,,,,,,,,,,,,,,,,,,,15,1716,Valid,noise,0,2,2094.050980000291,1,4.0,3.663388399872929,1,True,9,A,2023-09-06_10h40.43.410,exp3,2022.2.2,
,,,,,,,,,,,,,,,,,,,,,,,16,-557,Valid,noise,0,2,2098.546357100131,1,4.0,2.763202799949795,1,True,9,A,2023-09-06_10h40.43.410,exp3,2022.2.2,
,,,,,,,,,,,,,,,,,,,,,,,17,-1158,Valid,signal,0,1,2102.8675050002057,1,1.0,4.046006799908355,1,True,9,A,2023-09-06_10h40.43.410,exp3,2022.2.2,
,,,,,,,,,,,,,,,,,,,,,,,18,-1716,Valid,noise,0,2,2107.4752253002953,1,3.0,2.6634961999952793,1,True,9,A,2023-09-06_10h40.43.410,exp3,2022.2.2,
,,,,,,,,,,,,,,,,,,,,,,,19,2274,Valid,noise,0,2,2113.315033700317,1,3.0,5.263806000119075,2,True,9,A,2023-09-06_10h40.43.410,exp3,2022.2.2,
,,,,,,,,,,,,,,,,,,,,,,,20,1716,Valid,noise,0,2,2117.3631343003362,1,3.0,2.8120860001072288,1,True,9,A,2023-09-06_10h40.43.410,exp3,2022.2.2,
,,,,,,,,,,,,,,,,,,,,,,,21,-1716,Valid,signal,0,2,2122.066695100162,0,2.0,3.196579699870199,1,True,9,A,2023-09-06_10h40.43.410,exp3,2022.2.2,
,,,,,,,,,,,,,,,,,,,,,,,22,-1716,Valid,signal,0,2,2125.394392900169,0,3.0,2.863027499988675,1,True,9,A,2023-09-06_10h40.43.410,exp3,2022.2.2,
,,,,,,,,,,,,,,,,,,,,,,,23,-2274,Valid,noise,0,2,2132.306185300229,1,2.0,5.980702999979258,1,True,9,A,2023-09-06_10h40.43.410,exp3,2022.2.2,
,,,,,,,,,,,,,,,,,,,,,,,24,1716,Valid,noise,0,2,2136.530244000256,1,3.0,3.163072400027886,1,True,9,A,2023-09-06_10h40.43.410,exp3,2022.2.2,
,,,,,,,,,,,,,,,,,,,,,,,25,-557,Valid,noise,0,2,2140.451246000128,1,4.0,3.0963051000144333,1,True,9,A,2023-09-06_10h40.43.410,exp3,2022.2.2,
,,,,,,,,,,,,,,,,,,,,,,,26,2274,Invalid,noise,0,1,2146.131306900177,0,1.0,6.547672099899501,1,True,9,A,2023-09-06_10h40.43.410,exp3,2022.2.2,
,,,,,,,,,,,,,,,,,,,,,,,27,-557,Valid,noise,0,2,2152.3709557002876,1,3.0,6.7647367001045495,1,True,9,A,2023-09-06_10h40.43.410,exp3,2022.2.2,
,,,,,,,,,,,,,,,,,,,,,,,28,-557,Invalid,signal,0,2,2160.2430995001923,0,4.0,3.3795654999557883,1,True,9,A,2023-09-06_10h40.43.410,exp3,2022.2.2,
,,,,,,,,,,,,,,,,,,,,,,,29,2274,Valid,signal,0,2,2168.5942922001705,0,3.0,10.115745899965987,2,True,9,A,2023-09-06_10h40.43.410,exp3,2022.2.2,
,,,,,,,,,,,,,,,,,,,,,,,30,557,Valid,signal,0,2,2175.411264200229,0,4.0,2.6629542999435216,1,True,9,A,2023-09-06_10h40.43.410,exp3,2022.2.2,
,,,,,,,,,,,,,,,,,,,,,,,31,1158,Valid,noise,0,2,2179.4262142002117,1,4.0,2.84616840002127,1,True,9,A,2023-09-06_10h40.43.410,exp3,2022.2.2,
,,,,,,,,,,,,,,,,,,,,,,,32,-2274,Valid,noise,0,2,2183.5381708003115,1,2.0,3.5631411999929696,1,True,9,A,2023-09-06_10h40.43.410,exp3,2022.2.2,
,,,,,,,,,,,,,,,,,,,,,,,33,557,Valid,signal,0,2,2187.8104240002576,0,3.0,3.7965726000256836,1,True,9,A,2023-09-06_10h40.43.410,exp3,2022.2.2,
,,,,,,,,,,,,,,,,,,,,,,,34,-1716,Valid,signal,0,2,2193.107112500118,0,3.0,3.313196999952197,1,True,9,A,2023-09-06_10h40.43.410,exp3,2022.2.2,
,,,,,,,,,,,,,,,,,,,,,,,35,-1716,Valid,signal,0,2,2197.106760900235,0,2.0,2.7796042000409216,1,True,9,A,2023-09-06_10h40.43.410,exp3,2022.2.2,
,,,,,,,,,,,,,,,,,,,,,,,36,-557,Invalid,noise,0,2,2200.5300992003176,1,4.0,3.1132372999563813,1,True,9,A,2023-09-06_10h40.43.410,exp3,2022.2.2,
,,,,,,,,,,,,,,,,,,,,,,,37,-1158,Valid,noise,0,2,2204.4979876002762,1,3.0,2.2956755000632256,1,True,9,A,2023-09-06_10h40.43.410,exp3,2022.2.2,
,,,,,,,,,,,,,,,,,,,,,,,38,2274,Valid,noise,0,2,2208.210510900244,1,4.0,3.963719499995932,1,True,9,A,2023-09-06_10h40.43.410,exp3,2022.2.2,
,,,,,,,,,,,,,,,,,,,,,,,39,-1158,Valid,noise,0,2,2213.0906061001588,1,4.0,3.0124616001266986,1,True,9,A,2023-09-06_10h40.43.410,exp3,2022.2.2,
,,,,,,,,,,,,,,,,,,,,,,,40,-1716,Valid,noise,0,2,2217.058991700178,1,3.0,2.8122689998708665,1,True,9,A,2023-09-06_10h40.43.410,exp3,2022.2.2,
,,,,,,,,,,,,,,,,,,,,,,,41,1158,Invalid,noise,0,2,2221.0588430003263,1,3.0,2.9798222000245005,1,True,9,A,2023-09-06_10h40.43.410,exp3,2022.2.2,
,,,,,,,,,,,,,,,,,,,,,,,42,-2274,Valid,noise,0,2,2225.1229949002154,1,3.0,3.0796739999204874,1,True,9,A,2023-09-06_10h40.43.410,exp3,2022.2.2,
,,,,,,,,,,,,,,,,,,,,,,,43,-1716,Valid,noise,0,2,2229.042143400293,1,4.0,3.4133218999486417,1,True,9,A,2023-09-06_10h40.43.410,exp3,2022.2.2,
,,,,,,,,,,,,,,,,,,,,,,,44,-1716,Invalid,noise,0,2,2233.618825700134,1,3.0,3.0129551000427455,1,True,9,A,2023-09-06_10h40.43.410,exp3,2022.2.2,
,,,,,,,,,,,,,,,,,,,,,,,45,1716,Valid,noise,0,2,2237.123403200181,1,4.0,3.8301321000326425,1,True,9,A,2023-09-06_10h40.43.410,exp3,2022.2.2,
,,,,,,,,,,,,,,,,,,,,,,,46,-1158,Invalid,noise,0,2,2242.2586792001966,1,4.0,3.6461694000754505,1,True,9,A,2023-09-06_10h40.43.410,exp3,2022.2.2,
,,,,,,,,,,,,,,,,,,,,,,,47,-2274,Valid,noise,0,2,2247.2034070002846,1,2.0,3.73019010014832,1,True,9,A,2023-09-06_10h40.43.410,exp3,2022.2.2,
,,,,,,,,,,,,,,,,,,,,,,,48,2274,Valid,noise,0,2,2251.3785688001662,1,4.0,2.945900799939409,1,True,9,A,2023-09-06_10h40.43.410,exp3,2022.2.2,
,,,,,,,,,,,,,,,,,,,,,,,49,1158,Valid,noise,0,2,2255.3946753002238,1,4.0,2.929612600011751,1,True,9,A,2023-09-06_10h40.43.410,exp3,2022.2.2,
,,,,,,,,,,,,,,,,,,,,,,,50,-1716,Valid,noise,0,2,2259.7782227001153,1,2.0,5.1641607999335974,1,True,9,A,2023-09-06_10h40.43.410,exp3,2022.2.2,
,,,,,,,,,,,,,,,,,,,,,,,51,1716,Valid,signal,0,2,2267.282265400281,0,4.0,4.779675300000235,2,True,9,A,2023-09-06_10h40.43.410,exp3,2022.2.2,
,,,,,,,,,,,,,,,,,,,,,,,52,-2274,Valid,noise,0,2,2271.827173200203,1,3.0,3.362934800097719,1,True,9,A,2023-09-06_10h40.43.410,exp3,2022.2.2,
,,,,,,,,,,,,,,,,,,,,,,,53,2274,Valid,signal,0,2,2276.291166000301,0,4.0,4.463697300059721,1,True,9,A,2023-09-06_10h40.43.410,exp3,2022.2.2,
,,,,,,,,,,,,,,,,,,,,,,,54,-557,Valid,signal,0,2,2282.4823349001817,0,3.0,4.330230199964717,1,True,9,A,2023-09-06_10h40.43.410,exp3,2022.2.2,
,,,,,,,,,,,,,,,,,,,,,,,55,-1158,Valid,signal,0,1,2286.7234238001984,1,1.0,2.796028400072828,1,True,9,A,2023-09-06_10h40.43.410,exp3,2022.2.2,
,,,,,,,,,,,,,,,,,,,,,,,56,1158,Invalid,signal,0,1,2290.3220128002577,1,4.0,2.7299045000690967,1,True,9,A,2023-09-06_10h40.43.410,exp3,2022.2.2,
,,,,,,,,,,,,,,,,,,,,,,,57,2274,Valid,signal,0,1,2294.275338200154,1,2.0,3.2131427000276744,1,True,9,A,2023-09-06_10h40.43.410,exp3,2022.2.2,
,,,,,,,,,,,,,,,,,,,,,,,58,-1716,Valid,signal,0,2,2298.5623892003205,0,2.0,3.6457618998829275,1,True,9,A,2023-09-06_10h40.43.410,exp3,2022.2.2,
,,,,,,,,,,,,,,,,,,,,,,,59,557,Valid,signal,0,2,2303.0742810002994,0,4.0,5.180659600067884,1,True,9,A,2023-09-06_10h40.43.410,exp3,2022.2.2,
,,,,,,,,,,,,,,,,,,,,,,,60,2274,Valid,signal,0,1,2309.1866197001655,1,2.0,2.84698689985089,1,True,9,A,2023-09-06_10h40.43.410,exp3,2022.2.2,
,,,,,,,,,,,,,,,,,,,,,,,61,2274,Valid,signal,0,2,2317.9545359001495,0,2.0,8.330795099958777,2,True,9,A,2023-09-06_10h40.43.410,exp3,2022.2.2,
,,,,,,,,,,,,,,,,,,,,,,,62,557,Invalid,noise,0,2,2322.6749588001985,1,4.0,3.897136599989608,1,True,9,A,2023-09-06_10h40.43.410,exp3,2022.2.2,
,,,,,,,,,,,,,,,,,,,,,,,63,-557,Valid,signal,0,1,2328.9622197002172,1,2.0,4.413458500057459,1,True,9,A,2023-09-06_10h40.43.410,exp3,2022.2.2,
,,,,,,,,,,,,,,,,,,,,,,,64,-2274,Invalid,signal,0,2,2332.850675500231,0,2.0,3.0456252999138087,1,True,9,A,2023-09-06_10h40.43.410,exp3,2022.2.2,
,,,,,,,,,,,,,,,,,,,,,,,65,-1158,Valid,signal,0,1,2336.610684300307,1,2.0,3.2800708999857306,1,True,9,A,2023-09-06_10h40.43.410,exp3,2022.2.2,
,,,,,,,,,,,,,,,,,,,,,,,66,-2274,Invalid,signal,0,1,2341.1386721001472,1,1.0,4.513148199999705,1,True,9,A,2023-09-06_10h40.43.410,exp3,2022.2.2,
,,,,,,,,,,,,,,,,,,,,,,,67,2274,Valid,signal,0,1,2346.6743034003302,1,1.0,2.6633518000598997,1,True,9,A,2023-09-06_10h40.43.410,exp3,2022.2.2,
,,,,,,,,,,,,,,,,,,,,,,,68,-2274,Valid,noise,0,1,2351.4432337002363,0,1.0,3.896286299917847,1,True,9,A,2023-09-06_10h40.43.410,exp3,2022.2.2,
,,,,,,,,,,,,,,,,,,,,,,,69,2274,Valid,noise,0,1,2355.2823299001902,0,2.0,4.497090100077912,1,True,9,A,2023-09-06_10h40.43.410,exp3,2022.2.2,
,,,,,,,,,,,,,,,,,,,,,,,70,-2274,Valid,noise,0,2,2360.6913231001236,1,1.0,2.6457994000520557,1,True,9,A,2023-09-06_10h40.43.410,exp3,2022.2.2,
,,,,,,,,,,,,,,,,,,,,,,,71,-1158,Invalid,signal,0,2,2379.9379419002216,0,2.0,19.619933899957687,1,True,9,A,2023-09-06_10h40.43.410,exp3,2022.2.2,
,,,,,,,,,,,,,,,,,,,,,,,72,1158,Invalid,noise,0,2,2384.994556700345,1,3.0,2.9625085000880063,1,True,9,A,2023-09-06_10h40.43.410,exp3,2022.2.2,
,,,,,,,,,,,,,,,,,,,,,,,73,-557,Valid,noise,0,2,2388.62628170033,1,4.0,3.179499400081113,1,True,9,A,2023-09-06_10h40.43.410,exp3,2022.2.2,
,,,,,,,,,,,,,,,,,,,,,,,74,-1158,Valid,signal,0,1,2393.4432115003,1,2.0,6.031041000038385,1,True,9,A,2023-09-06_10h40.43.410,exp3,2022.2.2,
,,,,,,,,,,,,,,,,,,,,,,,75,-1158,Valid,signal,0,1,2401.3310087001882,1,1.0,3.8465573999565095,1,True,9,A,2023-09-06_10h40.43.410,exp3,2022.2.2,
,,,,,,,,,,,,,,,,,,,,,,,76,-1158,Valid,noise,0,2,2408.003055400215,1,2.0,5.964153000153601,1,True,9,A,2023-09-06_10h40.43.410,exp3,2022.2.2,
,,,,,,,,,,,,,,,,,,,,,,,77,1158,Valid,signal,0,1,2411.8422823001165,1,1.0,2.896359499776736,1,True,9,A,2023-09-06_10h40.43.410,exp3,2022.2.2,
,,,,,,,,,,,,,,,,,,,,,,,78,-1716,Invalid,signal,0,2,2417.1543630003,0,1.0,5.047164499992505,1,True,9,A,2023-09-06_10h40.43.410,exp3,2022.2.2,
,,,,,,,,,,,,,,,,,,,,,,,79,-2274,Invalid,noise,0,1,2422.130648800172,0,1.0,2.9297693001572043,1,True,9,A,2023-09-06_10h40.43.410,exp3,2022.2.2,
,,,,,,,,,,,,,,,,,,,,,,,80,-557,Valid,noise,0,2,2425.90661310032,1,3.0,5.163609300041571,1,True,9,A,2023-09-06_10h40.43.410,exp3,2022.2.2,
,,,,,,,,,,,,,,,,,,,,,,,81,-557,Invalid,noise,0,2,2432.099090900272,1,3.0,2.7959662000648677,1,True,9,A,2023-09-06_10h40.43.410,exp3,2022.2.2,
,,,,,,,,,,,,,,,,,,,,,,,82,1716,Valid,signal,0,2,2435.938749300316,0,4.0,3.4300969999749213,1,True,9,A,2023-09-06_10h40.43.410,exp3,2022.2.2,
,,,,,,,,,,,,,,,,,,,,,,,83,1158,Valid,signal,0,2,2440.498612600146,0,2.0,2.8458440999966115,1,True,9,A,2023-09-06_10h40.43.410,exp3,2022.2.2,
,,,,,,,,,,,,,,,,,,,,,,,84,557,Valid,noise,0,2,2443.906165700173,1,3.0,2.662559299962595,1,True,9,A,2023-09-06_10h40.43.410,exp3,2022.2.2,
,,,,,,,,,,,,,,,,,,,,,,,85,-2274,Valid,signal,0,2,2448.2421388002113,0,2.0,3.6798521000891924,1,True,9,A,2023-09-06_10h40.43.410,exp3,2022.2.2,
,,,,,,,,,,,,,,,,,,,,,,,86,1716,Invalid,signal,0,2,2453.0738966001663,0,1.0,3.563274299958721,1,True,9,A,2023-09-06_10h40.43.410,exp3,2022.2.2,
,,,,,,,,,,,,,,,,,,,,,,,87,-557,Valid,signal,0,2,2457.0430143002886,0,3.0,3.196324999909848,1,True,9,A,2023-09-06_10h40.43.410,exp3,2022.2.2,
,,,,,,,,,,,,,,,,,,,,,,,88,-1158,Valid,signal,0,1,2461.4268348002806,1,3.0,3.163316700141877,1,True,9,A,2023-09-06_10h40.43.410,exp3,2022.2.2,
,,,,,,,,,,,,,,,,,,,,,,,89,-1716,Valid,signal,0,1,2465.602437400259,1,2.0,3.1792456000111997,1,True,9,A,2023-09-06_10h40.43.410,exp3,2022.2.2,
,,,,,,,,,,,,,,,,,,,,,,,90,-557,Valid,noise,0,2,2469.826754900161,1,3.0,3.4801303998101503,1,True,9,A,2023-09-06_10h40.43.410,exp3,2022.2.2,
,,,,,,,,,,,,,,,,,,,,,,,91,1716,Invalid,signal,0,2,2474.627176400274,0,1.0,4.296729899942875,1,True,9,A,2023-09-06_10h40.43.410,exp3,2022.2.2,
,,,,,,,,,,,,,,,,,,,,,,,92,557,Valid,signal,0,2,2479.538999900222,0,3.0,3.2962623999919742,1,True,9,A,2023-09-06_10h40.43.410,exp3,2022.2.2,
,,,,,,,,,,,,,,,,,,,,,,,93,-1716,Valid,signal,0,1,2484.321949200239,1,1.0,4.530351500026882,1,True,9,A,2023-09-06_10h40.43.410,exp3,2022.2.2,
,,,,,,,,,,,,,,,,,,,,,,,94,557,Valid,noise,0,2,2489.0751955001615,1,4.0,2.4788480000570416,1,True,9,A,2023-09-06_10h40.43.410,exp3,2022.2.2,
,,,,,,,,,,,,,,,,,,,,,,,95,-2274,Valid,signal,0,2,2493.89052240015,0,1.0,6.247716399841011,1,True,9,A,2023-09-06_10h40.43.410,exp3,2022.2.2,
,,,,,,,,,,,,,,,,,,,,,,,96,1158,Valid,signal,0,2,2499.71526730014,0,4.0,4.196837099967524,1,True,9,A,2023-09-06_10h40.43.410,exp3,2022.2.2,
,,,,,,,,,,,,,,,,,,,,,,,97,1716,Valid,noise,0,2,2507.0748856002465,1,3.0,5.2305076001212,2,True,9,A,2023-09-06_10h40.43.410,exp3,2022.2.2,
,,,,,,,,,,,,,,,,,,,,,,,98,-1158,Valid,signal,0,1,2511.122307400219,1,3.0,2.695922499988228,1,True,9,A,2023-09-06_10h40.43.410,exp3,2022.2.2,
,,,,,,,,,,,,,,,,,,,,,,,99,557,Valid,noise,0,2,2517.1232285001315,1,4.0,5.097067600116134,2,True,9,A,2023-09-06_10h40.43.410,exp3,2022.2.2,
,,,,,,,,,,,,,,,,,,,,,,,100,-1716,Invalid,noise,0,2,2521.97048510029,1,3.0,3.88051709998399,1,True,9,A,2023-09-06_10h40.43.410,exp3,2022.2.2,
,,,,,,,,,,,,,,,,,,,,,,,101,-1716,Invalid,signal,0,2,2528.323052900145,0,2.0,5.513132400112227,1,True,9,A,2023-09-06_10h40.43.410,exp3,2022.2.2,
,,,,,,,,,,,,,,,,,,,,,,,102,1716,Valid,signal,0,1,2532.4028736001346,1,3.0,2.64680129988119,1,True,9,A,2023-09-06_10h40.43.410,exp3,2022.2.2,
,,,,,,,,,,,,,,,,,,,,,,,103,-557,Valid,signal,0,1,2536.8828574002255,1,1.0,3.5292307999916375,1,True,9,A,2023-09-06_10h40.43.410,exp3,2022.2.2,
,,,,,,,,,,,,,,,,,,,,,,,104,2274,Invalid,signal,0,2,2541.282198600238,0,2.0,3.3465645001269877,1,True,9,A,2023-09-06_10h40.43.410,exp3,2022.2.2,
,,,,,,,,,,,,,,,,,,,,,,,105,1158,Valid,signal,0,2,2545.347019400215,0,2.0,2.8630808000452816,1,True,9,A,2023-09-06_10h40.43.410,exp3,2022.2.2,
,,,,,,,,,,,,,,,,,,,,,,,106,2274,Invalid,noise,0,2,2549.8898649001494,1,1.0,3.6292942999862134,1,True,9,A,2023-09-06_10h40.43.410,exp3,2022.2.2,
,,,,,,,,,,,,,,,,,,,,,,,107,557,Invalid,signal,0,1,2553.8269948002417,1,2.0,3.8807270999532193,1,True,9,A,2023-09-06_10h40.43.410,exp3,2022.2.2,
,,,,,,,,,,,,,,,,,,,,,,,108,1158,Valid,noise,0,2,2558.642639600206,1,4.0,3.495891399914399,1,True,9,A,2023-09-06_10h40.43.410,exp3,2022.2.2,
,,,,,,,,,,,,,,,,,,,,,,,109,1158,Valid,noise,0,2,2562.7224772002082,1,4.0,2.3795888999011368,1,True,9,A,2023-09-06_10h40.43.410,exp3,2022.2.2,
,,,,,,,,,,,,,,,,,,,,,,,110,557,Valid,signal,0,2,2566.050797900185,0,4.0,2.3793019000440836,1,True,9,A,2023-09-06_10h40.43.410,exp3,2022.2.2,
,,,,,,,,,,,,,,,,,,,,,,,111,2274,Valid,noise,0,2,2570.131027900148,1,3.0,3.0459708999842405,1,True,9,A,2023-09-06_10h40.43.410,exp3,2022.2.2,
,,,,,,,,,,,,,,,,,,,,,,,112,-2274,Valid,signal,0,1,2575.4267531002406,1,2.0,4.580340099986643,1,True,9,A,2023-09-06_10h40.43.410,exp3,2022.2.2,
,,,,,,,,,,,,,,,,,,,,,,,113,557,Valid,noise,0,2,2579.4907858001534,1,4.0,3.863882299978286,1,True,9,A,2023-09-06_10h40.43.410,exp3,2022.2.2,
,,,,,,,,,,,,,,,,,,,,,,,114,-2274,Valid,noise,0,2,2584.53100240021,1,2.0,3.179487599991262,1,True,9,A,2023-09-06_10h40.43.410,exp3,2022.2.2,
,,,,,,,,,,,,,,,,,,,,,,,115,1716,Invalid,noise,0,2,2589.458867800189,1,2.0,4.613210699986666,1,True,9,A,2023-09-06_10h40.43.410,exp3,2022.2.2,
,,,,,,,,,,,,,,,,,,,,,,,116,1716,Valid,noise,0,2,2594.210230700206,1,3.0,2.896415299968794,1,True,9,A,2023-09-06_10h40.43.410,exp3,2022.2.2,
,,,,,,,,,,,,,,,,,,,,,,,117,1716,Valid,noise,0,2,2598.5463852002285,1,3.0,3.513556699967012,1,True,9,A,2023-09-06_10h40.43.410,exp3,2022.2.2,
,,,,,,,,,,,,,,,,,,,,,,,118,-2274,Valid,signal,0,2,2602.4662019002717,0,2.0,2.729063600068912,1,True,9,A,2023-09-06_10h40.43.410,exp3,2022.2.2,
,,,,,,,,,,,,,,,,,,,,,,,119,557,Invalid,noise,0,2,2606.402376400307,1,3.0,2.813080299878493,1,True,9,A,2023-09-06_10h40.43.410,exp3,2022.2.2,
,,,,,,,,,,,,,,,,,,,,,,,120,-557,Valid,signal,0,2,2610.098192800302,0,3.0,2.76331750000827,1,True,9,A,2023-09-06_10h40.43.410,exp3,2022.2.2,
,,,,,,,,,,,,,,,,,,,,,,,121,-1158,Invalid,signal,0,2,2613.938914600294,0,3.0,3.1125300999265164,1,True,9,A,2023-09-06_10h40.43.410,exp3,2022.2.2,
,,,,,,,,,,,,,,,,,,,,,,,122,2274,Invalid,signal,0,2,2618.6097504002973,0,1.0,4.113188199931756,1,True,9,A,2023-09-06_10h40.43.410,exp3,2022.2.2,
,,,,,,,,,,,,,,,,,,,,,,,123,1716,Valid,signal,0,2,2622.9469727003016,0,4.0,3.0128227001987398,1,True,9,A,2023-09-06_10h40.43.410,exp3,2022.2.2,
,,,,,,,,,,,,,,,,,,,,,,,124,2274,Valid,signal,0,2,2632.145777700236,0,3.0,7.948261999990791,2,True,9,A,2023-09-06_10h40.43.410,exp3,2022.2.2,
,,,,,,,,,,,,,,,,,,,,,,,125,-1158,Valid,signal,0,1,2635.730299500283,1,4.0,2.513054500101134,1,True,9,A,2023-09-06_10h40.43.410,exp3,2022.2.2,
,,,,,,,,,,,,,,,,,,,,,,,126,2274,Valid,noise,0,2,2639.6821239001583,1,2.0,3.0967027998995036,1,True,9,A,2023-09-06_10h40.43.410,exp3,2022.2.2,
,,,,,,,,,,,,,,,,,,,,,,,127,-1158,Valid,noise,0,1,2643.7625985001214,0,2.0,3.0124323000200093,1,True,9,A,2023-09-06_10h40.43.410,exp3,2022.2.2,
,,,,,,,,,,,,,,,,,,,,,,,128,-1716,Valid,noise,0,1,2647.505770200165,0,4.0,2.4960113000124693,1,True,9,A,2023-09-06_10h40.43.410,exp3,2022.2.2,
,,,,,,,,,,,,,,,,,,,,,,,129,557,Valid,signal,0,1,2651.313781000208,1,3.0,2.8461490001063794,1,True,9,A,2023-09-06_10h40.43.410,exp3,2022.2.2,
,,,,,,,,,,,,,,,,,,,,,,,130,-1158,Valid,noise,0,1,2655.106323100161,0,2.0,2.7294989998918027,1,True,9,A,2023-09-06_10h40.43.410,exp3,2022.2.2,
,,,,,,,,,,,,,,,,,,,,,,,131,1158,Valid,noise,0,2,2658.6259025002364,1,4.0,2.712911200011149,1,True,9,A,2023-09-06_10h40.43.410,exp3,2022.2.2,
,,,,,,,,,,,,,,,,,,,,,,,132,-1158,Invalid,noise,0,1,2663.026864700252,0,2.0,3.3130318999756128,1,True,9,A,2023-09-06_10h40.43.410,exp3,2022.2.2,
,,,,,,,,,,,,,,,,,,,,,,,133,-557,Invalid,signal,0,2,2667.026128300233,0,2.0,3.746555999852717,1,True,9,A,2023-09-06_10h40.43.410,exp3,2022.2.2,
,,,,,,,,,,,,,,,,,,,,,,,134,-557,Valid,noise,0,2,2671.427046400262,1,4.0,2.5966403998900205,1,True,9,A,2023-09-06_10h40.43.410,exp3,2022.2.2,
,,,,,,,,,,,,,,,,,,,,,,,135,-2274,Valid,signal,0,2,2675.2188977003098,0,3.0,2.760948099894449,1,True,9,A,2023-09-06_10h40.43.410,exp3,2022.2.2,
,,,,,,,,,,,,,,,,,,,,,,,136,1158,Invalid,signal,0,1,2678.8819201001897,1,2.0,2.7316063998732716,1,True,9,A,2023-09-06_10h40.43.410,exp3,2022.2.2,
,,,,,,,,,,,,,,,,,,,,,,,137,-1158,Valid,noise,0,2,2682.321820200188,1,3.0,2.3454116999637336,1,True,9,A,2023-09-06_10h40.43.410,exp3,2022.2.2,
,,,,,,,,,,,,,,,,,,,,,,,138,1158,Valid,noise,0,2,2686.0183229001705,1,4.0,2.8631577999331057,1,True,9,A,2023-09-06_10h40.43.410,exp3,2022.2.2,
,,,,,,,,,,,,,,,,,,,,,,,139,-557,Valid,noise,0,2,2690.001935600303,1,3.0,4.313771800138056,1,True,9,A,2023-09-06_10h40.43.410,exp3,2022.2.2,
,,,,,,,,,,,,,,,,,,,,,,,140,1158,Valid,signal,0,2,2695.3306416003034,0,3.0,3.3622201001271605,1,True,9,A,2023-09-06_10h40.43.410,exp3,2022.2.2,
,,,,,,,,,,,,,,,,,,,,,,,141,-1716,Valid,signal,0,2,2699.602659600321,0,3.0,4.630777999991551,1,True,9,A,2023-09-06_10h40.43.410,exp3,2022.2.2,
,,,,,,,,,,,,,,,,,,,,,,,142,-1158,Valid,noise,0,2,2705.010486200219,1,3.0,2.979140599956736,1,True,9,A,2023-09-06_10h40.43.410,exp3,2022.2.2,
,,,,,,,,,,,,,,,,,,,,,,,143,-2274,Valid,noise,0,2,2709.2345768001396,1,3.0,4.246770799858496,1,True,9,A,2023-09-06_10h40.43.410,exp3,2022.2.2,
,,,,,,,,,,,,,,,,,,,,,,,144,2274,Valid,noise,0,2,2714.418445400195,1,2.0,3.0294146998785436,1,True,9,A,2023-09-06_10h40.43.410,exp3,2022.2.2,
,,,,,,,,,,,,,,,,,,,,,,,145,1158,Valid,signal,0,2,2719.0110103001352,0,2.0,3.313859299989417,1,True,9,A,2023-09-06_10h40.43.410,exp3,2022.2.2,
,,,,,,,,,,,,,,,,,,,,,,,146,-557,Valid,signal,0,2,2722.8347157002427,0,3.0,4.029271699953824,1,True,9,A,2023-09-06_10h40.43.410,exp3,2022.2.2,
,,,,,,,,,,,,,,,,,,,,,,,147,557,Valid,noise,0,2,2727.490589100169,1,3.0,2.5799091001972556,1,True,9,A,2023-09-06_10h40.43.410,exp3,2022.2.2,
,,,,,,,,,,,,,,,,,,,,,,,148,-1716,Valid,signal,0,1,2732.210696300259,1,2.0,3.4458466998767108,1,True,9,A,2023-09-06_10h40.43.410,exp3,2022.2.2,
,,,,,,,,,,,,,,,,,,,,,,,149,1158,Valid,noise,0,2,2735.6658349002246,1,3.0,4.013413599925116,1,True,9,A,2023-09-06_10h40.43.410,exp3,2022.2.2,
,,,,,,,,,,,,,,,,,,,,,,,150,1716,Valid,signal,0,2,2745.5865808001254,0,2.0,7.3145820999052376,2,True,9,A,2023-09-06_10h40.43.410,exp3,2022.2.2,
,,,,,,,,,,,,,,,,,,,,,,,151,-1716,Valid,noise,0,1,2749.618816500297,0,2.0,3.113387600053102,1,True,9,A,2023-09-06_10h40.43.410,exp3,2022.2.2,
,,,,,,,,,,,,,,,,,,,,,,,152,1158,Valid,signal,0,1,2753.0109268003143,1,3.0,2.3625595001503825,1,True,9,A,2023-09-06_10h40.43.410,exp3,2022.2.2,
,,,,,,,,,,,,,,,,,,,,,,,153,557,Valid,signal,0,2,2757.217964200303,0,2.0,3.513420999981463,1,True,9,A,2023-09-06_10h40.43.410,exp3,2022.2.2,
,,,,,,,,,,,,,,,,,,,,,,,154,2274,Valid,noise,0,1,2761.266653600149,0,2.0,8.0482704997994,1,True,9,A,2023-09-06_10h40.43.410,exp3,2022.2.2,
,,,,,,,,,,,,,,,,,,,,,,,155,1716,Valid,signal,0,1,2774.0176824002992,1,2.0,6.847475799964741,2,True,9,A,2023-09-06_10h40.43.410,exp3,2022.2.2,
,,,,,,,,,,,,,,,,,,,,,,,156,-1716,Valid,noise,0,2,2778.017706300132,1,2.0,2.7128799001220614,1,True,9,A,2023-09-06_10h40.43.410,exp3,2022.2.2,
,,,,,,,,,,,,,,,,,,,,,,,157,557,Invalid,signal,0,1,2782.099165200256,1,3.0,3.4464025998022407,1,True,9,A,2023-09-06_10h40.43.410,exp3,2022.2.2,
,,,,,,,,,,,,,,,,,,,,,,,158,2274,Valid,signal,0,1,2787.71419100021,1,1.0,4.063447799999267,1,True,9,A,2023-09-06_10h40.43.410,exp3,2022.2.2,
,,,,,,,,,,,,,,,,,,,,,,,159,557,Valid,noise,0,2,2791.010963200126,1,4.0,2.2795844001229852,1,True,9,A,2023-09-06_10h40.43.410,exp3,2022.2.2,
,,,,,,,,,,,,,,,,,,,,,,,160,1158,Valid,noise,0,2,2794.306381800212,1,4.0,2.3294957999605685,1,True,9,A,2023-09-06_10h40.43.410,exp3,2022.2.2,
,,,,,,,,,,,,,,,,,,,,,,,161,1716,Valid,noise,0,2,2797.810886300169,1,4.0,3.229653500020504,1,True,9,A,2023-09-06_10h40.43.410,exp3,2022.2.2,
,,,,,,,,,,,,,,,,,,,,,,,162,557,Valid,signal,0,2,2802.722018300323,0,3.0,3.3125310000032187,1,True,9,A,2023-09-06_10h40.43.410,exp3,2022.2.2,
,,,,,,,,,,,,,,,,,,,,,,,163,557,Valid,noise,0,2,2806.19459880027,1,4.0,3.8968141998630017,1,True,9,A,2023-09-06_10h40.43.410,exp3,2022.2.2,
,,,,,,,,,,,,,,,,,,,,,,,164,-557,Valid,noise,0,2,2811.0586038001347,1,4.0,2.5295290001668036,1,True,9,A,2023-09-06_10h40.43.410,exp3,2022.2.2,
,,,,,,,,,,,,,,,,,,,,,,,165,1716,Invalid,noise,0,2,2815.4263928001747,1,2.0,3.396552599966526,1,True,9,A,2023-09-06_10h40.43.410,exp3,2022.2.2,
,,,,,,,,,,,,,,,,,,,,,,,166,557,Valid,noise,0,2,2818.977897700155,1,4.0,3.1963419001549482,1,True,9,A,2023-09-06_10h40.43.410,exp3,2022.2.2,
,,,,,,,,,,,,,,,,,,,,,,,167,-1158,Valid,noise,0,2,2827.378636700334,1,3.0,7.064458000008017,3,True,9,A,2023-09-06_10h40.43.410,exp3,2022.2.2,
,,,,,,,,,,,,,,,,,,,,,,,168,1158,Valid,signal,0,2,2831.6989367001224,0,4.0,3.112926800036803,1,True,9,A,2023-09-06_10h40.43.410,exp3,2022.2.2,
,,,,,,,,,,,,,,,,,,,,,,,169,-2274,Invalid,noise,0,2,2841.073760600295,1,1.0,8.681595399975777,1,True,9,A,2023-09-06_10h40.43.410,exp3,2022.2.2,
,,,,,,,,,,,,,,,,,,,,,,,170,-557,Valid,signal,0,2,2845.553838000167,0,2.0,2.9634523999411613,1,True,9,A,2023-09-06_10h40.43.410,exp3,2022.2.2,
,,,,,,,,,,,,,,,,,,,,,,,171,-1158,Valid,signal,0,1,2850.865813500248,1,4.0,4.5460334001109,2,True,9,A,2023-09-06_10h40.43.410,exp3,2022.2.2,
,,,,,,,,,,,,,,,,,,,,,,,172,1716,Valid,signal,0,1,2854.803025000263,1,2.0,2.579628400038928,1,True,9,A,2023-09-06_10h40.43.410,exp3,2022.2.2,
,,,,,,,,,,,,,,,,,,,,,,,173,1158,Valid,noise,0,2,2858.209914300125,1,4.0,2.412811500020325,1,True,9,A,2023-09-06_10h40.43.410,exp3,2022.2.2,
,,,,,,,,,,,,,,,,,,,,,,,174,2274,Valid,noise,0,2,2862.0504344003275,1,3.0,2.8797406998928636,1,True,9,A,2023-09-06_10h40.43.410,exp3,2022.2.2,
,,,,,,,,,,,,,,,,,,,,,,,175,-1716,Valid,noise,0,1,2868.6588990001474,0,2.0,5.74697250011377,2,True,9,A,2023-09-06_10h40.43.410,exp3,2022.2.2,
,,,,,,,,,,,,,,,,,,,,,,,176,-2274,Valid,signal,0,2,2873.106103400234,0,2.0,3.6465033998247236,1,True,9,A,2023-09-06_10h40.43.410,exp3,2022.2.2,
,,,,,,,,,,,,,,,,,,,,,,,2,1158,Valid,noise,0,2,3053.4901087002363,1,4.0,3.5970924999564886,1,True,9,A,2023-09-06_10h40.43.410,exp3,2022.2.2,
,,,,,,,,,,,,,,,,,,,,,,,4,-557,Valid,noise,0,2,3058.050345200347,1,3.0,3.1291954000480473,1,True,9,A,2023-09-06_10h40.43.410,exp3,2022.2.2,
,,,,,,,,,,,,,,,,,,,,,,,6,1158,Valid,noise,0,2,3061.905926700216,1,4.0,2.929841100005433,1,True,9,A,2023-09-06_10h40.43.410,exp3,2022.2.2,
,,,,,,,,,,,,,,,,,,,,,,,8,1158,Valid,noise,0,2,3065.8898939001374,1,3.0,2.8628933001309633,1,True,9,A,2023-09-06_10h40.43.410,exp3,2022.2.2,
,,,,,,,,,,,,,,,,,,,,,,,10,-2274,Valid,noise,0,2,3070.7377047003247,1,2.0,3.7797866999171674,1,True,9,A,2023-09-06_10h40.43.410,exp3,2022.2.2,
,,,,,,,,,,,,,,,,,,,,,,,12,-557,Invalid,noise,0,2,3074.818647300126,1,3.0,3.7633278998546302,1,True,9,A,2023-09-06_10h40.43.410,exp3,2022.2.2,
,,,,,,,,,,,,,,,,,,,,,,,14,-2274,Valid,noise,0,2,3079.378940800205,1,3.0,2.6965818000026047,1,True,9,A,2023-09-06_10h40.43.410,exp3,2022.2.2,
,,,,,,,,,,,,,,,,,,,,,,,16,2274,Valid,signal,0,2,3083.2985351001844,0,3.0,3.1626049999613315,1,True,9,A,2023-09-06_10h40.43.410,exp3,2022.2.2,
,,,,,,,,,,,,,,,,,,,,,,,18,-557,Valid,noise,0,2,3087.250011900207,1,4.0,2.7462749001570046,1,True,9,A,2023-09-06_10h40.43.410,exp3,2022.2.2,
,,,,,,,,,,,,,,,,,,,,,,,20,-557,Valid,signal,0,2,3090.802688800264,0,4.0,3.2298159999772906,1,True,9,A,2023-09-06_10h40.43.410,exp3,2022.2.2,
,,,,,,,,,,,,,,,,,,,,,,,22,-1716,Valid,signal,0,2,3095.313574500149,0,3.0,2.9302479999605566,1,True,9,A,2023-09-06_10h40.43.410,exp3,2022.2.2,
,,,,,,,,,,,,,,,,,,,,,,,24,1158,Invalid,noise,0,2,3099.890708200168,1,3.0,3.3292757999151945,1,True,9,A,2023-09-06_10h40.43.410,exp3,2022.2.2,
,,,,,,,,,,,,,,,,,,,,,,,26,-2274,Valid,signal,0,2,3103.5546546003316,0,3.0,2.7294038999825716,1,True,9,A,2023-09-06_10h40.43.410,exp3,2022.2.2,
,,,,,,,,,,,,,,,,,,,,,,,28,-557,Invalid,signal,0,2,3107.5537671002094,0,3.0,5.147686799988151,1,True,9,A,2023-09-06_10h40.43.410,exp3,2022.2.2,
,,,,,,,,,,,,,,,,,,,,,,,30,-1716,Invalid,noise,0,2,3113.6026856002863,1,4.0,2.8786756000481546,1,True,9,A,2023-09-06_10h40.43.410,exp3,2022.2.2,
,,,,,,,,,,,,,,,,,,,,,,,32,-1716,Valid,signal,0,2,3117.377491600346,0,4.0,2.979676299961284,1,True,9,A,2023-09-06_10h40.43.410,exp3,2022.2.2,
,,,,,,,,,,,,,,,,,,,,,,,34,-1716,Valid,noise,0,2,3121.313653100282,1,3.0,2.9134291000664234,1,True,9,A,2023-09-06_10h40.43.410,exp3,2022.2.2,
,,,,,,,,,,,,,,,,,,,,,,,36,-2274,Valid,noise,0,2,3125.665894200327,1,3.0,3.646115400129929,1,True,9,A,2023-09-06_10h40.43.410,exp3,2022.2.2,
,,,,,,,,,,,,,,,,,,,,,,,38,1158,Valid,signal,0,2,3130.930260800291,0,2.0,4.063327600015327,1,True,9,A,2023-09-06_10h40.43.410,exp3,2022.2.2,
,,,,,,,,,,,,,,,,,,,,,,,40,-1158,Valid,signal,0,2,3150.24259910034,0,1.0,19.10301770013757,1,True,9,A,2023-09-06_10h40.43.410,exp3,2022.2.2,
,,,,,,,,,,,,,,,,,,,,,,,42,-557,Valid,signal,0,2,3543.5058995003346,0,3.0,392.1791747000534,19,True,9,A,2023-09-06_10h40.43.410,exp3,2022.2.2,
,,,,,,,,,,,,,,,,,,,,,,,44,557,Valid,noise,0,2,3548.258100300329,1,4.0,4.463367200223729,1,True,9,A,2023-09-06_10h40.43.410,exp3,2022.2.2,
,,,,,,,,,,,,,,,,,,,,,,,46,1716,Valid,signal,0,2,3553.777428700123,0,3.0,2.9634099998511374,1,True,9,A,2023-09-06_10h40.43.410,exp3,2022.2.2,
,,,,,,,,,,,,,,,,,,,,,,,48,-1158,Valid,noise,0,2,3557.9863299003337,1,4.0,3.4632817001547664,1,True,9,A,2023-09-06_10h40.43.410,exp3,2022.2.2,
,,,,,,,,,,,,,,,,,,,,,,,50,-2274,Valid,signal,0,2,3562.3861765002366,0,3.0,5.229967300081626,1,True,9,A,2023-09-06_10h40.43.410,exp3,2022.2.2,
,,,,,,,,,,,,,,,,,,,,,,,52,-1716,Valid,noise,0,2,3568.449537000153,1,4.0,3.379968299996108,1,True,9,A,2023-09-06_10h40.43.410,exp3,2022.2.2,
,,,,,,,,,,,,,,,,,,,,,,,54,2274,Valid,noise,0,2,3572.737517800182,1,3.0,2.862578999949619,1,True,9,A,2023-09-06_10h40.43.410,exp3,2022.2.2,
,,,,,,,,,,,,,,,,,,,,,,,56,-2274,Valid,signal,0,2,3577.4574022002053,0,4.0,4.663794600171968,1,True,9,A,2023-09-06_10h40.43.410,exp3,2022.2.2,
,,,,,,,,,,,,,,,,,,,,,,,58,1716,Valid,noise,0,2,3582.2105332002975,1,4.0,3.71321600000374,1,True,9,A,2023-09-06_10h40.43.410,exp3,2022.2.2,
,,,,,,,,,,,,,,,,,,,,,,,60,-557,Valid,signal,0,2,3587.6021478001494,0,2.0,3.179879199946299,1,True,9,A,2023-09-06_10h40.43.410,exp3,2022.2.2,
,,,,,,,,,,,,,,,,,,,,,,,62,1158,Valid,signal,0,2,3591.490001000231,0,2.0,3.129636500030756,1,True,9,A,2023-09-06_10h40.43.410,exp3,2022.2.2,
,,,,,,,,,,,,,,,,,,,,,,,64,-1716,Valid,noise,0,2,3595.3618400001433,1,3.0,2.796242899959907,1,True,9,A,2023-09-06_10h40.43.410,exp3,2022.2.2,
,,,,,,,,,,,,,,,,,,,,,,,66,-557,Valid,signal,0,1,3599.281564500183,1,2.0,3.162892499938607,1,True,9,A,2023-09-06_10h40.43.410,exp3,2022.2.2,
,,,,,,,,,,,,,,,,,,,,,,,68,1158,Valid,noise,0,2,3603.425741500221,1,3.0,2.8628529000561684,1,True,9,A,2023-09-06_10h40.43.410,exp3,2022.2.2,
,,,,,,,,,,,,,,,,,,,,,,,70,-557,Valid,noise,0,2,3607.1219147001393,1,4.0,2.8634552999865264,1,True,9,A,2023-09-06_10h40.43.410,exp3,2022.2.2,
,,,,,,,,,,,,,,,,,,,,,,,72,-1158,Valid,signal,0,1,3611.21814200026,1,2.0,2.662211599992588,1,True,9,A,2023-09-06_10h40.43.410,exp3,2022.2.2,
,,,,,,,,,,,,,,,,,,,,,,,74,2274,Valid,noise,0,2,3614.706419200171,1,3.0,2.8129698999691755,1,True,9,A,2023-09-06_10h40.43.410,exp3,2022.2.2,
,,,,,,,,,,,,,,,,,,,,,,,76,2274,Valid,signal,0,2,3618.722095400328,0,3.0,4.797349200118333,1,True,9,A,2023-09-06_10h40.43.410,exp3,2022.2.2,
,,,,,,,,,,,,,,,,,,,,,,,78,557,Invalid,noise,0,2,3624.8982156002894,1,2.0,3.1791679998859763,1,True,9,A,2023-09-06_10h40.43.410,exp3,2022.2.2,
,,,,,,,,,,,,,,,,,,,,,,,80,-1158,Invalid,signal,0,1,3628.865962400334,1,2.0,3.2630175000522286,1,True,9,A,2023-09-06_10h40.43.410,exp3,2022.2.2,
,,,,,,,,,,,,,,,,,,,,,,,82,-1716,Valid,noise,0,2,3633.138591900235,1,3.0,3.329771500080824,1,True,9,A,2023-09-06_10h40.43.410,exp3,2022.2.2,
,,,,,,,,,,,,,,,,,,,,,,,84,557,Invalid,signal,0,1,3637.714335200144,1,3.0,6.5813014002051204,1,True,9,A,2023-09-06_10h40.43.410,exp3,2022.2.2,
,,,,,,,,,,,,,,,,,,,,,,,86,1158,Invalid,noise,0,1,3646.370569100138,0,1.0,4.446877900045365,1,True,9,A,2023-09-06_10h40.43.410,exp3,2022.2.2,
,,,,,,,,,,,,,,,,,,,,,,,88,-557,Valid,noise,0,2,3650.3385156001896,1,3.0,4.89690040005371,1,True,9,A,2023-09-06_10h40.43.410,exp3,2022.2.2,
,,,,,,,,,,,,,,,,,,,,,,,90,-1158,Invalid,signal,0,2,3656.3063656003214,0,3.0,3.096497599966824,1,True,9,A,2023-09-06_10h40.43.410,exp3,2022.2.2,
,,,,,,,,,,,,,,,,,,,,,,,92,1716,Valid,signal,0,2,3660.33775120019,0,3.0,3.0461567998863757,1,True,9,A,2023-09-06_10h40.43.410,exp3,2022.2.2,
,,,,,,,,,,,,,,,,,,,,,,,94,2274,Valid,noise,0,2,3664.258657600265,1,3.0,3.0299277999438345,1,True,9,A,2023-09-06_10h40.43.410,exp3,2022.2.2,
,,,,,,,,,,,,,,,,,,,,,,,96,1716,Valid,signal,0,2,3668.209577700123,0,3.0,2.8129641998093575,1,True,9,A,2023-09-06_10h40.43.410,exp3,2022.2.2,
,,,,,,,,,,,,,,,,,,,,,,,98,-2274,Valid,noise,0,2,3672.417553800158,1,2.0,3.029546500183642,1,True,9,A,2023-09-06_10h40.43.410,exp3,2022.2.2,
,,,,,,,,,,,,,,,,,,,,,,,100,-2274,Valid,noise,0,2,3676.130174800288,1,3.0,2.7629151998553425,1,True,9,A,2023-09-06_10h40.43.410,exp3,2022.2.2,
,,,,,,,,,,,,,,,,,,,,,,,102,1716,Invalid,signal,0,2,3681.3937202002853,0,1.0,4.263320100028068,1,True,9,A,2023-09-06_10h40.43.410,exp3,2022.2.2,
,,,,,,,,,,,,,,,,,,,,,,,104,557,Valid,noise,0,2,3685.0578411002643,1,4.0,3.0964558001141995,1,True,9,A,2023-09-06_10h40.43.410,exp3,2022.2.2,
,,,,,,,,,,,,,,,,,,,,,,,106,1716,Invalid,signal,0,2,3689.6824172001798,0,2.0,3.3801305999513716,1,True,9,A,2023-09-06_10h40.43.410,exp3,2022.2.2,
,,,,,,,,,,,,,,,,,,,,,,,108,1716,Valid,noise,0,2,3693.55332730012,1,3.0,2.812548400135711,1,True,9,A,2023-09-06_10h40.43.410,exp3,2022.2.2,
,,,,,,,,,,,,,,,,,,,,,,,110,2274,Invalid,signal,0,2,3697.9546318002976,0,2.0,3.6635782001540065,1,True,9,A,2023-09-06_10h40.43.410,exp3,2022.2.2,
,,,,,,,,,,,,,,,,,,,,,,,112,557,Valid,noise,0,2,3702.0021037003025,1,3.0,2.778916100040078,1,True,9,A,2023-09-06_10h40.43.410,exp3,2022.2.2,
,,,,,,,,,,,,,,,,,,,,,,,114,-557,Invalid,noise,0,2,3706.0814031001646,1,3.0,2.863203999819234,1,True,9,A,2023-09-06_10h40.43.410,exp3,2022.2.2,
,,,,,,,,,,,,,,,,,,,,,,,116,-1716,Invalid,signal,0,2,3710.001242500264,0,3.0,2.646180300042033,1,True,9,A,2023-09-06_10h40.43.410,exp3,2022.2.2,
,,,,,,,,,,,,,,,,,,,,,,,118,2274,Invalid,signal,0,2,3713.953319400316,0,3.0,3.129971600137651,1,True,9,A,2023-09-06_10h40.43.410,exp3,2022.2.2,
,,,,,,,,,,,,,,,,,,,,,,,120,1716,Valid,signal,0,2,3717.409957700176,0,3.0,2.946464699925855,1,True,9,A,2023-09-06_10h40.43.410,exp3,2022.2.2,
,,,,,,,,,,,,,,,,,,,,,,,122,1158,Valid,noise,0,2,3721.7297329001594,1,4.0,3.329379600007087,1,True,9,A,2023-09-06_10h40.43.410,exp3,2022.2.2,
