trials.label,trials.startVal,trials.maxVal,trials.minVal,trials.startValSd,trials.pthreshold,trials.beta,trials.delta,trials.gamma,trials.grain,trials.stepSize,trials.range,trials.cue,trials.thisIndex,trials.thisRepN,trials.thisN,trials.direction,trials.stepType,trials.intensity,signalOpacity,level,trials.response,stair_eye_ok,nTrial,position,validity,Stimulus,orientation,response_key,response_rt,response_correct,confidence,confidence_rt,eye_ok,participant,session,date,expName,psychopyVersion,
high_opac_v,0.01,1,0.01,3,0.82,3.5,0.01,0,0.01,4,5,Valid,1,1,0,start,lin,0.01,0,0.01,1,True,,,,,,,,,,,,3,A,2023-08-28_12h12.00.047,exp3,2022.2.2,
low_opac_v,0.4,1,0.01,3,0.82,3.5,0.01,0,0.01,4,5,Valid,0,1,1,start,lin,0.4,0,0.4,0,True,,,,,,,,,,,,3,A,2023-08-28_12h12.00.047,exp3,2022.2.2,
low_opac_i,0.4,1,0.01,3,0.82,3.5,0.01,0,0.01,4,5,Invalid,2,1,2,start,lin,0.4,0.4,0.4,1,True,,,,,,,,,,,,3,A,2023-08-28_12h12.00.047,exp3,2022.2.2,
low_opac_v,0.4,1,0.01,3,0.82,3.5,0.01,0,0.01,4,5,Valid,0,2,3,start,lin,1,0,1,1,True,,,,,,,,,,,,3,A,2023-08-28_12h12.00.047,exp3,2022.2.2,
high_opac_v,0.01,1,0.01,3,0.82,3.5,0.01,0,0.01,4,5,Valid,1,2,4,start,lin,0.01,0,0.01,1,True,,,,,,,,,,,,3,A,2023-08-28_12h12.00.047,exp3,2022.2.2,
low_opac_i,0.4,1,0.01,3,0.82,3.5,0.01,0,0.01,4,5,Invalid,2,2,5,start,lin,0.01,0,0.01,1,True,,,,,,,,,,,,3,A,2023-08-28_12h12.00.047,exp3,2022.2.2,
low_opac_i,0.4,1,0.01,3,0.82,3.5,0.01,0,0.01,4,5,Invalid,2,3,6,start,lin,0.01,0.01,0.01,0,True,,,,,,,,,,,,3,A,2023-08-28_12h12.00.047,exp3,2022.2.2,
high_opac_v,0.01,1,0.01,3,0.82,3.5,0.01,0,0.01,4,5,Valid,1,3,7,start,lin,0.01,0,0.01,1,True,,,,,,,,,,,,3,A,2023-08-28_12h12.00.047,exp3,2022.2.2,
low_opac_v,0.4,1,0.01,3,0.82,3.5,0.01,0,0.01,4,5,Valid,0,3,8,start,lin,0.8091950431803865,0.8091950431803865,0.8091950431803865,1,True,,,,,,,,,,,,3,A,2023-08-28_12h12.00.047,exp3,2022.2.2,
low_opac_i,0.4,1,0.01,3,0.82,3.5,0.01,0,0.01,4,5,Invalid,2,4,9,start,lin,0.11291000027026754,0,0.11291000027026754,1,True,,,,,,,,,,,,3,A,2023-08-28_12h12.00.047,exp3,2022.2.2,
low_opac_v,0.4,1,0.01,3,0.82,3.5,0.01,0,0.01,4,5,Valid,0,4,10,start,lin,0.6973591848232542,0,0.6973591848232542,1,True,,,,,,,,,,,,3,A,2023-08-28_12h12.00.047,exp3,2022.2.2,
high_opac_v,0.01,1,0.01,3,0.82,3.5,0.01,0,0.01,4,5,Valid,1,4,11,start,lin,0.01,0.01,0.01,0,True,,,,,,,,,,,,3,A,2023-08-28_12h12.00.047,exp3,2022.2.2,
high_opac_v,0.01,1,0.01,3,0.82,3.5,0.01,0,0.01,4,5,Valid,1,5,12,start,lin,0.01,0,0.01,0,True,,,,,,,,,,,,3,A,2023-08-28_12h12.00.047,exp3,2022.2.2,
low_opac_i,0.4,1,0.01,3,0.82,3.5,0.01,0,0.01,4,5,Invalid,2,5,13,start,lin,0.055546079649276214,0.055546079649276214,0.055546079649276214,0,True,,,,,,,,,,,,3,A,2023-08-28_12h12.00.047,exp3,2022.2.2,
low_opac_v,0.4,1,0.01,3,0.82,3.5,0.01,0,0.01,4,5,Valid,0,5,14,start,lin,0.6246282260865603,0.6246282260865603,0.6246282260865603,1,True,,,,,,,,,,,,3,A,2023-08-28_12h12.00.047,exp3,2022.2.2,
high_opac_v,0.01,1,0.01,3,0.82,3.5,0.01,0,0.01,4,5,Valid,1,6,15,start,lin,0.09148160074347027,0.09148160074347027,0.09148160074347027,1,True,,,,,,,,,,,,3,A,2023-08-28_12h12.00.047,exp3,2022.2.2,
low_opac_v,0.4,1,0.01,3,0.82,3.5,0.01,0,0.01,4,5,Valid,0,6,16,start,lin,0.5683883945097726,0,0.5683883945097726,1,True,,,,,,,,,,,,3,A,2023-08-28_12h12.00.047,exp3,2022.2.2,
low_opac_i,0.4,1,0.01,3,0.82,3.5,0.01,0,0.01,4,5,Invalid,2,6,17,start,lin,0.16915316766928282,0.16915316766928282,0.16915316766928282,1,True,,,,,,,,,,,,3,A,2023-08-28_12h12.00.047,exp3,2022.2.2,
low_opac_i,0.4,1,0.01,3,0.82,3.5,0.01,0,0.01,4,5,Invalid,2,7,18,start,lin,0.14521080678131015,0.14521080678131015,0.14521080678131015,1,True,,,,,,,,,,,,3,A,2023-08-28_12h12.00.047,exp3,2022.2.2,
low_opac_v,0.4,1,0.01,3,0.82,3.5,0.01,0,0.01,4,5,Valid,0,7,19,start,lin,0.5245929095863051,0.5245929095863051,0.5245929095863051,1,True,,,,,,,,,,,,3,A,2023-08-28_12h12.00.047,exp3,2022.2.2,
high_opac_v,0.01,1,0.01,3,0.82,3.5,0.01,0,0.01,4,5,Valid,1,7,20,start,lin,0.07332669865476234,0,0.07332669865476234,1,True,,,,,,,,,,,,3,A,2023-08-28_12h12.00.047,exp3,2022.2.2,
low_opac_v,0.4,1,0.01,3,0.82,3.5,0.01,0,0.01,4,5,Valid,0,8,21,start,lin,0.4846151596189739,0.4846151596189739,0.4846151596189739,1,True,,,,,,,,,,,,3,A,2023-08-28_12h12.00.047,exp3,2022.2.2,
high_opac_v,0.01,1,0.01,3,0.82,3.5,0.01,0,0.01,4,5,Valid,1,8,22,start,lin,0.05821771551554312,0,0.05821771551554312,1,True,,,,,,,,,,,,3,A,2023-08-28_12h12.00.047,exp3,2022.2.2,
low_opac_i,0.4,1,0.01,3,0.82,3.5,0.01,0,0.01,4,5,Invalid,2,8,23,start,lin,0.12730956115660075,0.12730956115660075,0.12730956115660075,1,True,,,,,,,,,,,,3,A,2023-08-28_12h12.00.047,exp3,2022.2.2,
low_opac_v,0.4,1,0.01,3,0.82,3.5,0.01,0,0.01,4,5,Valid,0,9,24,start,lin,0.4462051828824988,0.4462051828824988,0.4462051828824988,1,True,,,,,,,,,,,,3,A,2023-08-28_12h12.00.047,exp3,2022.2.2,
low_opac_i,0.4,1,0.01,3,0.82,3.5,0.01,0,0.01,4,5,Invalid,2,9,25,start,lin,0.11237162559530067,0,0.11237162559530067,1,True,,,,,,,,,,,,3,A,2023-08-28_12h12.00.047,exp3,2022.2.2,
high_opac_v,0.01,1,0.01,3,0.82,3.5,0.01,0,0.01,4,5,Valid,1,9,26,start,lin,0.04559146305486312,0.04559146305486312,0.04559146305486312,0,True,,,,,,,,,,,,3,A,2023-08-28_12h12.00.047,exp3,2022.2.2,
high_opac_v,0.01,1,0.01,3,0.82,3.5,0.01,0,0.01,4,5,Valid,1,10,27,start,lin,0.08769384071166557,0.08769384071166557,0.08769384071166557,1,True,,,,,,,,,,,,3,A,2023-08-28_12h12.00.047,exp3,2022.2.2,
low_opac_i,0.4,1,0.01,3,0.82,3.5,0.01,0,0.01,4,5,Invalid,2,10,28,start,lin,0.0990055231818932,0,0.0990055231818932,0,True,,,,,,,,,,,,3,A,2023-08-28_12h12.00.047,exp3,2022.2.2,
low_opac_v,0.4,1,0.01,3,0.82,3.5,0.01,0,0.01,4,5,Valid,0,10,29,start,lin,0.4072186841576921,0.4072186841576921,0.4072186841576921,1,True,,,,,,,,,,,,3,A,2023-08-28_12h12.00.047,exp3,2022.2.2,
low_opac_v,0.4,1,0.01,3,0.82,3.5,0.01,0,0.01,4,5,Valid,0,11,30,start,lin,0.35300861066848543,0.35300861066848543,0.35300861066848543,1,True,,,,,,,,,,,,3,A,2023-08-28_12h12.00.047,exp3,2022.2.2,
high_opac_v,0.01,1,0.01,3,0.82,3.5,0.01,0,0.01,4,5,Valid,1,11,31,start,lin,0.07864806410480116,0.07864806410480116,0.07864806410480116,0,True,,,,,,,,,,,,3,A,2023-08-28_12h12.00.047,exp3,2022.2.2,
low_opac_i,0.4,1,0.01,3,0.82,3.5,0.01,0,0.01,4,5,Invalid,2,11,32,start,lin,0.14090195718918064,0.14090195718918064,0.14090195718918064,1,True,,,,,,,,,,,,3,A,2023-08-28_12h12.00.047,exp3,2022.2.2,
low_opac_v,0.4,1,0.01,3,0.82,3.5,0.01,0,0.01,4,5,Valid,0,12,33,start,lin,0.024992697061074542,0.024992697061074542,0.024992697061074542,0,True,,,,,,,,,,,,3,A,2023-08-28_12h12.00.047,exp3,2022.2.2,
high_opac_v,0.01,1,0.01,3,0.82,3.5,0.01,0,0.01,4,5,Valid,1,12,34,start,lin,0.1100589517853494,0.1100589517853494,0.1100589517853494,1,True,,,,,,,,,,,,3,A,2023-08-28_12h12.00.047,exp3,2022.2.2,
low_opac_i,0.4,1,0.01,3,0.82,3.5,0.01,0,0.01,4,5,Invalid,2,12,35,start,lin,0.13121179366075592,0,0.13121179366075592,1,True,,,,,,,,,,,,3,A,2023-08-28_12h12.00.047,exp3,2022.2.2,
high_opac_v,0.01,1,0.01,3,0.82,3.5,0.01,0,0.01,4,5,Valid,1,13,36,start,lin,0.10241617887848285,0,0.10241617887848285,1,True,,,,,,,,,,,,3,A,2023-08-28_12h12.00.047,exp3,2022.2.2,
low_opac_v,0.4,1,0.01,3,0.82,3.5,0.01,0,0.01,4,5,Valid,0,13,37,start,lin,0.40487015599605314,0,0.40487015599605314,1,True,,,,,,,,,,,,3,A,2023-08-28_12h12.00.047,exp3,2022.2.2,
low_opac_i,0.4,1,0.01,3,0.82,3.5,0.01,0,0.01,4,5,Invalid,2,13,38,start,lin,0.12254582345802345,0.12254582345802345,0.12254582345802345,1,True,,,,,,,,,,,,3,A,2023-08-28_12h12.00.047,exp3,2022.2.2,
low_opac_v,0.4,1,0.01,3,0.82,3.5,0.01,0,0.01,4,5,Valid,0,14,39,start,lin,0.38782360378282504,0.38782360378282504,0.38782360378282504,1,True,,,,,,,,,,,,3,A,2023-08-28_12h12.00.047,exp3,2022.2.2,
high_opac_v,0.01,1,0.01,3,0.82,3.5,0.01,0,0.01,4,5,Valid,1,14,40,start,lin,0.09536836642011814,0.09536836642011814,0.09536836642011814,1,True,,,,,,,,,,,,3,A,2023-08-28_12h12.00.047,exp3,2022.2.2,
low_opac_i,0.4,1,0.01,3,0.82,3.5,0.01,0,0.01,4,5,Invalid,2,14,41,start,lin,0.11459596506303404,0.11459596506303404,0.11459596506303404,1,True,,,,,,,,,,,,3,A,2023-08-28_12h12.00.047,exp3,2022.2.2,
low_opac_v,0.4,1,0.01,3,0.82,3.5,0.01,0,0.01,4,5,Valid,0,15,42,start,lin,0.3723068795551985,0.3723068795551985,0.3723068795551985,1,True,,,,,,,,,,,,3,A,2023-08-28_12h12.00.047,exp3,2022.2.2,
high_opac_v,0.01,1,0.01,3,0.82,3.5,0.01,0,0.01,4,5,Valid,1,15,43,start,lin,0.0892712881158329,0.0892712881158329,0.0892712881158329,1,True,,,,,,,,,,,,3,A,2023-08-28_12h12.00.047,exp3,2022.2.2,
low_opac_i,0.4,1,0.01,3,0.82,3.5,0.01,0,0.01,4,5,Invalid,2,15,44,start,lin,0.10716782572629963,0.10716782572629963,0.10716782572629963,1,True,,,,,,,,,,,,3,A,2023-08-28_12h12.00.047,exp3,2022.2.2,
low_opac_v,0.4,1,0.01,3,0.82,3.5,0.01,0,0.01,4,5,Valid,0,16,45,start,lin,0.356239707858624,0.356239707858624,0.356239707858624,1,True,,,,,,,,,,,,3,A,2023-08-28_12h12.00.047,exp3,2022.2.2,
high_opac_v,0.01,1,0.01,3,0.82,3.5,0.01,0,0.01,4,5,Valid,1,16,46,start,lin,0.08348265636516138,0,0.08348265636516138,1,True,,,,,,,,,,,,3,A,2023-08-28_12h12.00.047,exp3,2022.2.2,
low_opac_i,0.4,1,0.01,3,0.82,3.5,0.01,0,0.01,4,5,Invalid,2,16,47,start,lin,0.100689313925105,0.100689313925105,0.100689313925105,1,True,,,,,,,,,,,,3,A,2023-08-28_12h12.00.047,exp3,2022.2.2,
high_opac_v,0.01,1,0.01,3,0.82,3.5,0.01,0,0.01,4,5,Valid,1,17,48,start,lin,0.07787070137678136,0,0.07787070137678136,1,True,,,,,,,,,,,,3,A,2023-08-28_12h12.00.047,exp3,2022.2.2,
low_opac_i,0.4,1,0.01,3,0.82,3.5,0.01,0,0.01,4,5,Invalid,2,17,49,start,lin,0.09442792627318769,0,0.09442792627318769,1,True,,,,,,,,,,,,3,A,2023-08-28_12h12.00.047,exp3,2022.2.2,
low_opac_v,0.4,1,0.01,3,0.82,3.5,0.01,0,0.01,4,5,Valid,0,17,50,start,lin,0.34050074206842484,0,0.34050074206842484,1,True,,,,,,,,,,,,3,A,2023-08-28_12h12.00.047,exp3,2022.2.2,
low_opac_i,0.4,1,0.01,3,0.82,3.5,0.01,0,0.01,4,5,Invalid,2,18,51,start,lin,0.08832808193355329,0.08832808193355329,0.08832808193355329,1,True,,,,,,,,,,,,3,A,2023-08-28_12h12.00.047,exp3,2022.2.2,
high_opac_v,0.01,1,0.01,3,0.82,3.5,0.01,0,0.01,4,5,Valid,1,18,52,start,lin,0.07287689076598511,0.07287689076598511,0.07287689076598511,0,True,,,,,,,,,,,,3,A,2023-08-28_12h12.00.047,exp3,2022.2.2,
low_opac_v,0.4,1,0.01,3,0.82,3.5,0.01,0,0.01,4,5,Valid,0,18,53,start,lin,0.32259436142549763,0,0.32259436142549763,1,True,,,,,,,,,,,,3,A,2023-08-28_12h12.00.047,exp3,2022.2.2,
high_opac_v,0.01,1,0.01,3,0.82,3.5,0.01,0,0.01,4,5,Valid,1,19,54,start,lin,0.09138252233582002,0.09138252233582002,0.09138252233582002,1,True,,,,,,,,,,,,3,A,2023-08-28_12h12.00.047,exp3,2022.2.2,
low_opac_v,0.4,1,0.01,3,0.82,3.5,0.01,0,0.01,4,5,Valid,0,19,55,start,lin,0.3012186328164147,0.3012186328164147,0.3012186328164147,1,True,,,,,,,,,,,,3,A,2023-08-28_12h12.00.047,exp3,2022.2.2,
low_opac_i,0.4,1,0.01,3,0.82,3.5,0.01,0,0.01,4,5,Invalid,2,19,56,start,lin,0.08283567617702176,0,0.08283567617702176,1,True,,,,,,,,,,,,3,A,2023-08-28_12h12.00.047,exp3,2022.2.2,
high_opac_v,0.01,1,0.01,3,0.82,3.5,0.01,0,0.01,4,5,Valid,1,20,57,start,lin,0.0868222278439962,0.0868222278439962,0.0868222278439962,1,True,,,,,,,,,,,,3,A,2023-08-28_12h12.00.047,exp3,2022.2.2,
low_opac_i,0.4,1,0.01,3,0.82,3.5,0.01,0,0.01,4,5,Invalid,2,20,58,start,lin,0.07734789600368908,0,0.07734789600368908,1,True,,,,,,,,,,,,3,A,2023-08-28_12h12.00.047,exp3,2022.2.2,
low_opac_v,0.4,1,0.01,3,0.82,3.5,0.01,0,0.01,4,5,Valid,0,20,59,start,lin,0.273636787424012,0.273636787424012,0.273636787424012,1,True,,,,,,,,,,,,3,A,2023-08-28_12h12.00.047,exp3,2022.2.2,
low_opac_i,0.4,1,0.01,3,0.82,3.5,0.01,0,0.01,4,5,Invalid,2,21,60,start,lin,0.07234176140827514,0.07234176140827514,0.07234176140827514,1,True,,,,,,,,,,,,3,A,2023-08-28_12h12.00.047,exp3,2022.2.2,
high_opac_v,0.01,1,0.01,3,0.82,3.5,0.01,0,0.01,4,5,Valid,1,21,61,start,lin,0.08270206236434291,0.08270206236434291,0.08270206236434291,1,True,,,,,,,,,,,,3,A,2023-08-28_12h12.00.047,exp3,2022.2.2,
low_opac_v,0.4,1,0.01,3,0.82,3.5,0.01,0,0.01,4,5,Valid,0,21,62,start,lin,0.23501454219247891,0.23501454219247891,0.23501454219247891,1,True,,,,,,,,,,,,3,A,2023-08-28_12h12.00.047,exp3,2022.2.2,
low_opac_v,0.4,1,0.01,3,0.82,3.5,0.01,0,0.01,4,5,Valid,0,22,63,start,lin,0.19295709987052317,0.19295709987052317,0.19295709987052317,1,True,,,,,,,,,,,,3,A,2023-08-28_12h12.00.047,exp3,2022.2.2,
low_opac_i,0.4,1,0.01,3,0.82,3.5,0.01,0,0.01,4,5,Invalid,2,22,64,start,lin,0.06724561323130362,0,0.06724561323130362,0,True,,,,,,,,,,,,3,A,2023-08-28_12h12.00.047,exp3,2022.2.2,
high_opac_v,0.01,1,0.01,3,0.82,3.5,0.01,0,0.01,4,5,Valid,1,22,65,start,lin,0.07854818343451103,0.07854818343451103,0.07854818343451103,1,True,,,,,,,,,,,,3,A,2023-08-28_12h12.00.047,exp3,2022.2.2,
low_opac_v,0.4,1,0.01,3,0.82,3.5,0.01,0,0.01,4,5,Valid,0,23,66,start,lin,0.1505374428730966,0,0.1505374428730966,1,True,,,,,,,,,,,,3,A,2023-08-28_12h12.00.047,exp3,2022.2.2,
low_opac_i,0.4,1,0.01,3,0.82,3.5,0.01,0,0.01,4,5,Invalid,2,23,67,start,lin,0.0861777554006346,0.0861777554006346,0.0861777554006346,1,True,,,,,,,,,,,,3,A,2023-08-28_12h12.00.047,exp3,2022.2.2,
high_opac_v,0.01,1,0.01,3,0.82,3.5,0.01,0,0.01,4,5,Valid,1,23,68,start,lin,0.07475906119972855,0.07475906119972855,0.07475906119972855,0,True,,,,,,,,,,,,3,A,2023-08-28_12h12.00.047,exp3,2022.2.2,
high_opac_v,0.01,1,0.01,3,0.82,3.5,0.01,0,0.01,4,5,Valid,1,24,69,start,lin,0.08892332543799021,0,0.08892332543799021,1,True,,,,,,,,,,,,3,A,2023-08-28_12h12.00.047,exp3,2022.2.2,
low_opac_i,0.4,1,0.01,3,0.82,3.5,0.01,0,0.01,4,5,Invalid,2,24,70,start,lin,0.08224599565884355,0.08224599565884355,0.08224599565884355,1,True,,,,,,,,,,,,3,A,2023-08-28_12h12.00.047,exp3,2022.2.2,
low_opac_v,0.4,1,0.01,3,0.82,3.5,0.01,0,0.01,4,5,Valid,0,24,71,start,lin,0.11287663662837127,0.11287663662837127,0.11287663662837127,1,True,,,,,,,,,,,,3,A,2023-08-28_12h12.00.047,exp3,2022.2.2,
high_opac_v,0.01,1,0.01,3,0.82,3.5,0.01,0,0.01,4,5,Valid,1,25,72,start,lin,0.08547670177588025,0,0.08547670177588025,1,True,,,,,,,,,,,,3,A,2023-08-28_12h12.00.047,exp3,2022.2.2,
low_opac_i,0.4,1,0.01,3,0.82,3.5,0.01,0,0.01,4,5,Invalid,2,25,73,start,lin,0.0782209022678429,0.0782209022678429,0.0782209022678429,1,True,,,,,,,,,,,,3,A,2023-08-28_12h12.00.047,exp3,2022.2.2,
low_opac_v,0.4,1,0.01,3,0.82,3.5,0.01,0,0.01,4,5,Valid,0,25,74,start,lin,0.07769411752192773,0,0.07769411752192773,1,True,,,,,,,,,,,,3,A,2023-08-28_12h12.00.047,exp3,2022.2.2,
low_opac_v,0.4,1,0.01,3,0.82,3.5,0.01,0,0.01,4,5,Valid,0,26,75,start,lin,0.04406465183580832,0,0.04406465183580832,1,True,,,,,,,,,,,,3,A,2023-08-28_12h12.00.047,exp3,2022.2.2,
low_opac_i,0.4,1,0.01,3,0.82,3.5,0.01,0,0.01,4,5,Invalid,2,26,76,start,lin,0.07450245501369623,0,0.07450245501369623,1,True,,,,,,,,,,,,3,A,2023-08-28_12h12.00.047,exp3,2022.2.2,
high_opac_v,0.01,1,0.01,3,0.82,3.5,0.01,0,0.01,4,5,Valid,1,26,77,start,lin,0.08227520957997214,0.08227520957997214,0.08227520957997214,0,True,,,,,,,,,,,,3,A,2023-08-28_12h12.00.047,exp3,2022.2.2,
high_opac_v,0.01,1,0.01,3,0.82,3.5,0.01,0,0.01,4,5,Valid,1,27,78,start,lin,0.09493559317521759,0.09493559317521759,0.09493559317521759,1,True,,,,,,,,,,,,3,A,2023-08-28_12h12.00.047,exp3,2022.2.2,
low_opac_v,0.4,1,0.01,3,0.82,3.5,0.01,0,0.01,4,5,Valid,0,27,79,start,lin,0.01,0.01,0.01,0,True,,,,,,,,,,,,3,A,2023-08-28_12h12.00.047,exp3,2022.2.2,
low_opac_i,0.4,1,0.01,3,0.82,3.5,0.01,0,0.01,4,5,Invalid,2,27,80,start,lin,0.07070940599876979,0,0.07070940599876979,1,True,,,,,,,,,,,,3,A,2023-08-28_12h12.00.047,exp3,2022.2.2,
high_opac_v,0.01,1,0.01,3,0.82,3.5,0.01,0,0.01,4,5,Valid,1,28,81,start,lin,0.0917445866246868,0.0917445866246868,0.0917445866246868,1,True,,,,,,,,,,,,3,A,2023-08-28_12h12.00.047,exp3,2022.2.2,
low_opac_v,0.4,1,0.01,3,0.82,3.5,0.01,0,0.01,4,5,Valid,0,28,82,start,lin,0.09753577719337009,0.09753577719337009,0.09753577719337009,1,True,,,,,,,,,,,,3,A,2023-08-28_12h12.00.047,exp3,2022.2.2,
low_opac_i,0.4,1,0.01,3,0.82,3.5,0.01,0,0.01,4,5,Invalid,2,28,83,start,lin,0.06710663374014408,0.06710663374014408,0.06710663374014408,0,True,,,,,,,,,,,,3,A,2023-08-28_12h12.00.047,exp3,2022.2.2,
low_opac_i,0.4,1,0.01,3,0.82,3.5,0.01,0,0.01,4,5,Invalid,2,29,84,start,lin,0.08105523900050221,0.08105523900050221,0.08105523900050221,0,True,,,,,,,,,,,,3,A,2023-08-28_12h12.00.047,exp3,2022.2.2,
high_opac_v,0.01,1,0.01,3,0.82,3.5,0.01,0,0.01,4,5,Valid,1,29,85,start,lin,0.0887106581780623,0,0.0887106581780623,1,True,,,,,,,,,,,,3,A,2023-08-28_12h12.00.047,exp3,2022.2.2,
low_opac_v,0.4,1,0.01,3,0.82,3.5,0.01,0,0.01,4,5,Valid,0,29,86,start,lin,0.08527665919964422,0.08527665919964422,0.08527665919964422,1,True,,,,,,,,,,,,3,A,2023-08-28_12h12.00.047,exp3,2022.2.2,
low_opac_i,0.4,1,0.01,3,0.82,3.5,0.01,0,0.01,4,5,Invalid,2,30,87,start,lin,0.09346329079232452,0,0.09346329079232452,1,True,,,,,,,,,,,,3,A,2023-08-28_12h12.00.047,exp3,2022.2.2,
low_opac_v,0.4,1,0.01,3,0.82,3.5,0.01,0,0.01,4,5,Valid,0,30,88,start,lin,0.07446133685494621,0.07446133685494621,0.07446133685494621,0,True,,,,,,,,,,,,3,A,2023-08-28_12h12.00.047,exp3,2022.2.2,
high_opac_v,0.01,1,0.01,3,0.82,3.5,0.01,0,0.01,4,5,Valid,1,30,89,start,lin,0.08589825276206955,0,0.08589825276206955,1,True,,,,,,,,,,,,3,A,2023-08-28_12h12.00.047,exp3,2022.2.2,
low_opac_v,0.4,1,0.01,3,0.82,3.5,0.01,0,0.01,4,5,Valid,0,31,90,start,lin,0.1105033119518582,0,0.1105033119518582,1,True,,,,,,,,,,,,3,A,2023-08-28_12h12.00.047,exp3,2022.2.2,
high_opac_v,0.01,1,0.01,3,0.82,3.5,0.01,0,0.01,4,5,Valid,1,31,91,start,lin,0.0832591045476923,0,0.0832591045476923,1,True,,,,,,,,,,,,3,A,2023-08-28_12h12.00.047,exp3,2022.2.2,
low_opac_i,0.4,1,0.01,3,0.82,3.5,0.01,0,0.01,4,5,Invalid,2,31,92,start,lin,0.09043582448879356,0,0.09043582448879356,1,True,,,,,,,,,,,,3,A,2023-08-28_12h12.00.047,exp3,2022.2.2,
low_opac_i,0.4,1,0.01,3,0.82,3.5,0.01,0,0.01,4,5,Invalid,2,32,93,start,lin,0.08755917197515745,0,0.08755917197515745,1,True,,,,,,,,,,,,3,A,2023-08-28_12h12.00.047,exp3,2022.2.2,
high_opac_v,0.01,1,0.01,3,0.82,3.5,0.01,0,0.01,4,5,Valid,1,32,94,start,lin,0.08051058747529602,0.08051058747529602,0.08051058747529602,1,True,,,,,,,,,,,,3,A,2023-08-28_12h12.00.047,exp3,2022.2.2,
low_opac_v,0.4,1,0.01,3,0.82,3.5,0.01,0,0.01,4,5,Valid,0,32,95,start,lin,0.10220532385074266,0.10220532385074266,0.10220532385074266,1,True,,,,,,,,,,,,3,A,2023-08-28_12h12.00.047,exp3,2022.2.2,
low_opac_v,0.4,1,0.01,3,0.82,3.5,0.01,0,0.01,4,5,Valid,0,33,96,start,lin,0.09449654086786435,0,0.09449654086786435,1,True,,,,,,,,,,,,3,A,2023-08-28_12h12.00.047,exp3,2022.2.2,
low_opac_i,0.4,1,0.01,3,0.82,3.5,0.01,0,0.01,4,5,Invalid,2,33,97,start,lin,0.08487767810849134,0.08487767810849134,0.08487767810849134,1,True,,,,,,,,,,,,3,A,2023-08-28_12h12.00.047,exp3,2022.2.2,
high_opac_v,0.01,1,0.01,3,0.82,3.5,0.01,0,0.01,4,5,Valid,1,33,98,start,lin,0.07788838958605943,0.07788838958605943,0.07788838958605943,1,True,,,,,,,,,,,,3,A,2023-08-28_12h12.00.047,exp3,2022.2.2,
low_opac_v,0.4,1,0.01,3,0.82,3.5,0.01,0,0.01,4,5,Valid,0,34,99,start,lin,0.08722490104623637,0,0.08722490104623637,1,True,,,,,,,,,,,,3,A,2023-08-28_12h12.00.047,exp3,2022.2.2,
high_opac_v,0.01,1,0.01,3,0.82,3.5,0.01,0,0.01,4,5,Valid,1,34,100,start,lin,0.07543980755495064,0.07543980755495064,0.07543980755495064,1,True,,,,,,,,,,,,3,A,2023-08-28_12h12.00.047,exp3,2022.2.2,
low_opac_i,0.4,1,0.01,3,0.82,3.5,0.01,0,0.01,4,5,Invalid,2,34,101,start,lin,0.08210938090742737,0,0.08210938090742737,1,True,,,,,,,,,,,,3,A,2023-08-28_12h12.00.047,exp3,2022.2.2,
low_opac_v,0.4,1,0.01,3,0.82,3.5,0.01,0,0.01,4,5,Valid,0,35,102,start,lin,0.08084169944065656,0.08084169944065656,0.08084169944065656,1,True,,,,,,,,,,,,3,A,2023-08-28_12h12.00.047,exp3,2022.2.2,
low_opac_i,0.4,1,0.01,3,0.82,3.5,0.01,0,0.01,4,5,Invalid,2,35,103,start,lin,0.07943316339734324,0.07943316339734324,0.07943316339734324,1,True,,,,,,,,,,,,3,A,2023-08-28_12h12.00.047,exp3,2022.2.2,
high_opac_v,0.01,1,0.01,3,0.82,3.5,0.01,0,0.01,4,5,Valid,1,35,104,start,lin,0.07311710159928171,0.07311710159928171,0.07311710159928171,1,True,,,,,,,,,,,,3,A,2023-08-28_12h12.00.047,exp3,2022.2.2,
high_opac_v,0.01,1,0.01,3,0.82,3.5,0.01,0,0.01,4,5,Valid,1,36,105,start,lin,0.07067647107710683,0,0.07067647107710683,1,True,,,,,,,,,,,,3,A,2023-08-28_12h12.00.047,exp3,2022.2.2,
low_opac_v,0.4,1,0.01,3,0.82,3.5,0.01,0,0.01,4,5,Valid,0,36,106,start,lin,0.07463991736389369,0,0.07463991736389369,1,True,,,,,,,,,,,,3,A,2023-08-28_12h12.00.047,exp3,2022.2.2,
low_opac_i,0.4,1,0.01,3,0.82,3.5,0.01,0,0.01,4,5,Invalid,2,36,107,start,lin,0.07690048415471479,0.07690048415471479,0.07690048415471479,1,True,,,,,,,,,,,,3,A,2023-08-28_12h12.00.047,exp3,2022.2.2,
high_opac_v,0.01,1,0.01,3,0.82,3.5,0.01,0,0.01,4,5,Valid,1,37,108,start,lin,0.06831811026456552,0,0.06831811026456552,1,True,,,,,,,,,,,,3,A,2023-08-28_12h12.00.047,exp3,2022.2.2,
low_opac_i,0.4,1,0.01,3,0.82,3.5,0.01,0,0.01,4,5,Invalid,2,37,109,start,lin,0.07451487917651695,0.07451487917651695,0.07451487917651695,1,True,,,,,,,,,,,,3,A,2023-08-28_12h12.00.047,exp3,2022.2.2,
low_opac_v,0.4,1,0.01,3,0.82,3.5,0.01,0,0.01,4,5,Valid,0,37,110,start,lin,0.06858691289949348,0,0.06858691289949348,1,True,,,,,,,,,,,,3,A,2023-08-28_12h12.00.047,exp3,2022.2.2,
low_opac_v,0.4,1,0.01,3,0.82,3.5,0.01,0,0.01,4,5,Valid,0,38,111,start,lin,0.06312700021319345,0,0.06312700021319345,1,True,,,,,,,,,,,,3,A,2023-08-28_12h12.00.047,exp3,2022.2.2,
low_opac_i,0.4,1,0.01,3,0.82,3.5,0.01,0,0.01,4,5,Invalid,2,38,112,start,lin,0.07202823348735388,0.07202823348735388,0.07202823348735388,1,True,,,,,,,,,,,,3,A,2023-08-28_12h12.00.047,exp3,2022.2.2,
high_opac_v,0.01,1,0.01,3,0.82,3.5,0.01,0,0.01,4,5,Valid,1,38,113,start,lin,0.06610273865215527,0.06610273865215527,0.06610273865215527,1,True,,,,,,,,,,,,3,A,2023-08-28_12h12.00.047,exp3,2022.2.2,
low_opac_v,0.4,1,0.01,3,0.82,3.5,0.01,0,0.01,4,5,Valid,0,39,114,start,lin,0.05767908354772866,0.05767908354772866,0.05767908354772866,1,True,,,,,,,,,,,,3,A,2023-08-28_12h12.00.047,exp3,2022.2.2,
low_opac_i,0.4,1,0.01,3,0.82,3.5,0.01,0,0.01,4,5,Invalid,2,39,115,start,lin,0.06960545298785115,0,0.06960545298785115,1,True,,,,,,,,,,,,3,A,2023-08-28_12h12.00.047,exp3,2022.2.2,
high_opac_v,0.01,1,0.01,3,0.82,3.5,0.01,0,0.01,4,5,Valid,1,39,116,start,lin,0.06399705890995926,0.06399705890995926,0.06399705890995926,0,True,,,,,,,,,,,,3,A,2023-08-28_12h12.00.047,exp3,2022.2.2,
low_opac_v,0.4,1,0.01,3,0.82,3.5,0.01,0,0.01,4,5,Valid,0,40,117,start,lin,0.05271349809062087,0,0.05271349809062087,1,True,,,,,,,,,,,,3,A,2023-08-28_12h12.00.047,exp3,2022.2.2,
low_opac_i,0.4,1,0.01,3,0.82,3.5,0.01,0,0.01,4,5,Invalid,2,40,118,start,lin,0.06728910339985406,0.06728910339985406,0.06728910339985406,0,True,,,,,,,,,,,,3,A,2023-08-28_12h12.00.047,exp3,2022.2.2,
high_opac_v,0.01,1,0.01,3,0.82,3.5,0.01,0,0.01,4,5,Valid,1,40,119,start,lin,0.0724902260875996,0,0.0724902260875996,1,True,,,,,,,,,,,,3,A,2023-08-28_12h12.00.047,exp3,2022.2.2,
low_opac_v,0.4,1,0.01,3,0.82,3.5,0.01,0,0.01,4,5,Valid,0,41,120,start,lin,0.04767986839009236,0.04767986839009236,0.04767986839009236,0,True,,,,,,,,,,,,3,A,2023-08-28_12h12.00.047,exp3,2022.2.2,
high_opac_v,0.01,1,0.01,3,0.82,3.5,0.01,0,0.01,4,5,Valid,1,41,121,start,lin,0.07037225124529917,0,0.07037225124529917,1,True,,,,,,,,,,,,3,A,2023-08-28_12h12.00.047,exp3,2022.2.2,
low_opac_i,0.4,1,0.01,3,0.82,3.5,0.01,0,0.01,4,5,Invalid,2,41,122,start,lin,0.07657547251369468,0.07657547251369468,0.07657547251369468,0,True,,,,,,,,,,,,3,A,2023-08-28_12h12.00.047,exp3,2022.2.2,
low_opac_v,0.4,1,0.01,3,0.82,3.5,0.01,0,0.01,4,5,Valid,0,42,123,start,lin,0.06628283634394327,0.06628283634394327,0.06628283634394327,0,True,,,,,,,,,,,,3,A,2023-08-28_12h12.00.047,exp3,2022.2.2,
high_opac_v,0.01,1,0.01,3,0.82,3.5,0.01,0,0.01,4,5,Valid,1,42,124,start,lin,0.06831942457708874,0,0.06831942457708874,1,True,,,,,,,,,,,,3,A,2023-08-28_12h12.00.047,exp3,2022.2.2,
low_opac_i,0.4,1,0.01,3,0.82,3.5,0.01,0,0.01,4,5,Invalid,2,42,125,start,lin,0.08543004646451136,0,0.08543004646451136,1,True,,,,,,,,,,,,3,A,2023-08-28_12h12.00.047,exp3,2022.2.2,
low_opac_i,0.4,1,0.01,3,0.82,3.5,0.01,0,0.01,4,5,Invalid,2,43,126,start,lin,0.0834958679769301,0,0.0834958679769301,1,True,,,,,,,,,,,,3,A,2023-08-28_12h12.00.047,exp3,2022.2.2,
high_opac_v,0.01,1,0.01,3,0.82,3.5,0.01,0,0.01,4,5,Valid,1,43,127,start,lin,0.06638352612602852,0.06638352612602852,0.06638352612602852,1,True,,,,,,,,,,,,3,A,2023-08-28_12h12.00.047,exp3,2022.2.2,
low_opac_v,0.4,1,0.01,3,0.82,3.5,0.01,0,0.01,4,5,Valid,0,43,128,start,lin,0.08277044740741424,0,0.08277044740741424,0,True,,,,,,,,,,,,3,A,2023-08-28_12h12.00.047,exp3,2022.2.2,
high_opac_v,0.01,1,0.01,3,0.82,3.5,0.01,0,0.01,4,5,Valid,1,44,129,start,lin,0.06453709357565564,0,0.06453709357565564,1,True,,,,,,,,,,,,3,A,2023-08-28_12h12.00.047,exp3,2022.2.2,
low_opac_i,0.4,1,0.01,3,0.82,3.5,0.01,0,0.01,4,5,Invalid,2,44,130,start,lin,0.08145179821982362,0,0.08145179821982362,0,True,,,,,,,,,,,,3,A,2023-08-28_12h12.00.047,exp3,2022.2.2,
low_opac_v,0.4,1,0.01,3,0.82,3.5,0.01,0,0.01,4,5,Valid,0,44,131,start,lin,0.09733461165805585,0.09733461165805585,0.09733461165805585,1,True,,,,,,,,,,,,3,A,2023-08-28_12h12.00.047,exp3,2022.2.2,
low_opac_i,0.4,1,0.01,3,0.82,3.5,0.01,0,0.01,4,5,Invalid,2,45,132,start,lin,0.08925881876520964,0,0.08925881876520964,0,True,,,,,,,,,,,,3,A,2023-08-28_12h12.00.047,exp3,2022.2.2,
low_opac_v,0.4,1,0.01,3,0.82,3.5,0.01,0,0.01,4,5,Valid,0,45,133,start,lin,0.09391385030256028,0.09391385030256028,0.09391385030256028,1,True,,,,,,,,,,,,3,A,2023-08-28_12h12.00.047,exp3,2022.2.2,
high_opac_v,0.01,1,0.01,3,0.82,3.5,0.01,0,0.01,4,5,Valid,1,45,134,start,lin,0.06259508548429603,0.06259508548429603,0.06259508548429603,1,True,,,,,,,,,,,,3,A,2023-08-28_12h12.00.047,exp3,2022.2.2,
low_opac_i,0.4,1,0.01,3,0.82,3.5,0.01,0,0.01,4,5,Invalid,2,46,135,start,lin,0.09693988348117549,0.09693988348117549,0.09693988348117549,0,True,,,,,,,,,,,,3,A,2023-08-28_12h12.00.047,exp3,2022.2.2,
low_opac_v,0.4,1,0.01,3,0.82,3.5,0.01,0,0.01,4,5,Valid,0,46,136,start,lin,0.09041860570620136,0.09041860570620136,0.09041860570620136,1,True,,,,,,,,,,,,3,A,2023-08-28_12h12.00.047,exp3,2022.2.2,
high_opac_v,0.01,1,0.01,3,0.82,3.5,0.01,0,0.01,4,5,Valid,1,46,137,start,lin,0.060693975423947145,0,0.060693975423947145,1,True,,,,,,,,,,,,3,A,2023-08-28_12h12.00.047,exp3,2022.2.2,
high_opac_v,0.01,1,0.01,3,0.82,3.5,0.01,0,0.01,4,5,Valid,1,47,138,start,lin,0.05882637691253325,0.05882637691253325,0.05882637691253325,1,True,,,,,,,,,,,,3,A,2023-08-28_12h12.00.047,exp3,2022.2.2,
low_opac_v,0.4,1,0.01,3,0.82,3.5,0.01,0,0.01,4,5,Valid,0,47,139,start,lin,0.08713761165326439,0.08713761165326439,0.08713761165326439,0,True,,,,,,,,,,,,3,A,2023-08-28_12h12.00.047,exp3,2022.2.2,
low_opac_i,0.4,1,0.01,3,0.82,3.5,0.01,0,0.01,4,5,Invalid,2,47,140,start,lin,0.10455314960018935,0,0.10455314960018935,0,True,,,,,,,,,,,,3,A,2023-08-28_12h12.00.047,exp3,2022.2.2,
low_opac_i,0.4,1,0.01,3,0.82,3.5,0.01,0,0.01,4,5,Invalid,2,48,141,start,lin,0.11157277915550451,0,0.11157277915550451,1,True,,,,,,,,,,,,3,A,2023-08-28_12h12.00.047,exp3,2022.2.2,
low_opac_v,0.4,1,0.01,3,0.82,3.5,0.01,0,0.01,4,5,Valid,0,48,142,start,lin,0.09994161283216013,0,0.09994161283216013,1,True,,,,,,,,,,,,3,A,2023-08-28_12h12.00.047,exp3,2022.2.2,
high_opac_v,0.01,1,0.01,3,0.82,3.5,0.01,0,0.01,4,5,Valid,1,48,143,start,lin,0.05705377409515441,0.05705377409515441,0.05705377409515441,0,True,,,,,,,,,,,,3,A,2023-08-28_12h12.00.047,exp3,2022.2.2,
high_opac_v,0.01,1,0.01,3,0.82,3.5,0.01,0,0.01,4,5,Valid,1,49,144,start,lin,0.0643792236417165,0.0643792236417165,0.0643792236417165,0,True,,,,,,,,,,,,3,A,2023-08-28_12h12.00.047,exp3,2022.2.2,
low_opac_v,0.4,1,0.01,3,0.82,3.5,0.01,0,0.01,4,5,Valid,0,49,145,start,lin,0.09695693556406892,0.09695693556406892,0.09695693556406892,1,True,,,,,,,,,,,,3,A,2023-08-28_12h12.00.047,exp3,2022.2.2,
low_opac_i,0.4,1,0.01,3,0.82,3.5,0.01,0,0.01,4,5,Invalid,2,49,146,start,lin,0.10978588384570992,0,0.10978588384570992,0,True,,,,,,,,,,,,3,A,2023-08-28_12h12.00.047,exp3,2022.2.2,
low_opac_v,0.4,1,0.01,3,0.82,3.5,0.01,0,0.01,4,5,Valid,0,50,147,start,lin,0.09417808347086287,0,0.09417808347086287,1,True,,,,,,,,,,,,3,A,2023-08-28_12h12.00.047,exp3,2022.2.2,
high_opac_v,0.01,1,0.01,3,0.82,3.5,0.01,0,0.01,4,5,Valid,1,50,148,start,lin,0.07105783765840493,0,0.07105783765840493,1,True,,,,,,,,,,,,3,A,2023-08-28_12h12.00.047,exp3,2022.2.2,
low_opac_i,0.4,1,0.01,3,0.82,3.5,0.01,0,0.01,4,5,Invalid,2,50,149,start,lin,0.11670582731759382,0,0.11670582731759382,1,True,,,,,,,,,,,,3,A,2023-08-28_12h12.00.047,exp3,2022.2.2,
low_opac_v,0.4,1,0.01,3,0.82,3.5,0.01,0,0.01,4,5,Valid,0,51,150,start,lin,0.09130729577385827,0,0.09130729577385827,0,True,,,,,,,,,,,,3,A,2023-08-28_12h12.00.047,exp3,2022.2.2,
high_opac_v,0.01,1,0.01,3,0.82,3.5,0.01,0,0.01,4,5,Valid,1,51,151,start,lin,0.06937510590482732,0,0.06937510590482732,0,True,,,,,,,,,,,,3,A,2023-08-28_12h12.00.047,exp3,2022.2.2,
low_opac_i,0.4,1,0.01,3,0.82,3.5,0.01,0,0.01,4,5,Invalid,2,51,152,start,lin,0.11511739810365118,0,0.11511739810365118,1,True,,,,,,,,,,,,3,A,2023-08-28_12h12.00.047,exp3,2022.2.2,
low_opac_v,0.4,1,0.01,3,0.82,3.5,0.01,0,0.01,4,5,Valid,0,52,153,start,lin,0.10206322722714722,0,0.10206322722714722,0,True,,,,,,,,,,,,3,A,2023-08-28_12h12.00.047,exp3,2022.2.2,
high_opac_v,0.01,1,0.01,3,0.82,3.5,0.01,0,0.01,4,5,Valid,1,52,154,start,lin,0.07594577921411497,0,0.07594577921411497,1,True,,,,,,,,,,,,3,A,2023-08-28_12h12.00.047,exp3,2022.2.2,
low_opac_i,0.4,1,0.01,3,0.82,3.5,0.01,0,0.01,4,5,Invalid,2,52,155,start,lin,0.11358519665284772,0,0.11358519665284772,1,True,,,,,,,,,,,,3,A,2023-08-28_12h12.00.047,exp3,2022.2.2,
high_opac_v,0.01,1,0.01,3,0.82,3.5,0.01,0,0.01,4,5,Valid,1,53,156,start,lin,0.07446970596385111,0,0.07446970596385111,1,True,,,,,,,,,,,,3,A,2023-08-28_12h12.00.047,exp3,2022.2.2,
low_opac_i,0.4,1,0.01,3,0.82,3.5,0.01,0,0.01,4,5,Invalid,2,53,157,start,lin,0.11195723846880645,0.11195723846880645,0.11195723846880645,1,True,,,,,,,,,,,,3,A,2023-08-28_12h12.00.047,exp3,2022.2.2,
low_opac_v,0.4,1,0.01,3,0.82,3.5,0.01,0,0.01,4,5,Valid,0,53,158,start,lin,0.11233501435846638,0.11233501435846638,0.11233501435846638,1,True,,,,,,,,,,,,3,A,2023-08-28_12h12.00.047,exp3,2022.2.2,
low_opac_i,0.4,1,0.01,3,0.82,3.5,0.01,0,0.01,4,5,Invalid,2,54,159,start,lin,0.1103517298115082,0.1103517298115082,0.1103517298115082,1,True,,,,,,,,,,,,3,A,2023-08-28_12h12.00.047,exp3,2022.2.2,
high_opac_v,0.01,1,0.01,3,0.82,3.5,0.01,0,0.01,4,5,Valid,1,54,160,start,lin,0.07290691765435989,0,0.07290691765435989,1,True,,,,,,,,,,,,3,A,2023-08-28_12h12.00.047,exp3,2022.2.2,
low_opac_v,0.4,1,0.01,3,0.82,3.5,0.01,0,0.01,4,5,Valid,0,54,161,start,lin,0.10977128341237269,0.10977128341237269,0.10977128341237269,1,True,,,,,,,,,,,,3,A,2023-08-28_12h12.00.047,exp3,2022.2.2,
low_opac_v,0.4,1,0.01,3,0.82,3.5,0.01,0,0.01,4,5,Valid,0,55,162,start,lin,0.10735205781339602,0.10735205781339602,0.10735205781339602,1,True,,,,,,,,,,,,3,A,2023-08-28_12h12.00.047,exp3,2022.2.2,
high_opac_v,0.01,1,0.01,3,0.82,3.5,0.01,0,0.01,4,5,Valid,1,55,163,start,lin,0.07137129920696163,0.07137129920696163,0.07137129920696163,1,True,,,,,,,,,,,,3,A,2023-08-28_12h12.00.047,exp3,2022.2.2,
low_opac_i,0.4,1,0.01,3,0.82,3.5,0.01,0,0.01,4,5,Invalid,2,55,164,start,lin,0.10878384951388886,0.10878384951388886,0.10878384951388886,1,True,,,,,,,,,,,,3,A,2023-08-28_12h12.00.047,exp3,2022.2.2,
low_opac_v,0.4,1,0.01,3,0.82,3.5,0.01,0,0.01,4,5,Valid,0,56,165,start,lin,0.10508201154801611,0,0.10508201154801611,1,True,,,,,,,,,,,,3,A,2023-08-28_12h12.00.047,exp3,2022.2.2,
high_opac_v,0.01,1,0.01,3,0.82,3.5,0.01,0,0.01,4,5,Valid,1,56,166,start,lin,0.06984654457323561,0.06984654457323561,0.06984654457323561,0,True,,,,,,,,,,,,3,A,2023-08-28_12h12.00.047,exp3,2022.2.2,
low_opac_i,0.4,1,0.01,3,0.82,3.5,0.01,0,0.01,4,5,Invalid,2,56,167,start,lin,0.1072982532891732,0.1072982532891732,0.1072982532891732,1,True,,,,,,,,,,,,3,A,2023-08-28_12h12.00.047,exp3,2022.2.2,
low_opac_v,0.4,1,0.01,3,0.82,3.5,0.01,0,0.01,4,5,Valid,0,57,168,start,lin,0.102919285310003,0,0.102919285310003,0,True,,,,,,,,,,,,3,A,2023-08-28_12h12.00.047,exp3,2022.2.2,
low_opac_i,0.4,1,0.01,3,0.82,3.5,0.01,0,0.01,4,5,Invalid,2,57,169,start,lin,0.10587869869647909,0.10587869869647909,0.10587869869647909,1,True,,,,,,,,,,,,3,A,2023-08-28_12h12.00.047,exp3,2022.2.2,
high_opac_v,0.01,1,0.01,3,0.82,3.5,0.01,0,0.01,4,5,Valid,1,57,170,start,lin,0.07578470350236897,0,0.07578470350236897,0,True,,,,,,,,,,,,3,A,2023-08-28_12h12.00.047,exp3,2022.2.2,
high_opac_v,0.01,1,0.01,3,0.82,3.5,0.01,0,0.01,4,5,Valid,1,58,171,start,lin,0.08180497977600436,0,0.08180497977600436,0,True,,,,,,,,,,,,3,A,2023-08-28_12h12.00.047,exp3,2022.2.2,
low_opac_v,0.4,1,0.01,3,0.82,3.5,0.01,0,0.01,4,5,Valid,0,58,172,start,lin,0.11173546442528326,0.11173546442528326,0.11173546442528326,1,True,,,,,,,,,,,,3,A,2023-08-28_12h12.00.047,exp3,2022.2.2,
low_opac_i,0.4,1,0.01,3,0.82,3.5,0.01,0,0.01,4,5,Invalid,2,58,173,start,lin,0.10450970125075876,0,0.10450970125075876,0,True,,,,,,,,,,,,3,A,2023-08-28_12h12.00.047,exp3,2022.2.2,
low_opac_v,0.4,1,0.01,3,0.82,3.5,0.01,0,0.01,4,5,Valid,0,59,174,start,lin,0.10952421192359452,0,0.10952421192359452,0,True,,,,,,,,,,,,3,A,2023-08-28_12h12.00.047,exp3,2022.2.2,
low_opac_i,0.4,1,0.01,3,0.82,3.5,0.01,0,0.01,4,5,Invalid,2,59,175,start,lin,0.1101443096082193,0,0.1101443096082193,1,True,,,,,,,,,,,,3,A,2023-08-28_12h12.00.047,exp3,2022.2.2,
high_opac_v,0.01,1,0.01,3,0.82,3.5,0.01,0,0.01,4,5,Valid,1,59,176,start,lin,0.08733207729758422,0.08733207729758422,0.08733207729758422,1,True,,,,,,,,,,,,3,A,2023-08-28_12h12.00.047,exp3,2022.2.2,
high_opac_v,0.01,1,0.01,3,0.82,3.5,0.01,0,0.01,4,5,Valid,1,60,177,start,lin,0.0860261404505105,0.0860261404505105,0.0860261404505105,1,True,,,,,,,,,,,,3,A,2023-08-28_12h12.00.047,exp3,2022.2.2,
low_opac_v,0.4,1,0.01,3,0.82,3.5,0.01,0,0.01,4,5,Valid,0,60,178,start,lin,0.11804322478312257,0,0.11804322478312257,1,True,,,,,,,,,,,,3,A,2023-08-28_12h12.00.047,exp3,2022.2.2,
low_opac_i,0.4,1,0.01,3,0.82,3.5,0.01,0,0.01,4,5,Invalid,2,60,179,start,lin,0.10871715254932385,0,0.10871715254932385,0,True,,,,,,,,,,,,3,A,2023-08-28_12h12.00.047,exp3,2022.2.2,
low_opac_v,0.4,1,0.01,3,0.82,3.5,0.01,0,0.01,4,5,Valid,0,61,180,start,lin,0.11605755124497574,0.11605755124497574,0.11605755124497574,1,True,,,,,,,,,,,,3,A,2023-08-28_12h12.00.047,exp3,2022.2.2,
high_opac_v,0.01,1,0.01,3,0.82,3.5,0.01,0,0.01,4,5,Valid,1,61,181,start,lin,0.08476507068732769,0.08476507068732769,0.08476507068732769,1,True,,,,,,,,,,,,3,A,2023-08-28_12h12.00.047,exp3,2022.2.2,
low_opac_i,0.4,1,0.01,3,0.82,3.5,0.01,0,0.01,4,5,Invalid,2,61,182,start,lin,0.11442865449604717,0,0.11442865449604717,1,True,,,,,,,,,,,,3,A,2023-08-28_12h12.00.047,exp3,2022.2.2,
low_opac_i,0.4,1,0.01,3,0.82,3.5,0.01,0,0.01,4,5,Invalid,2,62,183,start,lin,0.11305814605303477,0,0.11305814605303477,1,True,,,,,,,,,,,,3,A,2023-08-28_12h12.00.047,exp3,2022.2.2,
high_opac_v,0.01,1,0.01,3,0.82,3.5,0.01,0,0.01,4,5,Valid,1,62,184,start,lin,0.08342757073745072,0,0.08342757073745072,0,True,,,,,,,,,,,,3,A,2023-08-28_12h12.00.047,exp3,2022.2.2,
low_opac_v,0.4,1,0.01,3,0.82,3.5,0.01,0,0.01,4,5,Valid,0,62,185,start,lin,0.11416648365486537,0,0.11416648365486537,0,True,,,,,,,,,,,,3,A,2023-08-28_12h12.00.047,exp3,2022.2.2,
low_opac_i,0.4,1,0.01,3,0.82,3.5,0.01,0,0.01,4,5,Invalid,2,63,186,start,lin,0.11170924028513479,0,0.11170924028513479,0,True,,,,,,,,,,,,3,A,2023-08-28_12h12.00.047,exp3,2022.2.2,
high_opac_v,0.01,1,0.01,3,0.82,3.5,0.01,0,0.01,4,5,Valid,1,63,187,start,lin,0.08853103430236592,0.08853103430236592,0.08853103430236592,0,True,,,,,,,,,,,,3,A,2023-08-28_12h12.00.047,exp3,2022.2.2,
low_opac_v,0.4,1,0.01,3,0.82,3.5,0.01,0,0.01,4,5,Valid,0,63,188,start,lin,0.12183364183409534,0.12183364183409534,0.12183364183409534,1,True,,,,,,,,,,,,3,A,2023-08-28_12h12.00.047,exp3,2022.2.2,
low_opac_i,0.4,1,0.01,3,0.82,3.5,0.01,0,0.01,4,5,Invalid,2,64,189,start,lin,0.11691174088658995,0.11691174088658995,0.11691174088658995,1,True,,,,,,,,,,,,3,A,2023-08-28_12h12.00.047,exp3,2022.2.2,
low_opac_v,0.4,1,0.01,3,0.82,3.5,0.01,0,0.01,4,5,Valid,0,64,190,start,lin,0.11988798805751211,0.11988798805751211,0.11988798805751211,1,True,,,,,,,,,,,,3,A,2023-08-28_12h12.00.047,exp3,2022.2.2,
high_opac_v,0.01,1,0.01,3,0.82,3.5,0.01,0,0.01,4,5,Valid,1,64,191,start,lin,0.09385015239982114,0,0.09385015239982114,0,True,,,,,,,,,,,,3,A,2023-08-28_12h12.00.047,exp3,2022.2.2,
low_opac_i,0.4,1,0.01,3,0.82,3.5,0.01,0,0.01,4,5,Invalid,2,65,192,start,lin,0.11568983190591686,0.11568983190591686,0.11568983190591686,1,True,,,,,,,,,,,,3,A,2023-08-28_12h12.00.047,exp3,2022.2.2,
high_opac_v,0.01,1,0.01,3,0.82,3.5,0.01,0,0.01,4,5,Valid,1,65,193,start,lin,0.09877299836939744,0.09877299836939744,0.09877299836939744,1,True,,,,,,,,,,,,3,A,2023-08-28_12h12.00.047,exp3,2022.2.2,
low_opac_v,0.4,1,0.01,3,0.82,3.5,0.01,0,0.01,4,5,Valid,0,65,194,start,lin,0.11802779757835619,0.11802779757835619,0.11802779757835619,1,True,,,,,,,,,,,,3,A,2023-08-28_12h12.00.047,exp3,2022.2.2,
low_opac_i,0.4,1,0.01,3,0.82,3.5,0.01,0,0.01,4,5,Invalid,2,66,195,start,lin,0.11450594625803606,0,0.11450594625803606,1,True,,,,,,,,,,,,3,A,2023-08-28_12h12.00.047,exp3,2022.2.2,
high_opac_v,0.01,1,0.01,3,0.82,3.5,0.01,0,0.01,4,5,Valid,1,66,196,start,lin,0.0975550376306912,0,0.0975550376306912,0,True,,,,,,,,,,,,3,A,2023-08-28_12h12.00.047,exp3,2022.2.2,
low_opac_v,0.4,1,0.01,3,0.82,3.5,0.01,0,0.01,4,5,Valid,0,66,197,start,lin,0.11627025938701141,0,0.11627025938701141,0,True,,,,,,,,,,,,3,A,2023-08-28_12h12.00.047,exp3,2022.2.2,
high_opac_v,0.01,1,0.01,3,0.82,3.5,0.01,0,0.01,4,5,Valid,1,67,198,start,lin,0.10269302154425093,0.10269302154425093,0.10269302154425093,1,True,,,,,,,,,,,,3,A,2023-08-28_12h12.00.047,exp3,2022.2.2,
low_opac_v,0.4,1,0.01,3,0.82,3.5,0.01,0,0.01,4,5,Valid,0,67,199,start,lin,0.12368744335037046,0,0.12368744335037046,1,True,,,,,,,,,,,,3,A,2023-08-28_12h12.00.047,exp3,2022.2.2,
low_opac_i,0.4,1,0.01,3,0.82,3.5,0.01,0,0.01,4,5,Invalid,2,67,200,start,lin,0.11324632895246006,0.11324632895246006,0.11324632895246006,1,True,,,,,,,,,,,,3,A,2023-08-28_12h12.00.047,exp3,2022.2.2,
high_opac_v,0.01,1,0.01,3,0.82,3.5,0.01,0,0.01,4,5,Valid,1,68,201,start,lin,0.10147449094028328,0,0.10147449094028328,0,True,,,,,,,,,,,,3,A,2023-08-28_12h12.00.047,exp3,2022.2.2,
low_opac_v,0.4,1,0.01,3,0.82,3.5,0.01,0,0.01,4,5,Valid,0,68,202,start,lin,0.12192521204481704,0,0.12192521204481704,1,True,,,,,,,,,,,,3,A,2023-08-28_12h12.00.047,exp3,2022.2.2,
low_opac_i,0.4,1,0.01,3,0.82,3.5,0.01,0,0.01,4,5,Invalid,2,68,203,start,lin,0.11200529614405602,0.11200529614405602,0.11200529614405602,1,True,,,,,,,,,,,,3,A,2023-08-28_12h12.00.047,exp3,2022.2.2,
high_opac_v,0.01,1,0.01,3,0.82,3.5,0.01,0,0.01,4,5,Valid,1,69,204,start,lin,0.10619146923154976,0.10619146923154976,0.10619146923154976,1,True,,,,,,,,,,,,3,A,2023-08-28_12h12.00.047,exp3,2022.2.2,
low_opac_v,0.4,1,0.01,3,0.82,3.5,0.01,0,0.01,4,5,Valid,0,69,205,start,lin,0.12019139659944561,0,0.12019139659944561,0,True,,,,,,,,,,,,3,A,2023-08-28_12h12.00.047,exp3,2022.2.2,
low_opac_i,0.4,1,0.01,3,0.82,3.5,0.01,0,0.01,4,5,Invalid,2,69,206,start,lin,0.11077201918073953,0.11077201918073953,0.11077201918073953,0,True,,,,,,,,,,,,3,A,2023-08-28_12h12.00.047,exp3,2022.2.2,
low_opac_v,0.4,1,0.01,3,0.82,3.5,0.01,0,0.01,4,5,Valid,0,70,207,start,lin,0.12689254851621312,0,0.12689254851621312,1,True,,,,,,,,,,,,3,A,2023-08-28_12h12.00.047,exp3,2022.2.2,
high_opac_v,0.01,1,0.01,3,0.82,3.5,0.01,0,0.01,4,5,Valid,1,70,208,start,lin,0.10509644099427734,0,0.10509644099427734,1,True,,,,,,,,,,,,3,A,2023-08-28_12h12.00.047,exp3,2022.2.2,
low_opac_i,0.4,1,0.01,3,0.82,3.5,0.01,0,0.01,4,5,Invalid,2,70,209,start,lin,0.11556929408411876,0,0.11556929408411876,0,True,,,,,,,,,,,,3,A,2023-08-28_12h12.00.047,exp3,2022.2.2,
low_opac_i,0.4,1,0.01,3,0.82,3.5,0.01,0,0.01,4,5,Invalid,2,71,210,start,lin,0.1205378021077127,0,0.1205378021077127,1,True,,,,,,,,,,,,3,A,2023-08-28_12h12.00.047,exp3,2022.2.2,
high_opac_v,0.01,1,0.01,3,0.82,3.5,0.01,0,0.01,4,5,Valid,1,71,211,start,lin,0.10402946905992098,0.10402946905992098,0.10402946905992098,0,True,,,,,,,,,,,,3,A,2023-08-28_12h12.00.047,exp3,2022.2.2,
low_opac_v,0.4,1,0.01,3,0.82,3.5,0.01,0,0.01,4,5,Valid,0,71,212,start,lin,0.12534480860512953,0,0.12534480860512953,0,True,,,,,,,,,,,,3,A,2023-08-28_12h12.00.047,exp3,2022.2.2,
low_opac_v,0.4,1,0.01,3,0.82,3.5,0.01,0,0.01,4,5,Valid,0,72,213,start,lin,0.13206881476247911,0,0.13206881476247911,1,True,,,,,,,,,,,,3,A,2023-08-28_12h12.00.047,exp3,2022.2.2,
high_opac_v,0.01,1,0.01,3,0.82,3.5,0.01,0,0.01,4,5,Valid,1,72,214,start,lin,0.10846085580322569,0.10846085580322569,0.10846085580322569,1,True,,,,,,,,,,,,3,A,2023-08-28_12h12.00.047,exp3,2022.2.2,
low_opac_i,0.4,1,0.01,3,0.82,3.5,0.01,0,0.01,4,5,Invalid,2,72,215,start,lin,0.11934560850325454,0,0.11934560850325454,1,True,,,,,,,,,,,,3,A,2023-08-28_12h12.00.047,exp3,2022.2.2,
high_opac_v,0.01,1,0.01,3,0.82,3.5,0.01,0,0.01,4,5,Valid,1,73,216,start,lin,0.10736588879260876,0,0.10736588879260876,0,True,,,,,,,,,,,,3,A,2023-08-28_12h12.00.047,exp3,2022.2.2,
low_opac_i,0.4,1,0.01,3,0.82,3.5,0.01,0,0.01,4,5,Invalid,2,73,217,start,lin,0.11820610320486397,0,0.11820610320486397,0,True,,,,,,,,,,,,3,A,2023-08-28_12h12.00.047,exp3,2022.2.2,
low_opac_v,0.4,1,0.01,3,0.82,3.5,0.01,0,0.01,4,5,Valid,0,73,218,start,lin,0.13047285743565984,0,0.13047285743565984,1,True,,,,,,,,,,,,3,A,2023-08-28_12h12.00.047,exp3,2022.2.2,
low_opac_v,0.4,1,0.01,3,0.82,3.5,0.01,0,0.01,4,5,Valid,0,74,219,start,lin,0.12891093629166106,0,0.12891093629166106,0,True,,,,,,,,,,,,3,A,2023-08-28_12h12.00.047,exp3,2022.2.2,
high_opac_v,0.01,1,0.01,3,0.82,3.5,0.01,0,0.01,4,5,Valid,1,74,220,start,lin,0.11205152510164879,0,0.11205152510164879,0,True,,,,,,,,,,,,3,A,2023-08-28_12h12.00.047,exp3,2022.2.2,
low_opac_i,0.4,1,0.01,3,0.82,3.5,0.01,0,0.01,4,5,Invalid,2,74,221,start,lin,0.12293255589808233,0.12293255589808233,0.12293255589808233,1,True,,,,,,,,,,,,3,A,2023-08-28_12h12.00.047,exp3,2022.2.2,
low_opac_i,0.4,1,0.01,3,0.82,3.5,0.01,0,0.01,4,5,Invalid,2,75,222,start,lin,0.12181395877180684,0.12181395877180684,0.12181395877180684,1,True,,,,,,,,,,,,3,A,2023-08-28_12h12.00.047,exp3,2022.2.2,
high_opac_v,0.01,1,0.01,3,0.82,3.5,0.01,0,0.01,4,5,Valid,1,75,223,start,lin,0.11637436012767863,0.11637436012767863,0.11637436012767863,0,True,,,,,,,,,,,,3,A,2023-08-28_12h12.00.047,exp3,2022.2.2,
low_opac_v,0.4,1,0.01,3,0.82,3.5,0.01,0,0.01,4,5,Valid,0,75,224,start,lin,0.135094289163541,0.135094289163541,0.135094289163541,0,True,,,,,,,,,,,,3,A,2023-08-28_12h12.00.047,exp3,2022.2.2,
,,,,,,,,,,,,,,,,,,,,,,,0,1158,Invalid,noise,0,1,937.9349709000671,0,1.0,9.16446429991629,True,3,A,2023-08-28_12h12.00.047,exp3,2022.2.2,
,,,,,,,,,,,,,,,,,,,,,,,0,1158,Valid,noise,0,2,946.158171899966,1,2.0,3.046093999990262,True,3,A,2023-08-28_12h12.00.047,exp3,2022.2.2,
,,,,,,,,,,,,,,,,,,,,,,,0,1158,Valid,noise,0,2,950.0462737999624,1,3.0,3.313139299978502,True,3,A,2023-08-28_12h12.00.047,exp3,2022.2.2,
,,,,,,,,,,,,,,,,,,,,,,,0,-1158,Valid,signal,0,1,954.1583050000481,1,4.0,2.84624270000495,True,3,A,2023-08-28_12h12.00.047,exp3,2022.2.2,
,,,,,,,,,,,,,,,,,,,,,,,0,-1158,Valid,signal,0,1,957.8868195000105,1,4.0,2.563246500096284,True,3,A,2023-08-28_12h12.00.047,exp3,2022.2.2,
,,,,,,,,,,,,,,,,,,,,,,,0,-557,Valid,signal,0,1,962.5268958000233,1,4.0,3.7127659999532625,True,3,A,2023-08-28_12h12.00.047,exp3,2022.2.2,
,,,,,,,,,,,,,,,,,,,,,,,0,-2274,Valid,signal,0,1,967.1663958000718,1,1.0,3.9796951999887824,True,3,A,2023-08-28_12h12.00.047,exp3,2022.2.2,
,,,,,,,,,,,,,,,,,,,,,,,0,2274,Valid,noise,0,2,971.8223815000383,1,2.0,3.2804279000265524,True,3,A,2023-08-28_12h12.00.047,exp3,2022.2.2,
,,,,,,,,,,,,,,,,,,,,,,,0,-1716,Valid,signal,0,1,975.550019599963,1,3.0,2.8454281000886112,True,3,A,2023-08-28_12h12.00.047,exp3,2022.2.2,
,,,,,,,,,,,,,,,,,,,,,,,0,1716,Valid,signal,0,1,979.6461044000462,1,3.0,2.7797949999803677,True,3,A,2023-08-28_12h12.00.047,exp3,2022.2.2,
,,,,,,,,,,,,,,,,,,,,,,,0,1716,Valid,noise,0,2,983.8229291000171,1,1.0,3.4962425000267103,True,3,A,2023-08-28_12h12.00.047,exp3,2022.2.2,
,,,,,,,,,,,,,,,,,,,,,,,0,-2274,Invalid,noise,0,1,987.9030529999873,0,2.0,3.2628384000854567,True,3,A,2023-08-28_12h12.00.047,exp3,2022.2.2,
,,,,,,,,,,,,,,,,,,,,,,,0,-1158,Invalid,noise,0,2,992.6071496000513,1,2.0,3.446890400024131,True,3,A,2023-08-28_12h12.00.047,exp3,2022.2.2,
,,,,,,,,,,,,,,,,,,,,,,,0,-1716,Valid,signal,0,1,996.1905504000606,1,3.0,2.862913699937053,True,3,A,2023-08-28_12h12.00.047,exp3,2022.2.2,
,,,,,,,,,,,,,,,,,,,,,,,0,557,Valid,noise,0,2,1000.5262321999762,1,3.0,3.146748000057414,True,3,A,2023-08-28_12h12.00.047,exp3,2022.2.2,
,,,,,,,,,,,,,,,,,,,,,,,0,-1716,Invalid,signal,0,2,1006.2389606999932,0,1.0,5.063289199955761,True,3,A,2023-08-28_12h12.00.047,exp3,2022.2.2,
,,,,,,,,,,,,,,,,,,,,,,,0,557,Valid,signal,0,2,1011.7106009999989,0,3.0,4.213839499978349,True,3,A,2023-08-28_12h12.00.047,exp3,2022.2.2,
,,,,,,,,,,,,,,,,,,,,,,,0,1158,Valid,signal,0,1,1015.9189042999642,1,2.0,2.929654199979268,True,3,A,2023-08-28_12h12.00.047,exp3,2022.2.2,
,,,,,,,,,,,,,,,,,,,,,,,0,-1158,Valid,noise,0,1,1019.3908092000056,0,3.0,2.39546769997105,True,3,A,2023-08-28_12h12.00.047,exp3,2022.2.2,
,,,,,,,,,,,,,,,,,,,,,,,0,557,Valid,signal,0,2,1024.975083300029,0,2.0,5.064177800086327,True,3,A,2023-08-28_12h12.00.047,exp3,2022.2.2,
,,,,,,,,,,,,,,,,,,,,,,,0,-557,Valid,signal,0,1,1029.3747691999888,1,2.0,3.212741900002584,True,3,A,2023-08-28_12h12.00.047,exp3,2022.2.2,
,,,,,,,,,,,,,,,,,,,,,,,0,-1158,Valid,signal,0,1,1032.989890399971,1,3.0,2.679748800001107,True,3,A,2023-08-28_12h12.00.047,exp3,2022.2.2,
,,,,,,,,,,,,,,,,,,,,,,,0,-1716,Valid,noise,0,1,1037.1506037999643,0,2.0,3.0797141999937594,True,3,A,2023-08-28_12h12.00.047,exp3,2022.2.2,
,,,,,,,,,,,,,,,,,,,,,,,0,-557,Valid,noise,0,1,1042.2382905000122,0,2.0,3.7136093999724835,True,3,A,2023-08-28_12h12.00.047,exp3,2022.2.2,
,,,,,,,,,,,,,,,,,,,,,,,0,-2274,Invalid,signal,0,2,1046.894999800017,0,2.0,3.963721300009638,True,3,A,2023-08-28_12h12.00.047,exp3,2022.2.2,
,,,,,,,,,,,,,,,,,,,,,,,0,-557,Valid,signal,0,1,1050.7671571000246,1,3.0,3.2960706999292597,True,3,A,2023-08-28_12h12.00.047,exp3,2022.2.2,
,,,,,,,,,,,,,,,,,,,,,,,0,-2274,Valid,signal,0,1,1054.9749557999894,1,1.0,3.0128708999836817,True,3,A,2023-08-28_12h12.00.047,exp3,2022.2.2,
,,,,,,,,,,,,,,,,,,,,,,,0,-1158,Invalid,signal,0,1,1059.966249500052,1,2.0,3.913071900024079,True,3,A,2023-08-28_12h12.00.047,exp3,2022.2.2,
,,,,,,,,,,,,,,,,,,,,,,,0,-1158,Valid,signal,0,1,1063.9191314000636,1,3.0,2.4297028000000864,True,3,A,2023-08-28_12h12.00.047,exp3,2022.2.2,
,,,,,,,,,,,,,,,,,,,,,,,0,-557,Invalid,signal,0,1,1067.9986855000025,1,4.0,3.6299943999620155,True,3,A,2023-08-28_12h12.00.047,exp3,2022.2.2,
,,,,,,,,,,,,,,,,,,,,,,,0,-1716,Valid,signal,0,1,1072.3819046000717,1,3.0,3.0457483999198303,True,3,A,2023-08-28_12h12.00.047,exp3,2022.2.2,
,,,,,,,,,,,,,,,,,,,,,,,0,2274,Valid,signal,0,2,1076.5909085000167,0,2.0,3.1802443000487983,True,3,A,2023-08-28_12h12.00.047,exp3,2022.2.2,
,,,,,,,,,,,,,,,,,,,,,,,0,-1158,Valid,noise,0,1,1080.3502223000396,0,2.0,3.679969299933873,True,3,A,2023-08-28_12h12.00.047,exp3,2022.2.2,
,,,,,,,,,,,,,,,,,,,,,,,0,1158,Valid,noise,0,2,1085.2151231999742,1,1.0,3.0299494999926537,True,3,A,2023-08-28_12h12.00.047,exp3,2022.2.2,
,,,,,,,,,,,,,,,,,,,,,,,0,-1716,Valid,noise,0,1,1089.006513100001,0,2.0,2.528765199938789,True,3,A,2023-08-28_12h12.00.047,exp3,2022.2.2,
,,,,,,,,,,,,,,,,,,,,,,,0,-2274,Valid,noise,0,1,1092.8621033000527,0,1.0,2.9956023999257013,True,3,A,2023-08-28_12h12.00.047,exp3,2022.2.2,
,,,,,,,,,,,,,,,,,,,,,,,0,-2274,Valid,noise,0,1,1097.1667702000123,0,1.0,3.079883600003086,True,3,A,2023-08-28_12h12.00.047,exp3,2022.2.2,
,,,,,,,,,,,,,,,,,,,,,,,0,-557,Invalid,signal,0,1,1101.470622300054,1,2.0,4.196965200011618,True,3,A,2023-08-28_12h12.00.047,exp3,2022.2.2,
,,,,,,,,,,,,,,,,,,,,,,,0,-2274,Valid,signal,0,1,1106.766976300045,1,1.0,4.096205300069414,True,3,A,2023-08-28_12h12.00.047,exp3,2022.2.2,
,,,,,,,,,,,,,,,,,,,,,,,0,1716,Valid,noise,0,1,1110.8459547000239,0,2.0,2.829443500027992,True,3,A,2023-08-28_12h12.00.047,exp3,2022.2.2,
,,,,,,,,,,,,,,,,,,,,,,,0,-1716,Valid,signal,0,1,1114.7822487000376,1,2.0,3.2134277999866754,True,3,A,2023-08-28_12h12.00.047,exp3,2022.2.2,
,,,,,,,,,,,,,,,,,,,,,,,0,-1716,Valid,signal,0,1,1118.7192371999845,1,3.0,2.279753099894151,True,3,A,2023-08-28_12h12.00.047,exp3,2022.2.2,
,,,,,,,,,,,,,,,,,,,,,,,0,2274,Valid,noise,0,2,1122.5582768999739,1,1.0,3.479780300054699,True,3,A,2023-08-28_12h12.00.047,exp3,2022.2.2,
,,,,,,,,,,,,,,,,,,,,,,,0,557,Valid,noise,0,2,1127.7745641999645,1,1.0,4.06310910009779,True,3,A,2023-08-28_12h12.00.047,exp3,2022.2.2,
,,,,,,,,,,,,,,,,,,,,,,,0,557,Valid,noise,0,2,1132.5259181000292,1,2.0,3.7629630001029,True,3,A,2023-08-28_12h12.00.047,exp3,2022.2.2,
,,,,,,,,,,,,,,,,,,,,,,,0,-557,Valid,noise,0,2,1137.8865666000638,1,2.0,4.447478099958971,True,3,A,2023-08-28_12h12.00.047,exp3,2022.2.2,
,,,,,,,,,,,,,,,,,,,,,,,0,1158,Invalid,signal,0,1,1141.9026085999794,1,2.0,3.1459728999761865,True,3,A,2023-08-28_12h12.00.047,exp3,2022.2.2,
,,,,,,,,,,,,,,,,,,,,,,,0,1158,Valid,noise,0,2,1146.3509820000036,1,2.0,2.7796172000234947,True,3,A,2023-08-28_12h12.00.047,exp3,2022.2.2,
,,,,,,,,,,,,,,,,,,,,,,,0,1716,Valid,signal,0,1,1150.1267315000296,1,2.0,3.3296064999885857,True,3,A,2023-08-28_12h12.00.047,exp3,2022.2.2,
,,,,,,,,,,,,,,,,,,,,,,,0,-557,Valid,noise,0,2,1154.669883399969,1,2.0,3.2966953000286594,True,3,A,2023-08-28_12h12.00.047,exp3,2022.2.2,
,,,,,,,,,,,,,,,,,,,,,,,0,1158,Valid,signal,0,1,1158.3991874000058,1,3.0,2.7368773999623954,True,3,A,2023-08-28_12h12.00.047,exp3,2022.2.2,
,,,,,,,,,,,,,,,,,,,,,,,0,2274,Valid,noise,0,2,1163.1984993000515,1,1.0,3.6714924999978393,True,3,A,2023-08-28_12h12.00.047,exp3,2022.2.2,
,,,,,,,,,,,,,,,,,,,,,,,0,2274,Valid,signal,0,2,1167.4067034999607,0,1.0,2.879067000001669,True,3,A,2023-08-28_12h12.00.047,exp3,2022.2.2,
,,,,,,,,,,,,,,,,,,,,,,,0,-1158,Valid,noise,0,2,1171.6459565999685,1,1.0,3.4130948000820354,True,3,A,2023-08-28_12h12.00.047,exp3,2022.2.2,
,,,,,,,,,,,,,,,,,,,,,,,0,557,Invalid,signal,0,1,1176.3343693000497,1,1.0,3.6961334000807256,True,3,A,2023-08-28_12h12.00.047,exp3,2022.2.2,
,,,,,,,,,,,,,,,,,,,,,,,0,-2274,Valid,noise,0,1,1180.8150048999814,0,1.0,3.3466102000093088,True,3,A,2023-08-28_12h12.00.047,exp3,2022.2.2,
,,,,,,,,,,,,,,,,,,,,,,,0,2274,Invalid,signal,0,1,1184.2857980000554,1,1.0,2.496051000081934,True,3,A,2023-08-28_12h12.00.047,exp3,2022.2.2,
,,,,,,,,,,,,,,,,,,,,,,,0,1158,Valid,signal,0,1,1187.9978304000106,1,2.0,2.8465341998962685,True,3,A,2023-08-28_12h12.00.047,exp3,2022.2.2,
,,,,,,,,,,,,,,,,,,,,,,,0,557,Invalid,noise,0,1,1192.7661807000404,0,1.0,4.1290648999856785,True,3,A,2023-08-28_12h12.00.047,exp3,2022.2.2,
,,,,,,,,,,,,,,,,,,,,,,,0,-1158,Valid,signal,0,1,1196.686616400024,1,3.0,2.5954206000315025,True,3,A,2023-08-28_12h12.00.047,exp3,2022.2.2,
,,,,,,,,,,,,,,,,,,,,,,,0,1716,Valid,noise,0,1,1200.8618518000003,0,2.0,2.862788400030695,True,3,A,2023-08-28_12h12.00.047,exp3,2022.2.2,
,,,,,,,,,,,,,,,,,,,,,,,0,1158,Valid,signal,0,1,1204.2862679000245,1,2.0,2.346287399996072,True,3,A,2023-08-28_12h12.00.047,exp3,2022.2.2,
,,,,,,,,,,,,,,,,,,,,,,,0,1716,Valid,noise,0,1,1207.6791331999702,0,2.0,2.3632328000385314,True,3,A,2023-08-28_12h12.00.047,exp3,2022.2.2,
,,,,,,,,,,,,,,,,,,,,,,,0,-557,Invalid,noise,0,2,1213.0871587999864,1,1.0,4.579783499939367,True,3,A,2023-08-28_12h12.00.047,exp3,2022.2.2,
,,,,,,,,,,,,,,,,,,,,,,,0,1158,Valid,noise,0,2,1217.246409000014,1,1.0,3.1794706999789923,True,3,A,2023-08-28_12h12.00.047,exp3,2022.2.2,
,,,,,,,,,,,,,,,,,,,,,,,0,-557,Valid,signal,0,1,1221.0709560000105,1,1.0,3.179860199918039,True,3,A,2023-08-28_12h12.00.047,exp3,2022.2.2,
,,,,,,,,,,,,,,,,,,,,,,,0,-2274,Valid,signal,0,2,1225.5031123000663,0,1.0,3.5464172000065446,True,3,A,2023-08-28_12h12.00.047,exp3,2022.2.2,
,,,,,,,,,,,,,,,,,,,,,,,0,-2274,Valid,noise,0,1,1230.4297459999798,0,1.0,3.313146200031042,True,3,A,2023-08-28_12h12.00.047,exp3,2022.2.2,
,,,,,,,,,,,,,,,,,,,,,,,0,2274,Valid,signal,0,2,1234.9737714000512,0,1.0,3.513465099968016,True,3,A,2023-08-28_12h12.00.047,exp3,2022.2.2,
,,,,,,,,,,,,,,,,,,,,,,,0,1716,Valid,signal,0,1,1238.4143863000209,1,3.0,2.8294849999947473,True,3,A,2023-08-28_12h12.00.047,exp3,2022.2.2,
,,,,,,,,,,,,,,,,,,,,,,,0,1158,Valid,noise,0,2,1243.8537826000247,1,1.0,6.464000899926759,True,3,A,2023-08-28_12h12.00.047,exp3,2022.2.2,
,,,,,,,,,,,,,,,,,,,,,,,0,-1716,Valid,noise,0,2,1250.2546854000539,1,2.0,2.9969180000480264,True,3,A,2023-08-28_12h12.00.047,exp3,2022.2.2,
,,,,,,,,,,,,,,,,,,,,,,,0,-1716,Invalid,noise,0,1,1254.4309974999633,0,2.0,3.329449399956502,True,3,A,2023-08-28_12h12.00.047,exp3,2022.2.2,
,,,,,,,,,,,,,,,,,,,,,,,0,557,Valid,signal,0,1,1258.477842399967,1,2.0,3.9798819000134245,True,3,A,2023-08-28_12h12.00.047,exp3,2022.2.2,
,,,,,,,,,,,,,,,,,,,,,,,0,2274,Valid,signal,0,1,1263.1183222000254,1,1.0,3.1800446999259293,True,3,A,2023-08-28_12h12.00.047,exp3,2022.2.2,
,,,,,,,,,,,,,,,,,,,,,,,0,557,Valid,noise,0,2,1267.79095220007,1,2.0,3.3131794000510126,True,3,A,2023-08-28_12h12.00.047,exp3,2022.2.2,
,,,,,,,,,,,,,,,,,,,,,,,0,-1158,Valid,signal,0,1,1271.581710700062,1,4.0,4.096217900048941,True,3,A,2023-08-28_12h12.00.047,exp3,2022.2.2,
,,,,,,,,,,,,,,,,,,,,,,,0,-1158,Valid,signal,0,1,1276.70284849999,1,4.0,2.729865500004962,True,3,A,2023-08-28_12h12.00.047,exp3,2022.2.2,
,,,,,,,,,,,,,,,,,,,,,,,0,2274,Invalid,noise,0,1,1281.597986800014,0,1.0,3.8628819999285042,True,3,A,2023-08-28_12h12.00.047,exp3,2022.2.2,
,,,,,,,,,,,,,,,,,,,,,,,0,-1716,Valid,noise,0,1,1286.2384679999668,0,1.0,3.629930399940349,True,3,A,2023-08-28_12h12.00.047,exp3,2022.2.2,
,,,,,,,,,,,,,,,,,,,,,,,0,2274,Valid,noise,0,1,1290.3829465999734,0,1.0,3.1627673000330105,True,3,A,2023-08-28_12h12.00.047,exp3,2022.2.2,
,,,,,,,,,,,,,,,,,,,,,,,0,1716,Valid,signal,0,1,1293.903018400073,1,3.0,2.6970450000371784,True,3,A,2023-08-28_12h12.00.047,exp3,2022.2.2,
,,,,,,,,,,,,,,,,,,,,,,,0,-557,Valid,noise,0,2,1299.181893400033,1,3.0,4.346549300011247,True,3,A,2023-08-28_12h12.00.047,exp3,2022.2.2,
,,,,,,,,,,,,,,,,,,,,,,,0,1716,Valid,noise,0,1,1303.150348199997,0,2.0,2.660716400016099,True,3,A,2023-08-28_12h12.00.047,exp3,2022.2.2,
,,,,,,,,,,,,,,,,,,,,,,,0,-1158,Valid,noise,0,2,1314.686478800024,1,2.0,10.449446200043894,True,3,A,2023-08-28_12h12.00.047,exp3,2022.2.2,
,,,,,,,,,,,,,,,,,,,,,,,0,1158,Valid,signal,0,1,1318.015103599988,1,3.0,2.929685000097379,True,3,A,2023-08-28_12h12.00.047,exp3,2022.2.2,
,,,,,,,,,,,,,,,,,,,,,,,0,1716,Valid,signal,0,1,1322.3669533999637,1,3.0,2.9131887999828905,True,3,A,2023-08-28_12h12.00.047,exp3,2022.2.2,
,,,,,,,,,,,,,,,,,,,,,,,0,-1158,Invalid,signal,0,1,1325.8698400000576,1,3.0,2.779823600081727,True,3,A,2023-08-28_12h12.00.047,exp3,2022.2.2,
,,,,,,,,,,,,,,,,,,,,,,,0,1158,Valid,signal,0,1,1329.6629100000719,1,3.0,2.3124372999882326,True,3,A,2023-08-28_12h12.00.047,exp3,2022.2.2,
,,,,,,,,,,,,,,,,,,,,,,,0,-1158,Valid,noise,0,1,1333.8061655999627,0,3.0,3.529631800018251,True,3,A,2023-08-28_12h12.00.047,exp3,2022.2.2,
,,,,,,,,,,,,,,,,,,,,,,,0,1716,Valid,signal,0,1,1337.5347094000317,1,3.0,2.3793845999753103,True,3,A,2023-08-28_12h12.00.047,exp3,2022.2.2,
,,,,,,,,,,,,,,,,,,,,,,,0,2274,Valid,noise,0,2,1341.5824132000562,1,1.0,3.2645659999689087,True,3,A,2023-08-28_12h12.00.047,exp3,2022.2.2,
,,,,,,,,,,,,,,,,,,,,,,,0,-2274,Valid,signal,0,2,1346.0296717999736,0,1.0,3.1606283000437543,True,3,A,2023-08-28_12h12.00.047,exp3,2022.2.2,
,,,,,,,,,,,,,,,,,,,,,,,0,-557,Invalid,noise,0,2,1350.3339591000695,1,2.0,3.3632983000716195,True,3,A,2023-08-28_12h12.00.047,exp3,2022.2.2,
,,,,,,,,,,,,,,,,,,,,,,,0,557,Valid,signal,0,1,1356.4622529000044,1,1.0,6.281328100012615,True,3,A,2023-08-28_12h12.00.047,exp3,2022.2.2,
,,,,,,,,,,,,,,,,,,,,,,,0,-1716,Valid,noise,0,2,1361.7098971999949,1,2.0,3.3958700000075623,True,3,A,2023-08-28_12h12.00.047,exp3,2022.2.2,
,,,,,,,,,,,,,,,,,,,,,,,0,-557,Valid,signal,0,1,1365.741957899998,1,3.0,2.8965609000297263,True,3,A,2023-08-28_12h12.00.047,exp3,2022.2.2,
,,,,,,,,,,,,,,,,,,,,,,,0,-1716,Invalid,signal,0,1,1369.7583150999853,1,4.0,2.863253999967128,True,3,A,2023-08-28_12h12.00.047,exp3,2022.2.2,
,,,,,,,,,,,,,,,,,,,,,,,0,1716,Valid,signal,0,1,1373.3100410000188,1,4.0,2.4454885999439284,True,3,A,2023-08-28_12h12.00.047,exp3,2022.2.2,
,,,,,,,,,,,,,,,,,,,,,,,0,-2274,Invalid,noise,0,1,1378.109700400033,0,1.0,4.01323699997738,True,3,A,2023-08-28_12h12.00.047,exp3,2022.2.2,
,,,,,,,,,,,,,,,,,,,,,,,0,-557,Valid,signal,0,1,1382.3665272999788,1,2.0,3.146718099946156,True,3,A,2023-08-28_12h12.00.047,exp3,2022.2.2,
,,,,,,,,,,,,,,,,,,,,,,,0,1158,Valid,signal,0,1,1386.4457672999706,1,2.0,3.112609599949792,True,3,A,2023-08-28_12h12.00.047,exp3,2022.2.2,
,,,,,,,,,,,,,,,,,,,,,,,0,557,Valid,noise,0,2,1390.8630819000537,1,1.0,3.5798205999890342,True,3,A,2023-08-28_12h12.00.047,exp3,2022.2.2,
,,,,,,,,,,,,,,,,,,,,,,,0,2274,Valid,noise,0,2,1394.8944850000553,1,1.0,2.5797781000146642,True,3,A,2023-08-28_12h12.00.047,exp3,2022.2.2,
,,,,,,,,,,,,,,,,,,,,,,,0,1716,Valid,signal,0,1,1398.4620692000026,1,3.0,3.2467310000211,True,3,A,2023-08-28_12h12.00.047,exp3,2022.2.2,
,,,,,,,,,,,,,,,,,,,,,,,0,-2274,Valid,noise,0,1,1402.6378082999727,0,1.0,3.3463284000754356,True,3,A,2023-08-28_12h12.00.047,exp3,2022.2.2,
,,,,,,,,,,,,,,,,,,,,,,,0,-1158,Valid,noise,0,1,1407.182156600058,0,1.0,2.9794505999889225,True,3,A,2023-08-28_12h12.00.047,exp3,2022.2.2,
,,,,,,,,,,,,,,,,,,,,,,,0,-1716,Valid,noise,0,2,1411.2619192000711,1,2.0,3.1131738000549376,True,3,A,2023-08-28_12h12.00.047,exp3,2022.2.2,
,,,,,,,,,,,,,,,,,,,,,,,0,2274,Valid,signal,0,2,1415.502485300065,0,1.0,3.145982699934393,True,3,A,2023-08-28_12h12.00.047,exp3,2022.2.2,
,,,,,,,,,,,,,,,,,,,,,,,0,-2274,Valid,signal,0,2,1419.9670818999875,0,1.0,3.2797759000677615,True,3,A,2023-08-28_12h12.00.047,exp3,2022.2.2,
,,,,,,,,,,,,,,,,,,,,,,,0,-557,Valid,noise,0,2,1424.766659200075,1,1.0,4.1135024999966845,True,3,A,2023-08-28_12h12.00.047,exp3,2022.2.2,
,,,,,,,,,,,,,,,,,,,,,,,0,557,Valid,signal,0,1,1430.3510257999878,1,2.0,4.596952100051567,True,3,A,2023-08-28_12h12.00.047,exp3,2022.2.2,
,,,,,,,,,,,,,,,,,,,,,,,0,557,Valid,noise,0,2,1435.1497468000744,1,1.0,4.0973019999219105,True,3,A,2023-08-28_12h12.00.047,exp3,2022.2.2,
,,,,,,,,,,,,,,,,,,,,,,,0,2274,Invalid,noise,0,1,1440.798432199983,0,1.0,5.49669439997524,True,3,A,2023-08-28_12h12.00.047,exp3,2022.2.2,
,,,,,,,,,,,,,,,,,,,,,,,0,-1716,Valid,noise,0,1,1445.9982846999774,0,1.0,3.8472169999731705,True,3,A,2023-08-28_12h12.00.047,exp3,2022.2.2,
,,,,,,,,,,,,,,,,,,,,,,,0,1158,Valid,noise,0,2,1450.990281400038,1,1.0,2.7793445999268442,True,3,A,2023-08-28_12h12.00.047,exp3,2022.2.2,
,,,,,,,,,,,,,,,,,,,,,,,0,557,Invalid,noise,0,2,1454.7509484000038,1,1.0,2.9134074000176042,True,3,A,2023-08-28_12h12.00.047,exp3,2022.2.2,
,,,,,,,,,,,,,,,,,,,,,,,0,557,Valid,signal,0,1,1458.8467213000404,1,2.0,2.9462365999352187,True,3,A,2023-08-28_12h12.00.047,exp3,2022.2.2,
,,,,,,,,,,,,,,,,,,,,,,,0,-1716,Invalid,noise,0,1,1462.5106888000155,0,2.0,3.0293352999724448,True,3,A,2023-08-28_12h12.00.047,exp3,2022.2.2,
,,,,,,,,,,,,,,,,,,,,,,,0,-2274,Valid,noise,0,2,1467.1342217000201,1,1.0,3.3799626000691205,True,3,A,2023-08-28_12h12.00.047,exp3,2022.2.2,
,,,,,,,,,,,,,,,,,,,,,,,0,1716,Valid,signal,0,1,1470.7187851000344,1,2.0,2.629036600003019,True,3,A,2023-08-28_12h12.00.047,exp3,2022.2.2,
,,,,,,,,,,,,,,,,,,,,,,,0,-2274,Valid,signal,0,1,1474.5580916999606,1,1.0,2.8967143000336364,True,3,A,2023-08-28_12h12.00.047,exp3,2022.2.2,
,,,,,,,,,,,,,,,,,,,,,,,0,1158,Valid,signal,0,1,1478.1910427999683,1,3.0,2.495882899966091,True,3,A,2023-08-28_12h12.00.047,exp3,2022.2.2,
,,,,,,,,,,,,,,,,,,,,,,,0,1158,Valid,signal,0,1,1481.5822065999964,1,3.0,2.378966100048274,True,3,A,2023-08-28_12h12.00.047,exp3,2022.2.2,
,,,,,,,,,,,,,,,,,,,,,,,0,557,Valid,noise,0,2,1485.4228022000752,1,3.0,3.2637044999282807,True,3,A,2023-08-28_12h12.00.047,exp3,2022.2.2,
,,,,,,,,,,,,,,,,,,,,,,,0,557,Invalid,signal,0,1,1489.62987970002,1,4.0,3.1289403000846505,True,3,A,2023-08-28_12h12.00.047,exp3,2022.2.2,
,,,,,,,,,,,,,,,,,,,,,,,0,1716,Invalid,signal,0,1,1497.1661801000591,1,4.0,6.2977800000226125,True,3,A,2023-08-28_12h12.00.047,exp3,2022.2.2,
,,,,,,,,,,,,,,,,,,,,,,,0,2274,Valid,noise,0,2,1502.014304799959,1,1.0,3.7800020000431687,True,3,A,2023-08-28_12h12.00.047,exp3,2022.2.2,
,,,,,,,,,,,,,,,,,,,,,,,0,-1158,Valid,noise,0,1,1506.3986712000333,0,1.0,3.73018770001363,True,3,A,2023-08-28_12h12.00.047,exp3,2022.2.2,
,,,,,,,,,,,,,,,,,,,,,,,0,-1158,Valid,signal,0,1,1510.1736069000326,1,4.0,3.0126754000084475,True,3,A,2023-08-28_12h12.00.047,exp3,2022.2.2,
,,,,,,,,,,,,,,,,,,,,,,,0,-1716,Valid,noise,0,1,1515.0057331999997,0,1.0,3.4132096999092028,True,3,A,2023-08-28_12h12.00.047,exp3,2022.2.2,
,,,,,,,,,,,,,,,,,,,,,,,0,-557,Valid,noise,0,2,1519.7101821000688,1,2.0,3.9967970999423414,True,3,A,2023-08-28_12h12.00.047,exp3,2022.2.2,
,,,,,,,,,,,,,,,,,,,,,,,0,557,Valid,signal,0,1,1523.9824481999967,1,2.0,3.213425400084816,True,3,A,2023-08-28_12h12.00.047,exp3,2022.2.2,
,,,,,,,,,,,,,,,,,,,,,,,0,-2274,Valid,noise,0,1,1528.1896658999613,0,1.0,3.42985920002684,True,3,A,2023-08-28_12h12.00.047,exp3,2022.2.2,
,,,,,,,,,,,,,,,,,,,,,,,0,-1716,Valid,signal,0,1,1532.1100266000722,1,3.0,2.5296654000412673,True,3,A,2023-08-28_12h12.00.047,exp3,2022.2.2,
,,,,,,,,,,,,,,,,,,,,,,,0,-2274,Valid,noise,0,1,1539.0700810999842,0,1.0,5.746890800073743,True,3,A,2023-08-28_12h12.00.047,exp3,2022.2.2,
,,,,,,,,,,,,,,,,,,,,,,,0,557,Valid,signal,0,1,1543.2466136000585,1,2.0,2.996485300012864,True,3,A,2023-08-28_12h12.00.047,exp3,2022.2.2,
,,,,,,,,,,,,,,,,,,,,,,,0,-2274,Valid,noise,0,1,1547.373661700054,0,1.0,3.2137611999642104,True,3,A,2023-08-28_12h12.00.047,exp3,2022.2.2,
,,,,,,,,,,,,,,,,,,,,,,,0,1716,Valid,noise,0,2,1551.9819946000353,1,2.0,3.5289997999789193,True,3,A,2023-08-28_12h12.00.047,exp3,2022.2.2,
,,,,,,,,,,,,,,,,,,,,,,,0,1716,Invalid,noise,0,2,1555.9176999999909,1,2.0,3.5633636999409646,True,3,A,2023-08-28_12h12.00.047,exp3,2022.2.2,
,,,,,,,,,,,,,,,,,,,,,,,0,1158,Invalid,signal,0,1,1560.2701173999812,1,3.0,3.379935400094837,True,3,A,2023-08-28_12h12.00.047,exp3,2022.2.2,
,,,,,,,,,,,,,,,,,,,,,,,0,1158,Valid,noise,0,2,1564.7509918999858,1,2.0,2.8970136999851093,True,3,A,2023-08-28_12h12.00.047,exp3,2022.2.2,
,,,,,,,,,,,,,,,,,,,,,,,0,-557,Valid,signal,0,1,1568.6070276000537,1,3.0,3.0622997999889776,True,3,A,2023-08-28_12h12.00.047,exp3,2022.2.2,
,,,,,,,,,,,,,,,,,,,,,,,0,2274,Invalid,signal,0,1,1572.7668098000577,1,2.0,3.1963777999626473,True,3,A,2023-08-28_12h12.00.047,exp3,2022.2.2,
,,,,,,,,,,,,,,,,,,,,,,,0,1716,Valid,noise,0,2,1576.7821495999815,1,2.0,2.7284568999893963,True,3,A,2023-08-28_12h12.00.047,exp3,2022.2.2,
,,,,,,,,,,,,,,,,,,,,,,,0,-1716,Valid,noise,0,1,1580.638614000054,0,1.0,3.8800545999547467,True,3,A,2023-08-28_12h12.00.047,exp3,2022.2.2,
,,,,,,,,,,,,,,,,,,,,,,,0,-557,Valid,noise,0,2,1586.6386470000725,1,1.0,4.247118700062856,True,3,A,2023-08-28_12h12.00.047,exp3,2022.2.2,
,,,,,,,,,,,,,,,,,,,,,,,0,-2274,Invalid,signal,0,2,1590.9109565999825,0,2.0,3.2121751999948174,True,3,A,2023-08-28_12h12.00.047,exp3,2022.2.2,
,,,,,,,,,,,,,,,,,,,,,,,0,-1716,Valid,signal,0,1,1594.6863987999968,1,4.0,2.6133350000018254,True,3,A,2023-08-28_12h12.00.047,exp3,2022.2.2,
,,,,,,,,,,,,,,,,,,,,,,,0,-1158,Valid,noise,0,2,1598.8304832000285,1,2.0,3.9132134000537917,True,3,A,2023-08-28_12h12.00.047,exp3,2022.2.2,
,,,,,,,,,,,,,,,,,,,,,,,0,557,Valid,noise,0,2,1603.9347990000388,1,2.0,3.24622970004566,True,3,A,2023-08-28_12h12.00.047,exp3,2022.2.2,
,,,,,,,,,,,,,,,,,,,,,,,0,2274,Valid,noise,0,2,1607.6787312000524,1,2.0,2.6460667999926955,True,3,A,2023-08-28_12h12.00.047,exp3,2022.2.2,
,,,,,,,,,,,,,,,,,,,,,,,0,-557,Valid,noise,0,2,1611.7262670999626,1,2.0,3.430199300055392,True,3,A,2023-08-28_12h12.00.047,exp3,2022.2.2,
,,,,,,,,,,,,,,,,,,,,,,,0,557,Valid,signal,0,1,1616.0138401000295,1,3.0,3.763110499945469,True,3,A,2023-08-28_12h12.00.047,exp3,2022.2.2,
,,,,,,,,,,,,,,,,,,,,,,,0,-1716,Valid,signal,0,1,1620.4304027999751,1,3.0,2.56257910002023,True,3,A,2023-08-28_12h12.00.047,exp3,2022.2.2,
,,,,,,,,,,,,,,,,,,,,,,,0,1716,Valid,noise,0,2,1624.4141232999973,1,2.0,3.229735399945639,True,3,A,2023-08-28_12h12.00.047,exp3,2022.2.2,
,,,,,,,,,,,,,,,,,,,,,,,0,1716,Invalid,noise,0,1,1628.510007700068,0,2.0,2.9631926000583917,True,3,A,2023-08-28_12h12.00.047,exp3,2022.2.2,
,,,,,,,,,,,,,,,,,,,,,,,0,1716,Valid,noise,0,1,1633.9508867000695,0,1.0,4.730101500055753,True,3,A,2023-08-28_12h12.00.047,exp3,2022.2.2,
,,,,,,,,,,,,,,,,,,,,,,,0,2274,Valid,signal,0,2,1638.2056056000292,0,1.0,2.9133288000011817,True,3,A,2023-08-28_12h12.00.047,exp3,2022.2.2,
,,,,,,,,,,,,,,,,,,,,,,,0,2274,Valid,signal,0,2,1641.8217917999718,0,1.0,2.512531099957414,True,3,A,2023-08-28_12h12.00.047,exp3,2022.2.2,
,,,,,,,,,,,,,,,,,,,,,,,0,-1158,Invalid,noise,0,2,1645.837793200044,1,2.0,3.8798000999959186,True,3,A,2023-08-28_12h12.00.047,exp3,2022.2.2,
,,,,,,,,,,,,,,,,,,,,,,,0,-1158,Valid,signal,0,1,1649.9980341000482,1,3.0,2.479112399974838,True,3,A,2023-08-28_12h12.00.047,exp3,2022.2.2,
,,,,,,,,,,,,,,,,,,,,,,,0,-557,Valid,signal,0,1,1653.278122000047,1,4.0,2.679887600010261,True,3,A,2023-08-28_12h12.00.047,exp3,2022.2.2,
,,,,,,,,,,,,,,,,,,,,,,,0,2274,Valid,noise,0,2,1657.6146677000215,1,2.0,2.762743299943395,True,3,A,2023-08-28_12h12.00.047,exp3,2022.2.2,
,,,,,,,,,,,,,,,,,,,,,,,0,1158,Valid,noise,0,1,1661.9186789999949,0,2.0,4.063460899982601,True,3,A,2023-08-28_12h12.00.047,exp3,2022.2.2,
,,,,,,,,,,,,,,,,,,,,,,,0,2274,Valid,signal,0,2,1666.5265084999846,0,2.0,3.0462850999319926,True,3,A,2023-08-28_12h12.00.047,exp3,2022.2.2,
,,,,,,,,,,,,,,,,,,,,,,,0,1158,Invalid,noise,0,1,1670.461872200016,0,1.0,2.91283290006686,True,3,A,2023-08-28_12h12.00.047,exp3,2022.2.2,
,,,,,,,,,,,,,,,,,,,,,,,0,557,Valid,noise,0,2,1679.4857508999994,1,1.0,8.497999199898914,True,3,A,2023-08-28_12h12.00.047,exp3,2022.2.2,
,,,,,,,,,,,,,,,,,,,,,,,0,-2274,Valid,signal,0,1,1683.774825999979,1,2.0,2.928964599967003,True,3,A,2023-08-28_12h12.00.047,exp3,2022.2.2,
,,,,,,,,,,,,,,,,,,,,,,,0,-557,Valid,signal,0,1,1687.7585485000163,1,3.0,2.9800760000944138,True,3,A,2023-08-28_12h12.00.047,exp3,2022.2.2,
,,,,,,,,,,,,,,,,,,,,,,,0,1716,Invalid,signal,0,1,1691.7750246999785,1,3.0,4.249433799996041,True,3,A,2023-08-28_12h12.00.047,exp3,2022.2.2,
,,,,,,,,,,,,,,,,,,,,,,,0,-1158,Valid,noise,0,1,1696.7822995999595,0,2.0,2.726084899972193,True,3,A,2023-08-28_12h12.00.047,exp3,2022.2.2,
,,,,,,,,,,,,,,,,,,,,,,,0,-2274,Valid,signal,0,1,1700.637627499993,1,2.0,2.680004399968311,True,3,A,2023-08-28_12h12.00.047,exp3,2022.2.2,
,,,,,,,,,,,,,,,,,,,,,,,0,-557,Valid,noise,0,2,1704.7655133999651,1,1.0,3.412562799989246,True,3,A,2023-08-28_12h12.00.047,exp3,2022.2.2,
,,,,,,,,,,,,,,,,,,,,,,,0,-1716,Valid,signal,0,1,1708.669887600001,1,3.0,2.529141500010155,True,3,A,2023-08-28_12h12.00.047,exp3,2022.2.2,
,,,,,,,,,,,,,,,,,,,,,,,0,2274,Valid,signal,0,2,1712.5105370000238,0,3.0,2.9971465999260545,True,3,A,2023-08-28_12h12.00.047,exp3,2022.2.2,
,,,,,,,,,,,,,,,,,,,,,,,1,-2274,Valid,signal,0,1,1894.7021687000524,1,2.0,3.461487599997781,True,3,A,2023-08-28_12h12.00.047,exp3,2022.2.2,
,,,,,,,,,,,,,,,,,,,,,,,2,-1716,Valid,signal,0,1,1898.5574270000216,1,3.0,2.4959314999869093,True,3,A,2023-08-28_12h12.00.047,exp3,2022.2.2,
,,,,,,,,,,,,,,,,,,,,,,,3,-557,Valid,signal,0,1,1902.0308406000258,1,2.0,2.6300701999571174,True,3,A,2023-08-28_12h12.00.047,exp3,2022.2.2,
,,,,,,,,,,,,,,,,,,,,,,,4,2274,Valid,noise,0,2,1905.6777335000224,1,2.0,2.4957787999883294,True,3,A,2023-08-28_12h12.00.047,exp3,2022.2.2,
,,,,,,,,,,,,,,,,,,,,,,,5,-557,Valid,noise,0,2,1909.3746040000115,1,2.0,3.4132614000700414,True,3,A,2023-08-28_12h12.00.047,exp3,2022.2.2,
,,,,,,,,,,,,,,,,,,,,,,,6,1158,Valid,noise,0,2,1913.7094981999835,1,2.0,2.4454101000446826,True,3,A,2023-08-28_12h12.00.047,exp3,2022.2.2,
,,,,,,,,,,,,,,,,,,,,,,,7,2274,Valid,noise,0,2,1917.006444800063,1,2.0,2.329693599953316,True,3,A,2023-08-28_12h12.00.047,exp3,2022.2.2,
,,,,,,,,,,,,,,,,,,,,,,,8,-1158,Valid,signal,0,1,1920.4947238999885,1,3.0,2.762591699953191,True,3,A,2023-08-28_12h12.00.047,exp3,2022.2.2,
,,,,,,,,,,,,,,,,,,,,,,,9,1158,Invalid,noise,0,1,1924.4616574000102,0,2.0,3.330221900017932,True,3,A,2023-08-28_12h12.00.047,exp3,2022.2.2,
,,,,,,,,,,,,,,,,,,,,,,,10,1716,Valid,noise,0,2,1928.846089300001,1,2.0,2.796198599971831,True,3,A,2023-08-28_12h12.00.047,exp3,2022.2.2,
,,,,,,,,,,,,,,,,,,,,,,,11,1716,Invalid,noise,0,1,1932.3813973000506,0,2.0,3.1294917999766767,True,3,A,2023-08-28_12h12.00.047,exp3,2022.2.2,
,,,,,,,,,,,,,,,,,,,,,,,12,-2274,Invalid,noise,0,2,1937.0058565000072,1,3.0,3.179489400004968,True,3,A,2023-08-28_12h12.00.047,exp3,2022.2.2,
,,,,,,,,,,,,,,,,,,,,,,,13,1716,Valid,signal,0,1,1941.1824466000544,1,3.0,2.9460008000023663,True,3,A,2023-08-28_12h12.00.047,exp3,2022.2.2,
,,,,,,,,,,,,,,,,,,,,,,,14,-1158,Valid,noise,0,2,1945.4547835000558,1,2.0,3.2966096999589354,True,3,A,2023-08-28_12h12.00.047,exp3,2022.2.2,
,,,,,,,,,,,,,,,,,,,,,,,15,557,Valid,signal,0,1,1949.2945698000258,1,3.0,3.0297922999598086,True,3,A,2023-08-28_12h12.00.047,exp3,2022.2.2,
,,,,,,,,,,,,,,,,,,,,,,,16,2274,Valid,signal,0,2,1953.3419745999854,0,2.0,2.9633431000402197,True,3,A,2023-08-28_12h12.00.047,exp3,2022.2.2,
,,,,,,,,,,,,,,,,,,,,,,,17,-1716,Valid,noise,0,1,1957.7736051999964,0,2.0,3.595808200072497,True,3,A,2023-08-28_12h12.00.047,exp3,2022.2.2,
,,,,,,,,,,,,,,,,,,,,,,,18,557,Valid,signal,0,1,1961.8543807000387,1,3.0,2.796427999972366,True,3,A,2023-08-28_12h12.00.047,exp3,2022.2.2,
,,,,,,,,,,,,,,,,,,,,,,,19,-2274,Valid,signal,0,1,1965.870752000017,1,3.0,2.9796652999939397,True,3,A,2023-08-28_12h12.00.047,exp3,2022.2.2,
,,,,,,,,,,,,,,,,,,,,,,,20,1716,Invalid,signal,0,1,1969.725787500036,1,4.0,3.2134495999198407,True,3,A,2023-08-28_12h12.00.047,exp3,2022.2.2,
,,,,,,,,,,,,,,,,,,,,,,,21,2274,Valid,signal,0,2,1973.7103262000019,0,1.0,2.695714500034228,True,3,A,2023-08-28_12h12.00.047,exp3,2022.2.2,
,,,,,,,,,,,,,,,,,,,,,,,22,-2274,Valid,noise,0,1,1978.094062600052,0,1.0,3.4489507999969646,True,3,A,2023-08-28_12h12.00.047,exp3,2022.2.2,
,,,,,,,,,,,,,,,,,,,,,,,23,1716,Valid,signal,0,1,1981.7584473000607,1,3.0,2.6425438999431208,True,3,A,2023-08-28_12h12.00.047,exp3,2022.2.2,
,,,,,,,,,,,,,,,,,,,,,,,24,-1716,Valid,signal,0,1,1985.3094122000039,1,3.0,2.429491400020197,True,3,A,2023-08-28_12h12.00.047,exp3,2022.2.2,
,,,,,,,,,,,,,,,,,,,,,,,25,-1158,Valid,noise,0,1,1989.1816202000482,0,1.0,2.928916299948469,True,3,A,2023-08-28_12h12.00.047,exp3,2022.2.2,
,,,,,,,,,,,,,,,,,,,,,,,26,-1158,Valid,noise,0,2,1993.054421900073,1,1.0,3.3631894999416545,True,3,A,2023-08-28_12h12.00.047,exp3,2022.2.2,
,,,,,,,,,,,,,,,,,,,,,,,27,557,Valid,signal,0,1,1998.2866816000314,1,2.0,3.7968912000069395,True,3,A,2023-08-28_12h12.00.047,exp3,2022.2.2,
,,,,,,,,,,,,,,,,,,,,,,,28,-1716,Valid,signal,0,1,2001.8695740000112,1,3.0,2.529380900086835,True,3,A,2023-08-28_12h12.00.047,exp3,2022.2.2,
,,,,,,,,,,,,,,,,,,,,,,,29,-1716,Valid,signal,0,1,2005.278352500056,1,4.0,2.3130937000969425,True,3,A,2023-08-28_12h12.00.047,exp3,2022.2.2,
,,,,,,,,,,,,,,,,,,,,,,,30,-1158,Valid,signal,0,1,2008.5733648999594,1,4.0,2.4460399000672624,True,3,A,2023-08-28_12h12.00.047,exp3,2022.2.2,
,,,,,,,,,,,,,,,,,,,,,,,31,2274,Valid,signal,0,2,2012.3024272000184,0,1.0,2.72983739990741,True,3,A,2023-08-28_12h12.00.047,exp3,2022.2.2,
,,,,,,,,,,,,,,,,,,,,,,,32,2274,Valid,signal,0,2,2016.045501900022,0,2.0,2.54607899999246,True,3,A,2023-08-28_12h12.00.047,exp3,2022.2.2,
,,,,,,,,,,,,,,,,,,,,,,,33,557,Invalid,noise,0,1,2020.6538692000322,0,2.0,4.046694000018761,True,3,A,2023-08-28_12h12.00.047,exp3,2022.2.2,
,,,,,,,,,,,,,,,,,,,,,,,34,-1158,Invalid,signal,0,1,2024.3814354999922,1,3.0,2.9463514999952167,True,3,A,2023-08-28_12h12.00.047,exp3,2022.2.2,
,,,,,,,,,,,,,,,,,,,,,,,35,2274,Valid,signal,0,2,2028.8785455999896,0,2.0,2.9292026000330225,True,3,A,2023-08-28_12h12.00.047,exp3,2022.2.2,
,,,,,,,,,,,,,,,,,,,,,,,36,1158,Valid,noise,0,2,2032.477634400013,1,2.0,2.462077400065027,True,3,A,2023-08-28_12h12.00.047,exp3,2022.2.2,
,,,,,,,,,,,,,,,,,,,,,,,37,1158,Valid,signal,0,1,2035.9821540999692,1,3.0,2.5964974999660626,True,3,A,2023-08-28_12h12.00.047,exp3,2022.2.2,
,,,,,,,,,,,,,,,,,,,,,,,38,557,Invalid,signal,0,1,2039.4855028999737,1,3.0,2.4792198999784887,True,3,A,2023-08-28_12h12.00.047,exp3,2022.2.2,
,,,,,,,,,,,,,,,,,,,,,,,39,-2274,Valid,signal,0,1,2043.3254822000163,1,1.0,3.7472391000483185,True,3,A,2023-08-28_12h12.00.047,exp3,2022.2.2,
,,,,,,,,,,,,,,,,,,,,,,,40,557,Valid,signal,0,1,2047.8693220000714,1,2.0,2.6619645999744534,True,3,A,2023-08-28_12h12.00.047,exp3,2022.2.2,
,,,,,,,,,,,,,,,,,,,,,,,41,-557,Invalid,noise,0,2,2052.3173570999643,1,1.0,4.04699109995272,True,3,A,2023-08-28_12h12.00.047,exp3,2022.2.2,
,,,,,,,,,,,,,,,,,,,,,,,42,-2274,Valid,noise,0,1,2057.1506005000556,0,1.0,3.5798901000525802,True,3,A,2023-08-28_12h12.00.047,exp3,2022.2.2,
,,,,,,,,,,,,,,,,,,,,,,,43,2274,Valid,noise,0,2,2061.0699786000187,1,1.0,2.5125882000429556,True,3,A,2023-08-28_12h12.00.047,exp3,2022.2.2,
,,,,,,,,,,,,,,,,,,,,,,,44,-2274,Invalid,signal,0,2,2064.493824200006,0,1.0,2.49612949998118,True,3,A,2023-08-28_12h12.00.047,exp3,2022.2.2,
,,,,,,,,,,,,,,,,,,,,,,,45,-1158,Valid,signal,0,1,2067.853728999966,1,3.0,2.362182499957271,True,3,A,2023-08-28_12h12.00.047,exp3,2022.2.2,
,,,,,,,,,,,,,,,,,,,,,,,46,557,Invalid,noise,0,1,2072.1578372999793,0,2.0,3.512565499986522,True,3,A,2023-08-28_12h12.00.047,exp3,2022.2.2,
,,,,,,,,,,,,,,,,,,,,,,,47,1158,Valid,noise,0,2,2076.190478799981,1,1.0,3.2798242000862956,True,3,A,2023-08-28_12h12.00.047,exp3,2022.2.2,
,,,,,,,,,,,,,,,,,,,,,,,48,-557,Valid,signal,0,1,2080.190002199961,1,3.0,2.8963560999836773,True,3,A,2023-08-28_12h12.00.047,exp3,2022.2.2,
,,,,,,,,,,,,,,,,,,,,,,,49,-1158,Valid,noise,0,1,2084.1575895000715,0,1.0,2.9465345999924466,True,3,A,2023-08-28_12h12.00.047,exp3,2022.2.2,
,,,,,,,,,,,,,,,,,,,,,,,50,-1716,Valid,noise,0,2,2088.9735744000645,1,2.0,3.8631493999855593,True,3,A,2023-08-28_12h12.00.047,exp3,2022.2.2,
,,,,,,,,,,,,,,,,,,,,,,,51,1158,Invalid,signal,0,1,2093.2141623999923,1,3.0,2.796135799959302,True,3,A,2023-08-28_12h12.00.047,exp3,2022.2.2,
,,,,,,,,,,,,,,,,,,,,,,,52,-557,Valid,noise,0,2,2097.0532817000058,1,3.0,2.8624902999727055,True,3,A,2023-08-28_12h12.00.047,exp3,2022.2.2,
,,,,,,,,,,,,,,,,,,,,,,,53,-1716,Valid,signal,0,1,2100.750402900041,1,4.0,2.762800100026652,True,3,A,2023-08-28_12h12.00.047,exp3,2022.2.2,
,,,,,,,,,,,,,,,,,,,,,,,54,-2274,Valid,noise,0,1,2105.2307112000417,0,1.0,4.295114999986254,True,3,A,2023-08-28_12h12.00.047,exp3,2022.2.2,
,,,,,,,,,,,,,,,,,,,,,,,55,-557,Valid,noise,0,2,2110.0941519000335,1,1.0,3.246465799980797,True,3,A,2023-08-28_12h12.00.047,exp3,2022.2.2,
,,,,,,,,,,,,,,,,,,,,,,,56,-557,Valid,signal,0,1,2113.7253814999713,1,3.0,2.4296165000414476,True,3,A,2023-08-28_12h12.00.047,exp3,2022.2.2,
,,,,,,,,,,,,,,,,,,,,,,,57,-1158,Valid,signal,0,1,2117.262601500028,1,3.0,2.5466023000190035,True,3,A,2023-08-28_12h12.00.047,exp3,2022.2.2,
,,,,,,,,,,,,,,,,,,,,,,,58,1158,Valid,noise,0,2,2122.0305817000335,1,1.0,3.7463072000537068,True,3,A,2023-08-28_12h12.00.047,exp3,2022.2.2,
,,,,,,,,,,,,,,,,,,,,,,,59,-1158,Valid,noise,0,1,2125.8067286000587,0,2.0,2.662889000028372,True,3,A,2023-08-28_12h12.00.047,exp3,2022.2.2,
,,,,,,,,,,,,,,,,,,,,,,,60,557,Invalid,signal,0,1,2129.5497176999925,1,3.0,2.929456499987282,True,3,A,2023-08-28_12h12.00.047,exp3,2022.2.2,
,,,,,,,,,,,,,,,,,,,,,,,61,-1716,Valid,noise,0,1,2134.5579323000275,0,1.0,3.6963394000194967,True,3,A,2023-08-28_12h12.00.047,exp3,2022.2.2,
,,,,,,,,,,,,,,,,,,,,,,,62,2274,Valid,signal,0,2,2138.141691899975,0,1.0,2.829590699984692,True,3,A,2023-08-28_12h12.00.047,exp3,2022.2.2,
,,,,,,,,,,,,,,,,,,,,,,,63,1716,Valid,noise,0,2,2141.8697983999737,1,1.0,2.545896099996753,True,3,A,2023-08-28_12h12.00.047,exp3,2022.2.2,
,,,,,,,,,,,,,,,,,,,,,,,64,-2274,Valid,noise,0,1,2145.2945385000203,0,1.0,2.6626787000568584,True,3,A,2023-08-28_12h12.00.047,exp3,2022.2.2,
,,,,,,,,,,,,,,,,,,,,,,,65,-557,Valid,noise,0,2,2149.5186103000306,1,2.0,3.6300456000026315,True,3,A,2023-08-28_12h12.00.047,exp3,2022.2.2,
,,,,,,,,,,,,,,,,,,,,,,,66,-1716,Valid,noise,0,2,2153.59774430003,1,2.0,2.329639400006272,True,3,A,2023-08-28_12h12.00.047,exp3,2022.2.2,
,,,,,,,,,,,,,,,,,,,,,,,67,-1158,Valid,signal,0,1,2157.35789990006,1,3.0,2.795581200043671,True,3,A,2023-08-28_12h12.00.047,exp3,2022.2.2,
,,,,,,,,,,,,,,,,,,,,,,,68,1716,Valid,signal,0,1,2160.8785382000497,1,4.0,2.9300777999451384,True,3,A,2023-08-28_12h12.00.047,exp3,2022.2.2,
,,,,,,,,,,,,,,,,,,,,,,,69,-1716,Valid,signal,0,1,2164.7821116000414,1,4.0,2.662289100000635,True,3,A,2023-08-28_12h12.00.047,exp3,2022.2.2,
,,,,,,,,,,,,,,,,,,,,,,,70,2274,Valid,noise,0,2,2168.6377427000552,1,2.0,2.7961410999996588,True,3,A,2023-08-28_12h12.00.047,exp3,2022.2.2,
,,,,,,,,,,,,,,,,,,,,,,,71,557,Valid,noise,0,2,2172.510123300017,1,2.0,2.9792459999443963,True,3,A,2023-08-28_12h12.00.047,exp3,2022.2.2,
,,,,,,,,,,,,,,,,,,,,,,,72,-1158,Invalid,signal,0,1,2176.238395499997,1,4.0,2.8806797999422997,True,3,A,2023-08-28_12h12.00.047,exp3,2022.2.2,
,,,,,,,,,,,,,,,,,,,,,,,73,2274,Valid,noise,0,1,2179.9505464000395,0,1.0,2.8109326000558212,True,3,A,2023-08-28_12h12.00.047,exp3,2022.2.2,
,,,,,,,,,,,,,,,,,,,,,,,74,-1716,Valid,signal,0,1,2183.6624083999777,1,3.0,2.279026700067334,True,3,A,2023-08-28_12h12.00.047,exp3,2022.2.2,
,,,,,,,,,,,,,,,,,,,,,,,75,1716,Valid,signal,0,1,2187.1972396000056,1,3.0,2.3965663999551907,True,3,A,2023-08-28_12h12.00.047,exp3,2022.2.2,
,,,,,,,,,,,,,,,,,,,,,,,76,-557,Invalid,signal,0,1,2190.6536027999828,1,4.0,2.9130027000792325,True,3,A,2023-08-28_12h12.00.047,exp3,2022.2.2,
,,,,,,,,,,,,,,,,,,,,,,,77,2274,Invalid,noise,0,2,2195.630586800049,1,1.0,3.712740999995731,True,3,A,2023-08-28_12h12.00.047,exp3,2022.2.2,
,,,,,,,,,,,,,,,,,,,,,,,78,-1158,Valid,noise,0,2,2199.9660858999705,1,1.0,3.379845099989325,True,3,A,2023-08-28_12h12.00.047,exp3,2022.2.2,
,,,,,,,,,,,,,,,,,,,,,,,79,557,Valid,signal,0,1,2204.173497300013,1,4.0,3.00082640000619,True,3,A,2023-08-28_12h12.00.047,exp3,2022.2.2,
,,,,,,,,,,,,,,,,,,,,,,,80,2274,Valid,noise,0,2,2208.030388000072,1,1.0,3.2554013000335544,True,3,A,2023-08-28_12h12.00.047,exp3,2022.2.2,
,,,,,,,,,,,,,,,,,,,,,,,81,2274,Valid,noise,0,2,2212.0464239000576,1,1.0,2.9291085000149906,True,3,A,2023-08-28_12h12.00.047,exp3,2022.2.2,
,,,,,,,,,,,,,,,,,,,,,,,82,-2274,Valid,noise,0,2,2217.7266594000394,1,1.0,4.780390799976885,True,3,A,2023-08-28_12h12.00.047,exp3,2022.2.2,
,,,,,,,,,,,,,,,,,,,,,,,83,-1716,Valid,noise,0,2,2222.7182437999872,1,1.0,3.813638100051321,True,3,A,2023-08-28_12h12.00.047,exp3,2022.2.2,
,,,,,,,,,,,,,,,,,,,,,,,84,557,Valid,signal,0,1,2226.910567700048,1,2.0,3.096172200050205,True,3,A,2023-08-28_12h12.00.047,exp3,2022.2.2,
,,,,,,,,,,,,,,,,,,,,,,,85,1716,Invalid,noise,0,1,2231.0215235999785,0,2.0,3.528993099927902,True,3,A,2023-08-28_12h12.00.047,exp3,2022.2.2,
,,,,,,,,,,,,,,,,,,,,,,,86,-557,Valid,signal,0,1,2235.1017654000316,1,3.0,2.530132199986838,True,3,A,2023-08-28_12h12.00.047,exp3,2022.2.2,
,,,,,,,,,,,,,,,,,,,,,,,87,-557,Valid,signal,0,1,2238.3985407999717,1,3.0,2.512620700057596,True,3,A,2023-08-28_12h12.00.047,exp3,2022.2.2,
,,,,,,,,,,,,,,,,,,,,,,,88,1158,Valid,signal,0,1,2241.9815929000033,1,3.0,2.3958029999630526,True,3,A,2023-08-28_12h12.00.047,exp3,2022.2.2,
,,,,,,,,,,,,,,,,,,,,,,,89,-1716,Invalid,signal,0,1,2245.5184799999697,1,3.0,2.4799104999983683,True,3,A,2023-08-28_12h12.00.047,exp3,2022.2.2,
,,,,,,,,,,,,,,,,,,,,,,,90,-1716,Invalid,noise,0,1,2249.1178655000404,0,3.0,2.5623102000681683,True,3,A,2023-08-28_12h12.00.047,exp3,2022.2.2,
,,,,,,,,,,,,,,,,,,,,,,,91,1158,Invalid,signal,0,1,2252.541428699973,1,3.0,2.445804000017233,True,3,A,2023-08-28_12h12.00.047,exp3,2022.2.2,
,,,,,,,,,,,,,,,,,,,,,,,92,-2274,Invalid,noise,0,2,2256.2696247000713,1,1.0,2.7741237999871373,True,3,A,2023-08-28_12h12.00.047,exp3,2022.2.2,
,,,,,,,,,,,,,,,,,,,,,,,93,-1716,Valid,noise,0,2,2260.221226499998,1,2.0,2.9021245000185445,True,3,A,2023-08-28_12h12.00.047,exp3,2022.2.2,
,,,,,,,,,,,,,,,,,,,,,,,94,-2274,Valid,noise,0,2,2265.2626286000013,1,1.0,4.186557999928482,True,3,A,2023-08-28_12h12.00.047,exp3,2022.2.2,
,,,,,,,,,,,,,,,,,,,,,,,95,-1716,Valid,signal,0,1,2268.7027213000692,1,3.0,2.3737193999113515,True,3,A,2023-08-28_12h12.00.047,exp3,2022.2.2,
,,,,,,,,,,,,,,,,,,,,,,,96,-2274,Valid,signal,0,1,2272.270290800021,1,2.0,2.511918699950911,True,3,A,2023-08-28_12h12.00.047,exp3,2022.2.2,
,,,,,,,,,,,,,,,,,,,,,,,97,1158,Valid,noise,0,2,2276.2057214999804,1,1.0,2.9134249000344425,True,3,A,2023-08-28_12h12.00.047,exp3,2022.2.2,
,,,,,,,,,,,,,,,,,,,,,,,98,1716,Valid,noise,0,2,2279.6137918999884,1,1.0,2.5622912000399083,True,3,A,2023-08-28_12h12.00.047,exp3,2022.2.2,
,,,,,,,,,,,,,,,,,,,,,,,99,2274,Valid,noise,0,2,2283.0697014000034,1,1.0,2.3462121000047773,True,3,A,2023-08-28_12h12.00.047,exp3,2022.2.2,
,,,,,,,,,,,,,,,,,,,,,,,100,1716,Valid,signal,0,1,2286.446612300002,1,3.0,2.3805523000191897,True,3,A,2023-08-28_12h12.00.047,exp3,2022.2.2,
,,,,,,,,,,,,,,,,,,,,,,,101,1716,Valid,noise,0,2,2290.2698628000217,1,1.0,2.7072676999960095,True,3,A,2023-08-28_12h12.00.047,exp3,2022.2.2,
,,,,,,,,,,,,,,,,,,,,,,,102,-1716,Invalid,signal,0,1,2293.5023326000664,1,2.0,2.4292462000157684,True,3,A,2023-08-28_12h12.00.047,exp3,2022.2.2,
,,,,,,,,,,,,,,,,,,,,,,,103,1158,Valid,signal,0,1,2297.1981291000266,1,3.0,2.779199399985373,True,3,A,2023-08-28_12h12.00.047,exp3,2022.2.2,
,,,,,,,,,,,,,,,,,,,,,,,104,-1158,Valid,signal,0,1,2301.165386800072,1,4.0,2.8133791000582278,True,3,A,2023-08-28_12h12.00.047,exp3,2022.2.2,
,,,,,,,,,,,,,,,,,,,,,,,105,1158,Valid,signal,0,1,2304.589320900035,1,4.0,2.413313199998811,True,3,A,2023-08-28_12h12.00.047,exp3,2022.2.2,
,,,,,,,,,,,,,,,,,,,,,,,106,-557,Valid,signal,0,1,2308.350222500041,1,1.0,3.245398600003682,True,3,A,2023-08-28_12h12.00.047,exp3,2022.2.2,
,,,,,,,,,,,,,,,,,,,,,,,107,-2274,Valid,signal,0,2,2312.9103601999814,0,1.0,3.897064600023441,True,3,A,2023-08-28_12h12.00.047,exp3,2022.2.2,
,,,,,,,,,,,,,,,,,,,,,,,108,-1158,Valid,signal,0,1,2317.133689600043,1,3.0,2.9460793999023736,True,3,A,2023-08-28_12h12.00.047,exp3,2022.2.2,
,,,,,,,,,,,,,,,,,,,,,,,109,1716,Valid,signal,0,1,2321.389974700054,1,3.0,2.9967869999818504,True,3,A,2023-08-28_12h12.00.047,exp3,2022.2.2,
,,,,,,,,,,,,,,,,,,,,,,,110,2274,Valid,signal,0,2,2325.56529389997,0,1.0,2.7797204999951646,True,3,A,2023-08-28_12h12.00.047,exp3,2022.2.2,
,,,,,,,,,,,,,,,,,,,,,,,111,557,Valid,noise,0,2,2329.678011800046,1,2.0,3.8631557000335306,True,3,A,2023-08-28_12h12.00.047,exp3,2022.2.2,
,,,,,,,,,,,,,,,,,,,,,,,112,557,Valid,noise,0,2,2333.7098258000333,1,2.0,2.2961054999614134,True,3,A,2023-08-28_12h12.00.047,exp3,2022.2.2,
,,,,,,,,,,,,,,,,,,,,,,,113,1716,Invalid,signal,0,1,2337.565252600005,1,3.0,2.8293795000063255,True,3,A,2023-08-28_12h12.00.047,exp3,2022.2.2,
,,,,,,,,,,,,,,,,,,,,,,,114,-1158,Valid,signal,0,1,2340.8932807999663,1,3.0,2.345969600020908,True,3,A,2023-08-28_12h12.00.047,exp3,2022.2.2,
,,,,,,,,,,,,,,,,,,,,,,,115,-2274,Valid,noise,0,2,2344.589350400027,1,1.0,2.712733699940145,True,3,A,2023-08-28_12h12.00.047,exp3,2022.2.2,
,,,,,,,,,,,,,,,,,,,,,,,116,1716,Valid,noise,0,2,2348.333351599984,1,2.0,2.996860899962485,True,3,A,2023-08-28_12h12.00.047,exp3,2022.2.2,
,,,,,,,,,,,,,,,,,,,,,,,117,557,Valid,signal,0,1,2352.4944852000335,1,2.0,3.0292126000858843,True,3,A,2023-08-28_12h12.00.047,exp3,2022.2.2,
,,,,,,,,,,,,,,,,,,,,,,,118,557,Valid,noise,0,1,2356.254320300068,0,1.0,3.0629255999810994,True,3,A,2023-08-28_12h12.00.047,exp3,2022.2.2,
,,,,,,,,,,,,,,,,,,,,,,,119,1716,Valid,signal,0,1,2360.3665601999965,1,2.0,2.896493599982932,True,3,A,2023-08-28_12h12.00.047,exp3,2022.2.2,
,,,,,,,,,,,,,,,,,,,,,,,120,-2274,Valid,signal,0,1,2364.253548400011,1,2.0,2.6291610999032855,True,3,A,2023-08-28_12h12.00.047,exp3,2022.2.2,
,,,,,,,,,,,,,,,,,,,,,,,121,557,Valid,noise,0,2,2367.6938065000577,1,3.0,3.1298504000296816,True,3,A,2023-08-28_12h12.00.047,exp3,2022.2.2,
,,,,,,,,,,,,,,,,,,,,,,,122,-557,Valid,noise,0,2,2371.9656934000086,1,3.0,2.4789338000118732,True,3,A,2023-08-28_12h12.00.047,exp3,2022.2.2,
,,,,,,,,,,,,,,,,,,,,,,,123,557,Valid,signal,0,1,2375.6938629000215,1,2.0,2.830300800036639,True,3,A,2023-08-28_12h12.00.047,exp3,2022.2.2,
,,,,,,,,,,,,,,,,,,,,,,,124,2274,Invalid,noise,0,2,2379.3741971000563,1,1.0,2.6634291999507695,True,3,A,2023-08-28_12h12.00.047,exp3,2022.2.2,
,,,,,,,,,,,,,,,,,,,,,,,125,1716,Valid,signal,0,1,2382.893466199981,1,3.0,2.6107534000184387,True,3,A,2023-08-28_12h12.00.047,exp3,2022.2.2,
,,,,,,,,,,,,,,,,,,,,,,,126,-1158,Invalid,noise,0,1,2386.605884999968,0,1.0,2.729464999982156,True,3,A,2023-08-28_12h12.00.047,exp3,2022.2.2,
,,,,,,,,,,,,,,,,,,,,,,,127,-1158,Valid,noise,0,2,2390.381216500071,1,1.0,2.629384099971503,True,3,A,2023-08-28_12h12.00.047,exp3,2022.2.2,
,,,,,,,,,,,,,,,,,,,,,,,128,557,Valid,signal,0,1,2394.0143361999653,1,2.0,2.62921839999035,True,3,A,2023-08-28_12h12.00.047,exp3,2022.2.2,
,,,,,,,,,,,,,,,,,,,,,,,129,2274,Valid,noise,0,2,2397.4064505000133,1,1.0,2.5132848999928683,True,3,A,2023-08-28_12h12.00.047,exp3,2022.2.2,
,,,,,,,,,,,,,,,,,,,,,,,130,2274,Valid,signal,0,1,2401.0698230999988,1,2.0,2.612164600053802,True,3,A,2023-08-28_12h12.00.047,exp3,2022.2.2,
,,,,,,,,,,,,,,,,,,,,,,,131,-557,Valid,signal,0,1,2404.6056060000556,1,4.0,2.513245900045149,True,3,A,2023-08-28_12h12.00.047,exp3,2022.2.2,
,,,,,,,,,,,,,,,,,,,,,,,132,1158,Valid,noise,0,2,2408.286321599968,1,2.0,2.8130381000228226,True,3,A,2023-08-28_12h12.00.047,exp3,2022.2.2,
,,,,,,,,,,,,,,,,,,,,,,,133,2274,Valid,signal,0,2,2411.8378399000503,0,1.0,2.362605300033465,True,3,A,2023-08-28_12h12.00.047,exp3,2022.2.2,
,,,,,,,,,,,,,,,,,,,,,,,134,-1716,Valid,noise,0,2,2415.1497878000373,1,1.0,2.296445299987681,True,3,A,2023-08-28_12h12.00.047,exp3,2022.2.2,
,,,,,,,,,,,,,,,,,,,,,,,135,-1158,Valid,signal,0,1,2418.7011871000286,1,4.0,2.662485499982722,True,3,A,2023-08-28_12h12.00.047,exp3,2022.2.2,
,,,,,,,,,,,,,,,,,,,,,,,136,557,Valid,noise,0,2,2422.5899780000327,1,3.0,2.846942299976945,True,3,A,2023-08-28_12h12.00.047,exp3,2022.2.2,
,,,,,,,,,,,,,,,,,,,,,,,137,-557,Valid,noise,0,2,2425.8532945000334,1,3.0,2.162424199981615,True,3,A,2023-08-28_12h12.00.047,exp3,2022.2.2,
,,,,,,,,,,,,,,,,,,,,,,,138,2274,Invalid,signal,0,1,2429.5982920000097,1,2.0,2.696342600043863,True,3,A,2023-08-28_12h12.00.047,exp3,2022.2.2,
,,,,,,,,,,,,,,,,,,,,,,,139,1158,Valid,signal,0,1,2433.053834900027,1,3.0,2.4288187000202015,True,3,A,2023-08-28_12h12.00.047,exp3,2022.2.2,
,,,,,,,,,,,,,,,,,,,,,,,140,-1158,Valid,noise,0,2,2436.7336318000453,1,2.0,2.729660400073044,True,3,A,2023-08-28_12h12.00.047,exp3,2022.2.2,
,,,,,,,,,,,,,,,,,,,,,,,141,557,Valid,noise,0,2,2440.2056729999604,1,2.0,2.4960017999401316,True,3,A,2023-08-28_12h12.00.047,exp3,2022.2.2,
,,,,,,,,,,,,,,,,,,,,,,,142,1158,Valid,noise,0,2,2443.6779042000417,1,3.0,2.42951509996783,True,3,A,2023-08-28_12h12.00.047,exp3,2022.2.2,
,,,,,,,,,,,,,,,,,,,,,,,143,-1716,Valid,noise,0,2,2447.229188599973,1,3.0,3.0128923999145627,True,3,A,2023-08-28_12h12.00.047,exp3,2022.2.2,
,,,,,,,,,,,,,,,,,,,,,,,144,1716,Valid,noise,0,2,2451.1972660999745,1,2.0,2.5962845999747515,True,3,A,2023-08-28_12h12.00.047,exp3,2022.2.2,
,,,,,,,,,,,,,,,,,,,,,,,145,1158,Valid,noise,0,2,2454.4620547000086,1,1.0,2.2294215000001714,True,3,A,2023-08-28_12h12.00.047,exp3,2022.2.2,
,,,,,,,,,,,,,,,,,,,,,,,146,-557,Valid,signal,0,1,2457.886275200057,1,4.0,2.379339099978097,True,3,A,2023-08-28_12h12.00.047,exp3,2022.2.2,
,,,,,,,,,,,,,,,,,,,,,,,147,1158,Valid,signal,0,1,2461.181284500053,1,4.0,2.3287560999160632,True,3,A,2023-08-28_12h12.00.047,exp3,2022.2.2,
,,,,,,,,,,,,,,,,,,,,,,,148,1716,Valid,signal,0,1,2464.49342720001,1,4.0,2.362939600017853,True,3,A,2023-08-28_12h12.00.047,exp3,2022.2.2,
,,,,,,,,,,,,,,,,,,,,,,,149,1716,Valid,noise,0,1,2468.0291242999956,0,3.0,2.5631948000518605,True,3,A,2023-08-28_12h12.00.047,exp3,2022.2.2,
,,,,,,,,,,,,,,,,,,,,,,,150,-557,Invalid,noise,0,2,2471.6139992000535,1,2.0,3.580022700014524,True,3,A,2023-08-28_12h12.00.047,exp3,2022.2.2,
,,,,,,,,,,,,,,,,,,,,,,,151,-557,Valid,noise,0,2,2475.981656500022,1,3.0,2.4459207999752834,True,3,A,2023-08-28_12h12.00.047,exp3,2022.2.2,
,,,,,,,,,,,,,,,,,,,,,,,152,-1158,Invalid,noise,0,2,2479.4699186000507,1,3.0,2.1953785000368953,True,3,A,2023-08-28_12h12.00.047,exp3,2022.2.2,
,,,,,,,,,,,,,,,,,,,,,,,153,1716,Valid,noise,0,2,2482.861727099982,1,3.0,2.330099800019525,True,3,A,2023-08-28_12h12.00.047,exp3,2022.2.2,
,,,,,,,,,,,,,,,,,,,,,,,154,557,Valid,noise,0,2,2485.981897699996,1,2.0,2.512487699976191,True,3,A,2023-08-28_12h12.00.047,exp3,2022.2.2,
,,,,,,,,,,,,,,,,,,,,,,,155,557,Valid,noise,0,2,2489.6298764999956,1,3.0,2.262641900102608,True,3,A,2023-08-28_12h12.00.047,exp3,2022.2.2,
,,,,,,,,,,,,,,,,,,,,,,,156,-1716,Valid,noise,0,2,2493.5985460999655,1,2.0,3.0795841000508517,True,3,A,2023-08-28_12h12.00.047,exp3,2022.2.2,
,,,,,,,,,,,,,,,,,,,,,,,157,-2274,Valid,signal,0,2,2497.4372627000557,0,1.0,2.8633961000014096,True,3,A,2023-08-28_12h12.00.047,exp3,2022.2.2,
,,,,,,,,,,,,,,,,,,,,,,,158,-1158,Valid,noise,0,2,2500.846271599992,1,1.0,2.5452855000039563,True,3,A,2023-08-28_12h12.00.047,exp3,2022.2.2,
,,,,,,,,,,,,,,,,,,,,,,,159,-1716,Valid,signal,0,1,2504.6054327000165,1,4.0,2.579198900028132,True,3,A,2023-08-28_12h12.00.047,exp3,2022.2.2,
,,,,,,,,,,,,,,,,,,,,,,,160,-1716,Invalid,noise,0,2,2508.4615847000387,1,2.0,2.8300008999649435,True,3,A,2023-08-28_12h12.00.047,exp3,2022.2.2,
,,,,,,,,,,,,,,,,,,,,,,,161,1158,Invalid,noise,0,2,2511.9500241000205,1,2.0,2.395966100040823,True,3,A,2023-08-28_12h12.00.047,exp3,2022.2.2,
,,,,,,,,,,,,,,,,,,,,,,,162,1158,Valid,signal,0,1,2515.341848000069,1,3.0,2.5293412999017164,True,3,A,2023-08-28_12h12.00.047,exp3,2022.2.2,
,,,,,,,,,,,,,,,,,,,,,,,163,-2274,Valid,signal,0,2,2519.00652299996,0,2.0,2.8793868999928236,True,3,A,2023-08-28_12h12.00.047,exp3,2022.2.2,
,,,,,,,,,,,,,,,,,,,,,,,164,-2274,Valid,noise,0,2,2522.9742379999952,1,1.0,2.5962794999359176,True,3,A,2023-08-28_12h12.00.047,exp3,2022.2.2,
,,,,,,,,,,,,,,,,,,,,,,,165,-557,Valid,noise,0,2,2526.3500677000266,1,3.0,2.5963519000215456,True,3,A,2023-08-28_12h12.00.047,exp3,2022.2.2,
,,,,,,,,,,,,,,,,,,,,,,,166,1158,Valid,signal,0,1,2529.790040699998,1,4.0,2.312492199940607,True,3,A,2023-08-28_12h12.00.047,exp3,2022.2.2,
,,,,,,,,,,,,,,,,,,,,,,,167,-2274,Valid,signal,0,1,2534.158488600049,1,2.0,3.313549599959515,True,3,A,2023-08-28_12h12.00.047,exp3,2022.2.2,
,,,,,,,,,,,,,,,,,,,,,,,168,-2274,Invalid,signal,0,2,2537.6620608000085,0,1.0,2.6125435000285506,True,3,A,2023-08-28_12h12.00.047,exp3,2022.2.2,
,,,,,,,,,,,,,,,,,,,,,,,169,-557,Valid,noise,0,2,2541.4054219999816,1,3.0,2.9623851999640465,True,3,A,2023-08-28_12h12.00.047,exp3,2022.2.2,
,,,,,,,,,,,,,,,,,,,,,,,170,-557,Invalid,signal,0,1,2545.3571233999683,1,2.0,2.6261887999717146,True,3,A,2023-08-28_12h12.00.047,exp3,2022.2.2,
,,,,,,,,,,,,,,,,,,,,,,,171,1158,Valid,noise,0,2,2549.4217208999908,1,2.0,3.063012200058438,True,3,A,2023-08-28_12h12.00.047,exp3,2022.2.2,
,,,,,,,,,,,,,,,,,,,,,,,172,-557,Valid,signal,0,1,2552.685327299987,1,3.0,2.329616199946031,True,3,A,2023-08-28_12h12.00.047,exp3,2022.2.2,
,,,,,,,,,,,,,,,,,,,,,,,173,1716,Valid,noise,0,1,2556.238346399972,0,2.0,3.110759499948472,True,3,A,2023-08-28_12h12.00.047,exp3,2022.2.2,
,,,,,,,,,,,,,,,,,,,,,,,174,2274,Invalid,signal,0,2,2560.4785080000293,0,1.0,2.6789646999677643,True,3,A,2023-08-28_12h12.00.047,exp3,2022.2.2,
,,,,,,,,,,,,,,,,,,,,,,,175,1158,Valid,signal,0,1,2564.013108000043,1,3.0,2.446398700005375,True,3,A,2023-08-28_12h12.00.047,exp3,2022.2.2,
,,,,,,,,,,,,,,,,,,,,,,,176,-2274,Valid,noise,0,2,2567.9024548999732,1,1.0,3.4961973999161273,True,3,A,2023-08-28_12h12.00.047,exp3,2022.2.2,
,,,,,,,,,,,,,,,,,,,,,,,2,-2274,Valid,noise,0,2,2730.3332706000656,1,1.0,4.1923443000996485,True,3,A,2023-08-28_12h12.00.047,exp3,2022.2.2,
,,,,,,,,,,,,,,,,,,,,,,,4,-2274,Valid,signal,0,2,2734.621253499994,0,1.0,2.812757500098087,True,3,A,2023-08-28_12h12.00.047,exp3,2022.2.2,
,,,,,,,,,,,,,,,,,,,,,,,6,2274,Valid,noise,0,2,2737.981870400021,1,1.0,2.2954511999851093,True,3,A,2023-08-28_12h12.00.047,exp3,2022.2.2,
,,,,,,,,,,,,,,,,,,,,,,,8,1716,Valid,noise,0,2,2741.8691150000086,1,2.0,2.8631735000526533,True,3,A,2023-08-28_12h12.00.047,exp3,2022.2.2,
,,,,,,,,,,,,,,,,,,,,,,,10,-557,Valid,noise,0,2,2745.0058891000226,1,3.0,2.3623192999511957,True,3,A,2023-08-28_12h12.00.047,exp3,2022.2.2,
,,,,,,,,,,,,,,,,,,,,,,,12,1158,Invalid,signal,0,1,2748.9738860999933,1,3.0,2.7628088999772444,True,3,A,2023-08-28_12h12.00.047,exp3,2022.2.2,
,,,,,,,,,,,,,,,,,,,,,,,14,-1158,Valid,signal,0,1,2752.141984899994,1,4.0,2.2459227999206632,True,3,A,2023-08-28_12h12.00.047,exp3,2022.2.2,
,,,,,,,,,,,,,,,,,,,,,,,16,-2274,Valid,noise,0,2,2755.51826120005,1,1.0,2.2956050999928266,True,3,A,2023-08-28_12h12.00.047,exp3,2022.2.2,
,,,,,,,,,,,,,,,,,,,,,,,18,-1716,Valid,signal,0,1,2758.7821261000354,1,3.0,2.2643984999740496,True,3,A,2023-08-28_12h12.00.047,exp3,2022.2.2,
,,,,,,,,,,,,,,,,,,,,,,,20,1716,Invalid,noise,0,2,2762.445283900015,1,2.0,2.5772595000453293,True,3,A,2023-08-28_12h12.00.047,exp3,2022.2.2,
,,,,,,,,,,,,,,,,,,,,,,,22,2274,Valid,signal,0,2,2765.965712700039,0,2.0,3.0459205999504775,True,3,A,2023-08-28_12h12.00.047,exp3,2022.2.2,
,,,,,,,,,,,,,,,,,,,,,,,24,-1158,Invalid,noise,0,2,2769.741210600012,1,2.0,2.280071399989538,True,3,A,2023-08-28_12h12.00.047,exp3,2022.2.2,
,,,,,,,,,,,,,,,,,,,,,,,26,-1716,Valid,noise,0,2,2773.4210090000415,1,1.0,2.8294470999389887,True,3,A,2023-08-28_12h12.00.047,exp3,2022.2.2,
,,,,,,,,,,,,,,,,,,,,,,,28,-557,Valid,noise,0,2,2776.8138855000725,1,2.0,2.445904399966821,True,3,A,2023-08-28_12h12.00.047,exp3,2022.2.2,
,,,,,,,,,,,,,,,,,,,,,,,30,-1716,Valid,signal,0,1,2780.2053589000134,1,3.0,2.19595510000363,True,3,A,2023-08-28_12h12.00.047,exp3,2022.2.2,
,,,,,,,,,,,,,,,,,,,,,,,32,1158,Valid,signal,0,1,2783.3580166000174,1,3.0,3.0129716000519693,True,3,A,2023-08-28_12h12.00.047,exp3,2022.2.2,
,,,,,,,,,,,,,,,,,,,,,,,34,-557,Valid,noise,0,2,2787.886077900068,1,4.0,2.880183900007978,True,3,A,2023-08-28_12h12.00.047,exp3,2022.2.2,
,,,,,,,,,,,,,,,,,,,,,,,36,1716,Valid,noise,0,2,2791.5174485000316,1,2.0,2.4118979000486434,True,3,A,2023-08-28_12h12.00.047,exp3,2022.2.2,
,,,,,,,,,,,,,,,,,,,,,,,38,557,Valid,noise,0,2,2795.0051797999768,1,3.0,2.429374900064431,True,3,A,2023-08-28_12h12.00.047,exp3,2022.2.2,
,,,,,,,,,,,,,,,,,,,,,,,40,1158,Valid,signal,0,1,2798.4456376000308,1,4.0,2.379772900021635,True,3,A,2023-08-28_12h12.00.047,exp3,2022.2.2,
,,,,,,,,,,,,,,,,,,,,,,,42,1716,Invalid,noise,0,2,2802.093245199998,1,1.0,3.2790837000356987,True,3,A,2023-08-28_12h12.00.047,exp3,2022.2.2,
,,,,,,,,,,,,,,,,,,,,,,,44,557,Valid,noise,0,2,2806.1900951999705,1,3.0,2.5458682000171393,True,3,A,2023-08-28_12h12.00.047,exp3,2022.2.2,
,,,,,,,,,,,,,,,,,,,,,,,46,-557,Valid,noise,0,2,2809.533847599989,1,4.0,2.2962383000412956,True,3,A,2023-08-28_12h12.00.047,exp3,2022.2.2,
,,,,,,,,,,,,,,,,,,,,,,,48,-557,Valid,signal,0,1,2813.0534252000507,1,2.0,2.7295536000747234,True,3,A,2023-08-28_12h12.00.047,exp3,2022.2.2,
,,,,,,,,,,,,,,,,,,,,,,,50,1716,Invalid,signal,0,1,2816.8300521000056,1,4.0,2.612845199997537,True,3,A,2023-08-28_12h12.00.047,exp3,2022.2.2,
,,,,,,,,,,,,,,,,,,,,,,,52,1716,Valid,signal,0,1,2820.1413618000224,1,4.0,2.296300199930556,True,3,A,2023-08-28_12h12.00.047,exp3,2022.2.2,
,,,,,,,,,,,,,,,,,,,,,,,54,2274,Valid,signal,0,2,2823.389058400062,0,1.0,2.379832600010559,True,3,A,2023-08-28_12h12.00.047,exp3,2022.2.2,
,,,,,,,,,,,,,,,,,,,,,,,56,-2274,Valid,signal,0,1,2827.1656657999847,1,2.0,2.728383000008762,True,3,A,2023-08-28_12h12.00.047,exp3,2022.2.2,
,,,,,,,,,,,,,,,,,,,,,,,58,-1158,Valid,signal,0,1,2830.493185600033,1,3.0,2.2128942999988794,True,3,A,2023-08-28_12h12.00.047,exp3,2022.2.2,
,,,,,,,,,,,,,,,,,,,,,,,60,2274,Valid,signal,0,2,2834.0772837999975,0,2.0,2.579652199987322,True,3,A,2023-08-28_12h12.00.047,exp3,2022.2.2,
,,,,,,,,,,,,,,,,,,,,,,,62,1716,Valid,noise,0,2,2837.4222987999674,1,2.0,2.4959959000116214,True,3,A,2023-08-28_12h12.00.047,exp3,2022.2.2,
,,,,,,,,,,,,,,,,,,,,,,,64,1158,Valid,noise,0,2,2841.1340924999677,1,2.0,2.6625857000472024,True,3,A,2023-08-28_12h12.00.047,exp3,2022.2.2,
,,,,,,,,,,,,,,,,,,,,,,,66,-557,Valid,signal,0,2,2844.749864900019,0,2.0,2.612633900018409,True,3,A,2023-08-28_12h12.00.047,exp3,2022.2.2,
,,,,,,,,,,,,,,,,,,,,,,,68,-1716,Valid,noise,0,2,2848.013077300042,1,2.0,2.1457696999423206,True,3,A,2023-08-28_12h12.00.047,exp3,2022.2.2,
,,,,,,,,,,,,,,,,,,,,,,,70,-2274,Valid,noise,0,2,2851.3573484000517,1,1.0,2.4963693999452516,True,3,A,2023-08-28_12h12.00.047,exp3,2022.2.2,
,,,,,,,,,,,,,,,,,,,,,,,72,1158,Valid,noise,0,2,2855.5500448000384,1,1.0,3.246607800014317,True,3,A,2023-08-28_12h12.00.047,exp3,2022.2.2,
,,,,,,,,,,,,,,,,,,,,,,,74,-1716,Valid,noise,0,2,2859.053216099972,1,1.0,2.2792694000527263,True,3,A,2023-08-28_12h12.00.047,exp3,2022.2.2,
,,,,,,,,,,,,,,,,,,,,,,,76,-1158,Valid,noise,0,2,2862.318180900067,1,2.0,2.296338399988599,True,3,A,2023-08-28_12h12.00.047,exp3,2022.2.2,
,,,,,,,,,,,,,,,,,,,,,,,78,-1158,Valid,noise,0,2,2865.7093921999913,1,2.0,2.3121633999980986,True,3,A,2023-08-28_12h12.00.047,exp3,2022.2.2,
,,,,,,,,,,,,,,,,,,,,,,,80,-557,Invalid,signal,0,1,2869.405482799979,1,3.0,2.762767200008966,True,3,A,2023-08-28_12h12.00.047,exp3,2022.2.2,
,,,,,,,,,,,,,,,,,,,,,,,82,1158,Invalid,noise,0,1,2873.2940109999618,0,2.0,2.8127523999428377,True,3,A,2023-08-28_12h12.00.047,exp3,2022.2.2,
,,,,,,,,,,,,,,,,,,,,,,,84,1716,Valid,noise,0,2,2876.9092979000416,1,2.0,2.6632460999535397,True,3,A,2023-08-28_12h12.00.047,exp3,2022.2.2,
,,,,,,,,,,,,,,,,,,,,,,,86,-1716,Valid,signal,0,1,2880.2692731000716,1,3.0,2.3626986000454053,True,3,A,2023-08-28_12h12.00.047,exp3,2022.2.2,
,,,,,,,,,,,,,,,,,,,,,,,88,1716,Invalid,signal,0,1,2883.6942151000258,1,4.0,2.5627442999975756,True,3,A,2023-08-28_12h12.00.047,exp3,2022.2.2,
,,,,,,,,,,,,,,,,,,,,,,,90,-1716,Valid,signal,0,1,2887.0849641000386,1,4.0,2.212974200025201,True,3,A,2023-08-28_12h12.00.047,exp3,2022.2.2,
,,,,,,,,,,,,,,,,,,,,,,,92,-557,Invalid,noise,0,2,2890.6052921999944,1,3.0,2.5625975999282673,True,3,A,2023-08-28_12h12.00.047,exp3,2022.2.2,
,,,,,,,,,,,,,,,,,,,,,,,94,-1716,Invalid,noise,0,2,2894.702146900003,1,2.0,3.1463428999995813,True,3,A,2023-08-28_12h12.00.047,exp3,2022.2.2,
,,,,,,,,,,,,,,,,,,,,,,,96,557,Valid,noise,0,2,2897.98174139997,1,2.0,2.1124547999352217,True,3,A,2023-08-28_12h12.00.047,exp3,2022.2.2,
,,,,,,,,,,,,,,,,,,,,,,,98,557,Invalid,signal,0,1,2901.5175695000216,1,3.0,2.6292534000240266,True,3,A,2023-08-28_12h12.00.047,exp3,2022.2.2,
,,,,,,,,,,,,,,,,,,,,,,,100,-1158,Valid,signal,0,1,2904.717995300074,1,4.0,2.263335300027393,True,3,A,2023-08-28_12h12.00.047,exp3,2022.2.2,
,,,,,,,,,,,,,,,,,,,,,,,102,-2274,Valid,signal,0,1,2908.3820577000733,1,2.0,2.7789798999438062,True,3,A,2023-08-28_12h12.00.047,exp3,2022.2.2,
,,,,,,,,,,,,,,,,,,,,,,,104,2274,Invalid,noise,0,1,2912.1252042000415,0,2.0,2.462670600041747,True,3,A,2023-08-28_12h12.00.047,exp3,2022.2.2,
,,,,,,,,,,,,,,,,,,,,,,,106,-1158,Valid,signal,0,1,2915.165734500042,1,2.0,2.079316999996081,True,3,A,2023-08-28_12h12.00.047,exp3,2022.2.2,
,,,,,,,,,,,,,,,,,,,,,,,108,1716,Valid,signal,0,1,2918.717488400056,1,2.0,2.662737900041975,True,3,A,2023-08-28_12h12.00.047,exp3,2022.2.2,
,,,,,,,,,,,,,,,,,,,,,,,110,1716,Valid,noise,0,2,2922.4295441000722,1,2.0,2.629385199979879,True,3,A,2023-08-28_12h12.00.047,exp3,2022.2.2,
,,,,,,,,,,,,,,,,,,,,,,,112,2274,Invalid,signal,0,1,2925.9650624999776,1,2.0,2.479319200036116,True,3,A,2023-08-28_12h12.00.047,exp3,2022.2.2,
,,,,,,,,,,,,,,,,,,,,,,,114,1158,Valid,signal,0,1,2929.1661454000277,1,3.0,2.7115981000242755,True,3,A,2023-08-28_12h12.00.047,exp3,2022.2.2,
,,,,,,,,,,,,,,,,,,,,,,,116,-557,Valid,noise,0,2,2933.0369419000344,1,3.0,2.7628042999422178,True,3,A,2023-08-28_12h12.00.047,exp3,2022.2.2,
,,,,,,,,,,,,,,,,,,,,,,,118,-557,Valid,noise,0,2,2936.8457637999672,1,4.0,2.4449325000168756,True,3,A,2023-08-28_12h12.00.047,exp3,2022.2.2,
,,,,,,,,,,,,,,,,,,,,,,,120,-557,Invalid,signal,0,1,2940.413987100008,1,3.0,2.495768000022508,True,3,A,2023-08-28_12h12.00.047,exp3,2022.2.2,
,,,,,,,,,,,,,,,,,,,,,,,122,-1158,Valid,noise,0,2,2943.757047799998,1,3.0,2.379535499960184,True,3,A,2023-08-28_12h12.00.047,exp3,2022.2.2,
,,,,,,,,,,,,,,,,,,,,,,,124,557,Invalid,noise,0,2,2946.973742100061,1,3.0,2.9966692000161856,True,3,A,2023-08-28_12h12.00.047,exp3,2022.2.2,
,,,,,,,,,,,,,,,,,,,,,,,126,1716,Valid,noise,0,2,2951.2776477000443,1,3.0,2.4960583000211045,True,3,A,2023-08-28_12h12.00.047,exp3,2022.2.2,
,,,,,,,,,,,,,,,,,,,,,,,128,2274,Valid,signal,0,1,2954.9255279999925,1,1.0,2.8961473000235856,True,3,A,2023-08-28_12h12.00.047,exp3,2022.2.2,
