trials.label,trials.startVal,trials.maxVal,trials.minVal,trials.startValSd,trials.pthreshold,trials.beta,trials.delta,trials.gamma,trials.grain,trials.stepSize,trials.range,trials.cue,trials.thisIndex,trials.thisRepN,trials.thisN,trials.direction,trials.stepType,trials.intensity,signalOpacity,stair_response_correct,level,trials.response,stair_eye_ok,nTrial,position,validity,Stimulus,orientation,response_key,response_rt,response_correct,confidence,confidence_rt,eye_ok,trial_rep,participant,session,date,expName,psychopyVersion,
high_opac_v,0.01,1,0.01,3,0.82,3.5,0.01,0,0.01,4,5,Valid,1,1,0,start,lin,0.01,0.01,0,0.01,0,True,,,,,,,,,,,,,32,A,2023-11-16_15h13.43.413,exp3,2022.2.2,
low_opac_v,0.4,1,0.01,3,0.82,3.5,0.01,0,0.01,4,5,Valid,0,1,1,start,lin,0.4,0,1,0.4,1,True,,,,,,,,,,,,,32,A,2023-11-16_15h13.43.413,exp3,2022.2.2,
low_opac_i,0.4,1,0.01,3,0.82,3.5,0.01,0,0.01,4,5,Invalid,2,1,2,start,lin,0.4,0.4,1,0.4,1,True,,,,,,,,,,,,,32,A,2023-11-16_15h13.43.413,exp3,2022.2.2,
low_opac_i,0.4,1,0.01,3,0.82,3.5,0.01,0,0.01,4,5,Invalid,2,2,3,start,lin,0.01,0,1,0.01,1,True,,,,,,,,,,,,,32,A,2023-11-16_15h13.43.413,exp3,2022.2.2,
high_opac_v,0.01,1,0.01,3,0.82,3.5,0.01,0,0.01,4,5,Valid,1,2,4,start,lin,1,1,1,1,1,True,,,,,,,,,,,,,32,A,2023-11-16_15h13.43.413,exp3,2022.2.2,
low_opac_v,0.4,1,0.01,3,0.82,3.5,0.01,0,0.01,4,5,Valid,0,2,5,start,lin,0.01,0.01,0,0.01,0,True,,,,,,,,,,,,,32,A,2023-11-16_15h13.43.413,exp3,2022.2.2,
high_opac_v,0.01,1,0.01,3,0.82,3.5,0.01,0,0.01,4,5,Valid,1,3,6,start,lin,0.6092784667527542,0,1,0.6092784667527542,1,True,,,,,,,,,,,,,32,A,2023-11-16_15h13.43.413,exp3,2022.2.2,
low_opac_v,0.4,1,0.01,3,0.82,3.5,0.01,0,0.01,4,5,Valid,0,3,7,start,lin,0.3144098688205103,0,1,0.3144098688205103,1,True,,,,,,,,,,,,,32,A,2023-11-16_15h13.43.413,exp3,2022.2.2,
low_opac_i,0.4,1,0.01,3,0.82,3.5,0.01,0,0.01,4,5,Invalid,2,3,8,start,lin,0.01,0.01,0,0.01,0,True,,,,,,,,,,,,,32,A,2023-11-16_15h13.43.413,exp3,2022.2.2,
high_opac_v,0.01,1,0.01,3,0.82,3.5,0.01,0,0.01,4,5,Valid,1,4,9,start,lin,0.41662067589367746,0.41662067589367746,1,0.41662067589367746,1,True,,,,,,,,,,,,,32,A,2023-11-16_15h13.43.413,exp3,2022.2.2,
low_opac_i,0.4,1,0.01,3,0.82,3.5,0.01,0,0.01,4,5,Invalid,2,4,10,start,lin,0.11291000027026754,0,1,0.11291000027026754,1,True,,,,,,,,,,,,,32,A,2023-11-16_15h13.43.413,exp3,2022.2.2,
low_opac_v,0.4,1,0.01,3,0.82,3.5,0.01,0,0.01,4,5,Valid,0,4,11,start,lin,0.23561159539411833,0,1,0.23561159539411833,1,True,,,,,,,,,,,,,32,A,2023-11-16_15h13.43.413,exp3,2022.2.2,
high_opac_v,0.01,1,0.01,3,0.82,3.5,0.01,0,0.01,4,5,Valid,1,5,12,start,lin,0.3073330120243674,0,1,0.3073330120243674,1,True,,,,,,,,,,,,,32,A,2023-11-16_15h13.43.413,exp3,2022.2.2,
low_opac_v,0.4,1,0.01,3,0.82,3.5,0.01,0,0.01,4,5,Valid,0,5,13,start,lin,0.1841780991895161,0,1,0.1841780991895161,1,True,,,,,,,,,,,,,32,A,2023-11-16_15h13.43.413,exp3,2022.2.2,
low_opac_i,0.4,1,0.01,3,0.82,3.5,0.01,0,0.01,4,5,Invalid,2,5,14,start,lin,0.055546079649276214,0.055546079649276214,0,0.055546079649276214,0,True,,,,,,,,,,,,,32,A,2023-11-16_15h13.43.413,exp3,2022.2.2,
low_opac_v,0.4,1,0.01,3,0.82,3.5,0.01,0,0.01,4,5,Valid,0,6,15,start,lin,0.14081453445857006,0,1,0.14081453445857006,1,True,,,,,,,,,,,,,32,A,2023-11-16_15h13.43.413,exp3,2022.2.2,
low_opac_i,0.4,1,0.01,3,0.82,3.5,0.01,0,0.01,4,5,Invalid,2,6,16,start,lin,0.16915316766928282,0,1,0.16915316766928282,1,True,,,,,,,,,,,,,32,A,2023-11-16_15h13.43.413,exp3,2022.2.2,
high_opac_v,0.01,1,0.01,3,0.82,3.5,0.01,0,0.01,4,5,Valid,1,6,17,start,lin,0.2346279982429363,0,1,0.2346279982429363,1,True,,,,,,,,,,,,,32,A,2023-11-16_15h13.43.413,exp3,2022.2.2,
low_opac_v,0.4,1,0.01,3,0.82,3.5,0.01,0,0.01,4,5,Valid,0,7,18,start,lin,0.10410764613410528,0.10410764613410528,1,0.10410764613410528,1,True,,,,,,,,,,,,,32,A,2023-11-16_15h13.43.413,exp3,2022.2.2,
high_opac_v,0.01,1,0.01,3,0.82,3.5,0.01,0,0.01,4,5,Valid,1,7,19,start,lin,0.1783883928663719,0,1,0.1783883928663719,1,True,,,,,,,,,,,,,32,A,2023-11-16_15h13.43.413,exp3,2022.2.2,
low_opac_i,0.4,1,0.01,3,0.82,3.5,0.01,0,0.01,4,5,Invalid,2,7,20,start,lin,0.14521080678131015,0.14521080678131015,1,0.14521080678131015,1,True,,,,,,,,,,,,,32,A,2023-11-16_15h13.43.413,exp3,2022.2.2,
low_opac_v,0.4,1,0.01,3,0.82,3.5,0.01,0,0.01,4,5,Valid,0,8,21,start,lin,0.06939770050553568,0,1,0.06939770050553568,1,True,,,,,,,,,,,,,32,A,2023-11-16_15h13.43.413,exp3,2022.2.2,
low_opac_i,0.4,1,0.01,3,0.82,3.5,0.01,0,0.01,4,5,Invalid,2,8,22,start,lin,0.12730956115660075,0,1,0.12730956115660075,1,True,,,,,,,,,,,,,32,A,2023-11-16_15h13.43.413,exp3,2022.2.2,
high_opac_v,0.01,1,0.01,3,0.82,3.5,0.01,0,0.01,4,5,Valid,1,8,23,start,lin,0.13459290957572173,0,1,0.13459290957572173,1,True,,,,,,,,,,,,,32,A,2023-11-16_15h13.43.413,exp3,2022.2.2,
high_opac_v,0.01,1,0.01,3,0.82,3.5,0.01,0,0.01,4,5,Valid,1,9,24,start,lin,0.09461515961891341,0.09461515961891341,1,0.09461515961891341,1,True,,,,,,,,,,,,,32,A,2023-11-16_15h13.43.413,exp3,2022.2.2,
low_opac_v,0.4,1,0.01,3,0.82,3.5,0.01,0,0.01,4,5,Valid,0,9,25,start,lin,0.03562832594001342,0.03562832594001342,0,0.03562832594001342,0,True,,,,,,,,,,,,,32,A,2023-11-16_15h13.43.413,exp3,2022.2.2,
low_opac_i,0.4,1,0.01,3,0.82,3.5,0.01,0,0.01,4,5,Invalid,2,9,26,start,lin,0.11237162559530067,0.11237162559530067,1,0.11237162559530067,1,True,,,,,,,,,,,,,32,A,2023-11-16_15h13.43.413,exp3,2022.2.2,
high_opac_v,0.01,1,0.01,3,0.82,3.5,0.01,0,0.01,4,5,Valid,1,10,27,start,lin,0.05620518288249825,0.05620518288249825,1,0.05620518288249825,1,True,,,,,,,,,,,,,32,A,2023-11-16_15h13.43.413,exp3,2022.2.2,
low_opac_i,0.4,1,0.01,3,0.82,3.5,0.01,0,0.01,4,5,Invalid,2,10,28,start,lin,0.0990055231818932,0.0990055231818932,1,0.0990055231818932,1,True,,,,,,,,,,,,,32,A,2023-11-16_15h13.43.413,exp3,2022.2.2,
low_opac_v,0.4,1,0.01,3,0.82,3.5,0.01,0,0.01,4,5,Valid,0,10,29,start,lin,0.12109348043581553,0,1,0.12109348043581553,1,True,,,,,,,,,,,,,32,A,2023-11-16_15h13.43.413,exp3,2022.2.2,
low_opac_i,0.4,1,0.01,3,0.82,3.5,0.01,0,0.01,4,5,Invalid,2,11,30,start,lin,0.08742720975672519,0,0,0.08742720975672519,0,True,,,,,,,,,,,,,32,A,2023-11-16_15h13.43.413,exp3,2022.2.2,
high_opac_v,0.01,1,0.01,3,0.82,3.5,0.01,0,0.01,4,5,Valid,1,11,31,start,lin,0.017218684157691948,0,1,0.017218684157691948,1,True,,,,,,,,,,,,,32,A,2023-11-16_15h13.43.413,exp3,2022.2.2,
low_opac_v,0.4,1,0.01,3,0.82,3.5,0.01,0,0.01,4,5,Valid,0,11,32,start,lin,0.10732116846540846,0,1,0.10732116846540846,1,True,,,,,,,,,,,,,32,A,2023-11-16_15h13.43.413,exp3,2022.2.2,
low_opac_v,0.4,1,0.01,3,0.82,3.5,0.01,0,0.01,4,5,Valid,0,12,33,start,lin,0.09544348418602827,0,1,0.09544348418602827,1,True,,,,,,,,,,,,,32,A,2023-11-16_15h13.43.413,exp3,2022.2.2,
high_opac_v,0.01,1,0.01,3,0.82,3.5,0.01,0,0.01,4,5,Valid,1,12,34,start,lin,0.01,0.01,0,0.01,0,True,,,,,,,,,,,,,32,A,2023-11-16_15h13.43.413,exp3,2022.2.2,
low_opac_i,0.4,1,0.01,3,0.82,3.5,0.01,0,0.01,4,5,Invalid,2,12,35,start,lin,0.12612482153839238,0,0,0.12612482153839238,0,True,,,,,,,,,,,,,32,A,2023-11-16_15h13.43.413,exp3,2022.2.2,
low_opac_i,0.4,1,0.01,3,0.82,3.5,0.01,0,0.01,4,5,Invalid,2,13,36,start,lin,0.1591710767649038,0.1591710767649038,1,0.1591710767649038,1,True,,,,,,,,,,,,,32,A,2023-11-16_15h13.43.413,exp3,2022.2.2,
high_opac_v,0.01,1,0.01,3,0.82,3.5,0.01,0,0.01,4,5,Valid,1,13,37,start,lin,0.0859138998939664,0.0859138998939664,1,0.0859138998939664,1,True,,,,,,,,,,,,,32,A,2023-11-16_15h13.43.413,exp3,2022.2.2,
low_opac_v,0.4,1,0.01,3,0.82,3.5,0.01,0,0.01,4,5,Valid,0,13,38,start,lin,0.08485533269586532,0.08485533269586532,0,0.08485533269586532,0,True,,,,,,,,,,,,,32,A,2023-11-16_15h13.43.413,exp3,2022.2.2,
low_opac_i,0.4,1,0.01,3,0.82,3.5,0.01,0,0.01,4,5,Invalid,2,14,39,start,lin,0.15137018510344405,0,0,0.15137018510344405,0,True,,,,,,,,,,,,,32,A,2023-11-16_15h13.43.413,exp3,2022.2.2,
high_opac_v,0.01,1,0.01,3,0.82,3.5,0.01,0,0.01,4,5,Valid,1,14,40,start,lin,0.07373127442923567,0.07373127442923567,0,0.07373127442923567,0,True,,,,,,,,,,,,,32,A,2023-11-16_15h13.43.413,exp3,2022.2.2,
low_opac_v,0.4,1,0.01,3,0.82,3.5,0.01,0,0.01,4,5,Valid,0,14,41,start,lin,0.12025820935074916,0,1,0.12025820935074916,1,True,,,,,,,,,,,,,32,A,2023-11-16_15h13.43.413,exp3,2022.2.2,
high_opac_v,0.01,1,0.01,3,0.82,3.5,0.01,0,0.01,4,5,Valid,1,15,42,start,lin,0.11342409591962659,0,1,0.11342409591962659,1,True,,,,,,,,,,,,,32,A,2023-11-16_15h13.43.413,exp3,2022.2.2,
low_opac_v,0.4,1,0.01,3,0.82,3.5,0.01,0,0.01,4,5,Valid,0,15,43,start,lin,0.11210651426330731,0.11210651426330731,0,0.11210651426330731,0,True,,,,,,,,,,,,,32,A,2023-11-16_15h13.43.413,exp3,2022.2.2,
low_opac_i,0.4,1,0.01,3,0.82,3.5,0.01,0,0.01,4,5,Invalid,2,15,44,start,lin,0.17845096309990474,0.17845096309990474,1,0.17845096309990474,1,True,,,,,,,,,,,,,32,A,2023-11-16_15h13.43.413,exp3,2022.2.2,
low_opac_i,0.4,1,0.01,3,0.82,3.5,0.01,0,0.01,4,5,Invalid,2,16,45,start,lin,0.1718330567088956,0.1718330567088956,1,0.1718330567088956,1,True,,,,,,,,,,,,,32,A,2023-11-16_15h13.43.413,exp3,2022.2.2,
low_opac_v,0.4,1,0.01,3,0.82,3.5,0.01,0,0.01,4,5,Valid,0,16,46,start,lin,0.1399932383067447,0,1,0.1399932383067447,1,True,,,,,,,,,,,,,32,A,2023-11-16_15h13.43.413,exp3,2022.2.2,
high_opac_v,0.01,1,0.01,3,0.82,3.5,0.01,0,0.01,4,5,Valid,1,16,47,start,lin,0.10403673839054374,0,1,0.10403673839054374,1,True,,,,,,,,,,,,,32,A,2023-11-16_15h13.43.413,exp3,2022.2.2,
high_opac_v,0.01,1,0.01,3,0.82,3.5,0.01,0,0.01,4,5,Valid,1,17,48,start,lin,0.0954837273085709,0.0954837273085709,1,0.0954837273085709,1,True,,,,,,,,,,,,,32,A,2023-11-16_15h13.43.413,exp3,2022.2.2,
low_opac_v,0.4,1,0.01,3,0.82,3.5,0.01,0,0.01,4,5,Valid,0,17,49,start,lin,0.13332405023434618,0,1,0.13332405023434618,1,True,,,,,,,,,,,,,32,A,2023-11-16_15h13.43.413,exp3,2022.2.2,
low_opac_i,0.4,1,0.01,3,0.82,3.5,0.01,0,0.01,4,5,Invalid,2,17,50,start,lin,0.16559453218329614,0,0,0.16559453218329614,0,True,,,,,,,,,,,,,32,A,2023-11-16_15h13.43.413,exp3,2022.2.2,
high_opac_v,0.01,1,0.01,3,0.82,3.5,0.01,0,0.01,4,5,Valid,1,18,51,start,lin,0.08815743862447858,0.08815743862447858,0,0.08815743862447858,0,True,,,,,,,,,,,,,32,A,2023-11-16_15h13.43.413,exp3,2022.2.2,
low_opac_i,0.4,1,0.01,3,0.82,3.5,0.01,0,0.01,4,5,Invalid,2,18,52,start,lin,0.18838283787418977,0.18838283787418977,1,0.18838283787418977,1,True,,,,,,,,,,,,,32,A,2023-11-16_15h13.43.413,exp3,2022.2.2,
low_opac_v,0.4,1,0.01,3,0.82,3.5,0.01,0,0.01,4,5,Valid,0,18,53,start,lin,0.12695647010542982,0,1,0.12695647010542982,1,True,,,,,,,,,,,,,32,A,2023-11-16_15h13.43.413,exp3,2022.2.2,
high_opac_v,0.01,1,0.01,3,0.82,3.5,0.01,0,0.01,4,5,Valid,1,19,54,start,lin,0.11515650506320278,0.11515650506320278,0,0.11515650506320278,0,True,,,,,,,,,,,,,32,A,2023-11-16_15h13.43.413,exp3,2022.2.2,
low_opac_v,0.4,1,0.01,3,0.82,3.5,0.01,0,0.01,4,5,Valid,0,19,55,start,lin,0.12134127169437775,0.12134127169437775,1,0.12134127169437775,1,True,,,,,,,,,,,,,32,A,2023-11-16_15h13.43.413,exp3,2022.2.2,
low_opac_i,0.4,1,0.01,3,0.82,3.5,0.01,0,0.01,4,5,Invalid,2,19,56,start,lin,0.1830674437918032,0,1,0.1830674437918032,1,True,,,,,,,,,,,,,32,A,2023-11-16_15h13.43.413,exp3,2022.2.2,
low_opac_v,0.4,1,0.01,3,0.82,3.5,0.01,0,0.01,4,5,Valid,0,20,57,start,lin,0.1158560452887315,0.1158560452887315,1,0.1158560452887315,1,True,,,,,,,,,,,,,32,A,2023-11-16_15h13.43.413,exp3,2022.2.2,
high_opac_v,0.01,1,0.01,3,0.82,3.5,0.01,0,0.01,4,5,Valid,1,20,58,start,lin,0.14004809826716227,0,1,0.14004809826716227,1,True,,,,,,,,,,,,,32,A,2023-11-16_15h13.43.413,exp3,2022.2.2,
low_opac_i,0.4,1,0.01,3,0.82,3.5,0.01,0,0.01,4,5,Invalid,2,20,59,start,lin,0.17789084457132767,0,0,0.17789084457132767,0,True,,,,,,,,,,,,,32,A,2023-11-16_15h13.43.413,exp3,2022.2.2,
low_opac_i,0.4,1,0.01,3,0.82,3.5,0.01,0,0.01,4,5,Invalid,2,21,60,start,lin,0.19674962198504412,0.19674962198504412,1,0.19674962198504412,1,True,,,,,,,,,,,,,32,A,2023-11-16_15h13.43.413,exp3,2022.2.2,
high_opac_v,0.01,1,0.01,3,0.82,3.5,0.01,0,0.01,4,5,Valid,1,21,61,start,lin,0.13427178592389163,0.13427178592389163,1,0.13427178592389163,1,True,,,,,,,,,,,,,32,A,2023-11-16_15h13.43.413,exp3,2022.2.2,
low_opac_v,0.4,1,0.01,3,0.82,3.5,0.01,0,0.01,4,5,Valid,0,21,62,start,lin,0.11092978689944927,0,1,0.11092978689944927,1,True,,,,,,,,,,,,,32,A,2023-11-16_15h13.43.413,exp3,2022.2.2,
low_opac_v,0.4,1,0.01,3,0.82,3.5,0.01,0,0.01,4,5,Valid,0,22,63,start,lin,0.10603708169955717,0.10603708169955717,1,0.10603708169955717,1,True,,,,,,,,,,,,,32,A,2023-11-16_15h13.43.413,exp3,2022.2.2,
high_opac_v,0.01,1,0.01,3,0.82,3.5,0.01,0,0.01,4,5,Valid,1,22,64,start,lin,0.12867713322785626,0,1,0.12867713322785626,1,True,,,,,,,,,,,,,32,A,2023-11-16_15h13.43.413,exp3,2022.2.2,
low_opac_i,0.4,1,0.01,3,0.82,3.5,0.01,0,0.01,4,5,Invalid,2,22,65,start,lin,0.19236597587318585,0,0,0.19236597587318585,0,True,,,,,,,,,,,,,32,A,2023-11-16_15h13.43.413,exp3,2022.2.2,
low_opac_i,0.4,1,0.01,3,0.82,3.5,0.01,0,0.01,4,5,Invalid,2,23,66,start,lin,0.2089775690619035,0.2089775690619035,1,0.2089775690619035,1,True,,,,,,,,,,,,,32,A,2023-11-16_15h13.43.413,exp3,2022.2.2,
low_opac_v,0.4,1,0.01,3,0.82,3.5,0.01,0,0.01,4,5,Valid,0,23,67,start,lin,0.10159430305008038,0.10159430305008038,0,0.10159430305008038,0,True,,,,,,,,,,,,,32,A,2023-11-16_15h13.43.413,exp3,2022.2.2,
high_opac_v,0.01,1,0.01,3,0.82,3.5,0.01,0,0.01,4,5,Valid,1,23,68,start,lin,0.12369717460472343,0,1,0.12369717460472343,1,True,,,,,,,,,,,,,32,A,2023-11-16_15h13.43.413,exp3,2022.2.2,
low_opac_i,0.4,1,0.01,3,0.82,3.5,0.01,0,0.01,4,5,Invalid,2,24,69,start,lin,0.2049130257121461,0,1,0.2049130257121461,1,True,,,,,,,,,,,,,32,A,2023-11-16_15h13.43.413,exp3,2022.2.2,
high_opac_v,0.01,1,0.01,3,0.82,3.5,0.01,0,0.01,4,5,Valid,1,24,70,start,lin,0.11877276255308548,0.11877276255308548,0,0.11877276255308548,0,True,,,,,,,,,,,,,32,A,2023-11-16_15h13.43.413,exp3,2022.2.2,
low_opac_v,0.4,1,0.01,3,0.82,3.5,0.01,0,0.01,4,5,Valid,0,24,71,start,lin,0.11864966834974433,0,0,0.11864966834974433,0,True,,,,,,,,,,,,,32,A,2023-11-16_15h13.43.413,exp3,2022.2.2,
low_opac_i,0.4,1,0.01,3,0.82,3.5,0.01,0,0.01,4,5,Invalid,2,25,72,start,lin,0.20086342789737457,0.20086342789737457,1,0.20086342789737457,1,True,,,,,,,,,,,,,32,A,2023-11-16_15h13.43.413,exp3,2022.2.2,
low_opac_v,0.4,1,0.01,3,0.82,3.5,0.01,0,0.01,4,5,Valid,0,25,73,start,lin,0.13478560026809883,0.13478560026809883,1,0.13478560026809883,1,True,,,,,,,,,,,,,32,A,2023-11-16_15h13.43.413,exp3,2022.2.2,
high_opac_v,0.01,1,0.01,3,0.82,3.5,0.01,0,0.01,4,5,Valid,1,25,74,start,lin,0.1366540310703641,0.1366540310703641,1,0.1366540310703641,1,True,,,,,,,,,,,,,32,A,2023-11-16_15h13.43.413,exp3,2022.2.2,
low_opac_v,0.4,1,0.01,3,0.82,3.5,0.01,0,0.01,4,5,Valid,0,26,75,start,lin,0.13084466471588307,0,1,0.13084466471588307,1,True,,,,,,,,,,,,,32,A,2023-11-16_15h13.43.413,exp3,2022.2.2,
low_opac_i,0.4,1,0.01,3,0.82,3.5,0.01,0,0.01,4,5,Invalid,2,26,76,start,lin,0.1971301249631179,0,0,0.1971301249631179,0,True,,,,,,,,,,,,,32,A,2023-11-16_15h13.43.413,exp3,2022.2.2,
high_opac_v,0.01,1,0.01,3,0.82,3.5,0.01,0,0.01,4,5,Valid,1,26,77,start,lin,0.13256196727719016,0,0,0.13256196727719016,0,True,,,,,,,,,,,,,32,A,2023-11-16_15h13.43.413,exp3,2022.2.2,
high_opac_v,0.01,1,0.01,3,0.82,3.5,0.01,0,0.01,4,5,Valid,1,27,78,start,lin,0.14819768404246994,0,1,0.14819768404246994,1,True,,,,,,,,,,,,,32,A,2023-11-16_15h13.43.413,exp3,2022.2.2,
low_opac_v,0.4,1,0.01,3,0.82,3.5,0.01,0,0.01,4,5,Valid,0,27,79,start,lin,0.12717533506329315,0,1,0.12717533506329315,1,True,,,,,,,,,,,,,32,A,2023-11-16_15h13.43.413,exp3,2022.2.2,
low_opac_i,0.4,1,0.01,3,0.82,3.5,0.01,0,0.01,4,5,Invalid,2,27,80,start,lin,0.21150836348197324,0,1,0.21150836348197324,1,True,,,,,,,,,,,,,32,A,2023-11-16_15h13.43.413,exp3,2022.2.2,
high_opac_v,0.01,1,0.01,3,0.82,3.5,0.01,0,0.01,4,5,Valid,1,28,81,start,lin,0.1444505128798933,0,1,0.1444505128798933,1,True,,,,,,,,,,,,,32,A,2023-11-16_15h13.43.413,exp3,2022.2.2,
low_opac_v,0.4,1,0.01,3,0.82,3.5,0.01,0,0.01,4,5,Valid,0,28,82,start,lin,0.1238042387614191,0,1,0.1238042387614191,1,True,,,,,,,,,,,,,32,A,2023-11-16_15h13.43.413,exp3,2022.2.2,
low_opac_i,0.4,1,0.01,3,0.82,3.5,0.01,0,0.01,4,5,Invalid,2,28,83,start,lin,0.20803294396102337,0.20803294396102337,1,0.20803294396102337,1,True,,,,,,,,,,,,,32,A,2023-11-16_15h13.43.413,exp3,2022.2.2,
low_opac_i,0.4,1,0.01,3,0.82,3.5,0.01,0,0.01,4,5,Invalid,2,29,84,start,lin,0.20485286335403158,0.20485286335403158,1,0.20485286335403158,1,True,,,,,,,,,,,,,32,A,2023-11-16_15h13.43.413,exp3,2022.2.2,
high_opac_v,0.01,1,0.01,3,0.82,3.5,0.01,0,0.01,4,5,Valid,1,29,85,start,lin,0.14067032712566707,0.14067032712566707,1,0.14067032712566707,1,True,,,,,,,,,,,,,32,A,2023-11-16_15h13.43.413,exp3,2022.2.2,
low_opac_v,0.4,1,0.01,3,0.82,3.5,0.01,0,0.01,4,5,Valid,0,29,86,start,lin,0.12035375089320166,0,1,0.12035375089320166,1,True,,,,,,,,,,,,,32,A,2023-11-16_15h13.43.413,exp3,2022.2.2,
low_opac_i,0.4,1,0.01,3,0.82,3.5,0.01,0,0.01,4,5,Invalid,2,30,87,start,lin,0.201621201878076,0.201621201878076,1,0.201621201878076,1,True,,,,,,,,,,,,,32,A,2023-11-16_15h13.43.413,exp3,2022.2.2,
low_opac_v,0.4,1,0.01,3,0.82,3.5,0.01,0,0.01,4,5,Valid,0,30,88,start,lin,0.11711258931272106,0,1,0.11711258931272106,1,True,,,,,,,,,,,,,32,A,2023-11-16_15h13.43.413,exp3,2022.2.2,
high_opac_v,0.01,1,0.01,3,0.82,3.5,0.01,0,0.01,4,5,Valid,1,30,89,start,lin,0.13715255907731136,0.13715255907731136,1,0.13715255907731136,1,True,,,,,,,,,,,,,32,A,2023-11-16_15h13.43.413,exp3,2022.2.2,
low_opac_v,0.4,1,0.01,3,0.82,3.5,0.01,0,0.01,4,5,Valid,0,31,90,start,lin,0.11410759313657026,0.11410759313657026,1,0.11410759313657026,1,True,,,,,,,,,,,,,32,A,2023-11-16_15h13.43.413,exp3,2022.2.2,
low_opac_i,0.4,1,0.01,3,0.82,3.5,0.01,0,0.01,4,5,Invalid,2,31,91,start,lin,0.19855944987088847,0.19855944987088847,1,0.19855944987088847,1,True,,,,,,,,,,,,,32,A,2023-11-16_15h13.43.413,exp3,2022.2.2,
high_opac_v,0.01,1,0.01,3,0.82,3.5,0.01,0,0.01,4,5,Valid,1,31,92,start,lin,0.1339169693093077,0,1,0.1339169693093077,1,True,,,,,,,,,,,,,32,A,2023-11-16_15h13.43.413,exp3,2022.2.2,
low_opac_i,0.4,1,0.01,3,0.82,3.5,0.01,0,0.01,4,5,Invalid,2,32,93,start,lin,0.19573011117369007,0.19573011117369007,1,0.19573011117369007,1,True,,,,,,,,,,,,,32,A,2023-11-16_15h13.43.413,exp3,2022.2.2,
high_opac_v,0.01,1,0.01,3,0.82,3.5,0.01,0,0.01,4,5,Valid,1,32,94,start,lin,0.13060280021071594,0.13060280021071594,0,0.13060280021071594,0,True,,,,,,,,,,,,,32,A,2023-11-16_15h13.43.413,exp3,2022.2.2,
low_opac_v,0.4,1,0.01,3,0.82,3.5,0.01,0,0.01,4,5,Valid,0,32,95,start,lin,0.11101129646621877,0.11101129646621877,1,0.11101129646621877,1,True,,,,,,,,,,,,,32,A,2023-11-16_15h13.43.413,exp3,2022.2.2,
high_opac_v,0.01,1,0.01,3,0.82,3.5,0.01,0,0.01,4,5,Valid,1,33,96,start,lin,0.14293911234173926,0,1,0.14293911234173926,1,True,,,,,,,,,,,,,32,A,2023-11-16_15h13.43.413,exp3,2022.2.2,
low_opac_v,0.4,1,0.01,3,0.82,3.5,0.01,0,0.01,4,5,Valid,0,33,97,start,lin,0.10805339059390279,0.10805339059390279,1,0.10805339059390279,1,True,,,,,,,,,,,,,32,A,2023-11-16_15h13.43.413,exp3,2022.2.2,
low_opac_i,0.4,1,0.01,3,0.82,3.5,0.01,0,0.01,4,5,Invalid,2,33,98,start,lin,0.19307626971800673,0.19307626971800673,1,0.19307626971800673,1,True,,,,,,,,,,,,,32,A,2023-11-16_15h13.43.413,exp3,2022.2.2,
high_opac_v,0.01,1,0.01,3,0.82,3.5,0.01,0,0.01,4,5,Valid,1,34,99,start,lin,0.1398919490047029,0,0,0.1398919490047029,0,True,,,,,,,,,,,,,32,A,2023-11-16_15h13.43.413,exp3,2022.2.2,
low_opac_v,0.4,1,0.01,3,0.82,3.5,0.01,0,0.01,4,5,Valid,0,34,100,start,lin,0.10529716162343444,0,1,0.10529716162343444,1,True,,,,,,,,,,,,,32,A,2023-11-16_15h13.43.413,exp3,2022.2.2,
low_opac_i,0.4,1,0.01,3,0.82,3.5,0.01,0,0.01,4,5,Invalid,2,34,101,start,lin,0.19031299690886103,0.19031299690886103,1,0.19031299690886103,1,True,,,,,,,,,,,,,32,A,2023-11-16_15h13.43.413,exp3,2022.2.2,
low_opac_v,0.4,1,0.01,3,0.82,3.5,0.01,0,0.01,4,5,Valid,0,35,102,start,lin,0.10269090232912648,0,1,0.10269090232912648,1,True,,,,,,,,,,,,,32,A,2023-11-16_15h13.43.413,exp3,2022.2.2,
low_opac_i,0.4,1,0.01,3,0.82,3.5,0.01,0,0.01,4,5,Invalid,2,35,103,start,lin,0.18769216518274837,0.18769216518274837,1,0.18769216518274837,1,True,,,,,,,,,,,,,32,A,2023-11-16_15h13.43.413,exp3,2022.2.2,
high_opac_v,0.01,1,0.01,3,0.82,3.5,0.01,0,0.01,4,5,Valid,1,35,104,start,lin,0.15138836735677846,0.15138836735677846,1,0.15138836735677846,1,True,,,,,,,,,,,,,32,A,2023-11-16_15h13.43.413,exp3,2022.2.2,
low_opac_v,0.4,1,0.01,3,0.82,3.5,0.01,0,0.01,4,5,Valid,0,36,105,start,lin,0.09995445774022749,0.09995445774022749,0,0.09995445774022749,0,True,,,,,,,,,,,,,32,A,2023-11-16_15h13.43.413,exp3,2022.2.2,
high_opac_v,0.01,1,0.01,3,0.82,3.5,0.01,0,0.01,4,5,Valid,1,36,106,start,lin,0.14857836223459425,0.14857836223459425,1,0.14857836223459425,1,True,,,,,,,,,,,,,32,A,2023-11-16_15h13.43.413,exp3,2022.2.2,
low_opac_i,0.4,1,0.01,3,0.82,3.5,0.01,0,0.01,4,5,Invalid,2,36,107,start,lin,0.1852466522545526,0,1,0.1852466522545526,1,True,,,,,,,,,,,,,32,A,2023-11-16_15h13.43.413,exp3,2022.2.2,
high_opac_v,0.01,1,0.01,3,0.82,3.5,0.01,0,0.01,4,5,Valid,1,37,108,start,lin,0.14596888947540387,0,1,0.14596888947540387,1,True,,,,,,,,,,,,,32,A,2023-11-16_15h13.43.413,exp3,2022.2.2,
low_opac_i,0.4,1,0.01,3,0.82,3.5,0.01,0,0.01,4,5,Invalid,2,37,109,start,lin,0.18292647514810717,0.18292647514810717,1,0.18292647514810717,1,True,,,,,,,,,,,,,32,A,2023-11-16_15h13.43.413,exp3,2022.2.2,
low_opac_v,0.4,1,0.01,3,0.82,3.5,0.01,0,0.01,4,5,Valid,0,37,110,start,lin,0.1103847030048341,0.1103847030048341,1,0.1103847030048341,1,True,,,,,,,,,,,,,32,A,2023-11-16_15h13.43.413,exp3,2022.2.2,
high_opac_v,0.01,1,0.01,3,0.82,3.5,0.01,0,0.01,4,5,Valid,1,38,111,start,lin,0.14351294433914807,0,1,0.14351294433914807,1,True,,,,,,,,,,,,,32,A,2023-11-16_15h13.43.413,exp3,2022.2.2,
low_opac_v,0.4,1,0.01,3,0.82,3.5,0.01,0,0.01,4,5,Valid,0,38,112,start,lin,0.10790021117278753,0,1,0.10790021117278753,1,True,,,,,,,,,,,,,32,A,2023-11-16_15h13.43.413,exp3,2022.2.2,
low_opac_i,0.4,1,0.01,3,0.82,3.5,0.01,0,0.01,4,5,Invalid,2,38,113,start,lin,0.18048779238062668,0,1,0.18048779238062668,1,True,,,,,,,,,,,,,32,A,2023-11-16_15h13.43.413,exp3,2022.2.2,
high_opac_v,0.01,1,0.01,3,0.82,3.5,0.01,0,0.01,4,5,Valid,1,39,114,start,lin,0.14095173149826823,0.14095173149826823,0,0.14095173149826823,0,True,,,,,,,,,,,,,32,A,2023-11-16_15h13.43.413,exp3,2022.2.2,
low_opac_v,0.4,1,0.01,3,0.82,3.5,0.01,0,0.01,4,5,Valid,0,39,115,start,lin,0.10557086693856982,0.10557086693856982,0,0.10557086693856982,0,True,,,,,,,,,,,,,32,A,2023-11-16_15h13.43.413,exp3,2022.2.2,
low_opac_i,0.4,1,0.01,3,0.82,3.5,0.01,0,0.01,4,5,Invalid,2,39,116,start,lin,0.17814298570824302,0,0,0.17814298570824302,0,True,,,,,,,,,,,,,32,A,2023-11-16_15h13.43.413,exp3,2022.2.2,
low_opac_v,0.4,1,0.01,3,0.82,3.5,0.01,0,0.01,4,5,Valid,0,40,117,start,lin,0.1152682606579934,0.1152682606579934,0,0.1152682606579934,0,True,,,,,,,,,,,,,32,A,2023-11-16_15h13.43.413,exp3,2022.2.2,
low_opac_i,0.4,1,0.01,3,0.82,3.5,0.01,0,0.01,4,5,Invalid,2,40,118,start,lin,0.18736179775689832,0,1,0.18736179775689832,1,True,,,,,,,,,,,,,32,A,2023-11-16_15h13.43.413,exp3,2022.2.2,
high_opac_v,0.01,1,0.01,3,0.82,3.5,0.01,0,0.01,4,5,Valid,1,40,119,start,lin,0.15064845025396664,0,1,0.15064845025396664,1,True,,,,,,,,,,,,,32,A,2023-11-16_15h13.43.413,exp3,2022.2.2,
low_opac_i,0.4,1,0.01,3,0.82,3.5,0.01,0,0.01,4,5,Invalid,2,41,120,start,lin,0.18526672566481112,0,0,0.18526672566481112,0,True,,,,,,,,,,,,,32,A,2023-11-16_15h13.43.413,exp3,2022.2.2,
low_opac_v,0.4,1,0.01,3,0.82,3.5,0.01,0,0.01,4,5,Valid,0,41,121,start,lin,0.12457624473317974,0,1,0.12457624473317974,1,True,,,,,,,,,,,,,32,A,2023-11-16_15h13.43.413,exp3,2022.2.2,
high_opac_v,0.01,1,0.01,3,0.82,3.5,0.01,0,0.01,4,5,Valid,1,41,122,start,lin,0.1482716595094574,0.1482716595094574,1,0.1482716595094574,1,True,,,,,,,,,,,,,32,A,2023-11-16_15h13.43.413,exp3,2022.2.2,
high_opac_v,0.01,1,0.01,3,0.82,3.5,0.01,0,0.01,4,5,Valid,1,42,123,start,lin,0.14604949016895427,0,1,0.14604949016895427,1,True,,,,,,,,,,,,,32,A,2023-11-16_15h13.43.413,exp3,2022.2.2,
low_opac_i,0.4,1,0.01,3,0.82,3.5,0.01,0,0.01,4,5,Invalid,2,42,124,start,lin,0.19413528913549064,0.19413528913549064,1,0.19413528913549064,1,True,,,,,,,,,,,,,32,A,2023-11-16_15h13.43.413,exp3,2022.2.2,
low_opac_v,0.4,1,0.01,3,0.82,3.5,0.01,0,0.01,4,5,Valid,0,42,125,start,lin,0.12237538926779407,0,1,0.12237538926779407,1,True,,,,,,,,,,,,,32,A,2023-11-16_15h13.43.413,exp3,2022.2.2,
low_opac_i,0.4,1,0.01,3,0.82,3.5,0.01,0,0.01,4,5,Invalid,2,43,126,start,lin,0.19203517120591274,0,1,0.19203517120591274,1,True,,,,,,,,,,,,,32,A,2023-11-16_15h13.43.413,exp3,2022.2.2,
high_opac_v,0.01,1,0.01,3,0.82,3.5,0.01,0,0.01,4,5,Valid,1,43,127,start,lin,0.14394264368451087,0,1,0.14394264368451087,1,True,,,,,,,,,,,,,32,A,2023-11-16_15h13.43.413,exp3,2022.2.2,
low_opac_v,0.4,1,0.01,3,0.82,3.5,0.01,0,0.01,4,5,Valid,0,43,128,start,lin,0.12023203422720208,0,1,0.12023203422720208,1,True,,,,,,,,,,,,,32,A,2023-11-16_15h13.43.413,exp3,2022.2.2,
high_opac_v,0.01,1,0.01,3,0.82,3.5,0.01,0,0.01,4,5,Valid,1,44,129,start,lin,0.1417353202673975,0.1417353202673975,1,0.1417353202673975,1,True,,,,,,,,,,,,,32,A,2023-11-16_15h13.43.413,exp3,2022.2.2,
low_opac_v,0.4,1,0.01,3,0.82,3.5,0.01,0,0.01,4,5,Valid,0,44,130,start,lin,0.11816653701146257,0.11816653701146257,1,0.11816653701146257,1,True,,,,,,,,,,,,,32,A,2023-11-16_15h13.43.413,exp3,2022.2.2,
low_opac_i,0.4,1,0.01,3,0.82,3.5,0.01,0,0.01,4,5,Invalid,2,44,131,start,lin,0.1899831911559763,0,1,0.1899831911559763,1,True,,,,,,,,,,,,,32,A,2023-11-16_15h13.43.413,exp3,2022.2.2,
high_opac_v,0.01,1,0.01,3,0.82,3.5,0.01,0,0.01,4,5,Valid,1,45,132,start,lin,0.13958175324140823,0,1,0.13958175324140823,1,True,,,,,,,,,,,,,32,A,2023-11-16_15h13.43.413,exp3,2022.2.2,
low_opac_i,0.4,1,0.01,3,0.82,3.5,0.01,0,0.01,4,5,Invalid,2,45,133,start,lin,0.18801751002607575,0,1,0.18801751002607575,1,True,,,,,,,,,,,,,32,A,2023-11-16_15h13.43.413,exp3,2022.2.2,
low_opac_v,0.4,1,0.01,3,0.82,3.5,0.01,0,0.01,4,5,Valid,0,45,134,start,lin,0.11622096514225638,0.11622096514225638,1,0.11622096514225638,1,True,,,,,,,,,,,,,32,A,2023-11-16_15h13.43.413,exp3,2022.2.2,
high_opac_v,0.01,1,0.01,3,0.82,3.5,0.01,0,0.01,4,5,Valid,1,46,135,start,lin,0.1375372258679172,0.1375372258679172,1,0.1375372258679172,1,True,,,,,,,,,,,,,32,A,2023-11-16_15h13.43.413,exp3,2022.2.2,
low_opac_i,0.4,1,0.01,3,0.82,3.5,0.01,0,0.01,4,5,Invalid,2,46,136,start,lin,0.18616285138564712,0.18616285138564712,1,0.18616285138564712,1,True,,,,,,,,,,,,,32,A,2023-11-16_15h13.43.413,exp3,2022.2.2,
low_opac_v,0.4,1,0.01,3,0.82,3.5,0.01,0,0.01,4,5,Valid,0,46,137,start,lin,0.11436549585433459,0,1,0.11436549585433459,1,True,,,,,,,,,,,,,32,A,2023-11-16_15h13.43.413,exp3,2022.2.2,
high_opac_v,0.01,1,0.01,3,0.82,3.5,0.01,0,0.01,4,5,Valid,1,47,138,start,lin,0.13560579545568094,0,1,0.13560579545568094,1,True,,,,,,,,,,,,,32,A,2023-11-16_15h13.43.413,exp3,2022.2.2,
low_opac_i,0.4,1,0.01,3,0.82,3.5,0.01,0,0.01,4,5,Invalid,2,47,139,start,lin,0.18439162255044017,0,1,0.18439162255044017,1,True,,,,,,,,,,,,,32,A,2023-11-16_15h13.43.413,exp3,2022.2.2,
low_opac_v,0.4,1,0.01,3,0.82,3.5,0.01,0,0.01,4,5,Valid,0,47,140,start,lin,0.11241389838310334,0,1,0.11241389838310334,1,True,,,,,,,,,,,,,32,A,2023-11-16_15h13.43.413,exp3,2022.2.2,
low_opac_i,0.4,1,0.01,3,0.82,3.5,0.01,0,0.01,4,5,Invalid,2,48,141,start,lin,0.18252710835027097,0.18252710835027097,0,0.18252710835027097,0,True,,,,,,,,,,,,,32,A,2023-11-16_15h13.43.413,exp3,2022.2.2,
low_opac_v,0.4,1,0.01,3,0.82,3.5,0.01,0,0.01,4,5,Valid,0,48,142,start,lin,0.11050315009799816,0.11050315009799816,1,0.11050315009799816,1,True,,,,,,,,,,,,,32,A,2023-11-16_15h13.43.413,exp3,2022.2.2,
high_opac_v,0.01,1,0.01,3,0.82,3.5,0.01,0,0.01,4,5,Valid,1,48,143,start,lin,0.13375787511860174,0,1,0.13375787511860174,1,True,,,,,,,,,,,,,32,A,2023-11-16_15h13.43.413,exp3,2022.2.2,
high_opac_v,0.01,1,0.01,3,0.82,3.5,0.01,0,0.01,4,5,Valid,1,49,144,start,lin,0.13180679369433695,0.13180679369433695,0,0.13180679369433695,0,True,,,,,,,,,,,,,32,A,2023-11-16_15h13.43.413,exp3,2022.2.2,
low_opac_i,0.4,1,0.01,3,0.82,3.5,0.01,0,0.01,4,5,Invalid,2,49,145,start,lin,0.1896158830358443,0,1,0.1896158830358443,1,True,,,,,,,,,,,,,32,A,2023-11-16_15h13.43.413,exp3,2022.2.2,
low_opac_v,0.4,1,0.01,3,0.82,3.5,0.01,0,0.01,4,5,Valid,0,49,146,start,lin,0.10863639469751152,0.10863639469751152,1,0.10863639469751152,1,True,,,,,,,,,,,,,32,A,2023-11-16_15h13.43.413,exp3,2022.2.2,
high_opac_v,0.01,1,0.01,3,0.82,3.5,0.01,0,0.01,4,5,Valid,1,50,147,start,lin,0.13924854661541325,0.13924854661541325,1,0.13924854661541325,1,True,,,,,,,,,,,,,32,A,2023-11-16_15h13.43.413,exp3,2022.2.2,
low_opac_v,0.4,1,0.01,3,0.82,3.5,0.01,0,0.01,4,5,Valid,0,50,148,start,lin,0.10686989488279341,0.10686989488279341,1,0.10686989488279341,1,True,,,,,,,,,,,,,32,A,2023-11-16_15h13.43.413,exp3,2022.2.2,
low_opac_i,0.4,1,0.01,3,0.82,3.5,0.01,0,0.01,4,5,Invalid,2,50,149,start,lin,0.18787652173693636,0.18787652173693636,1,0.18787652173693636,1,True,,,,,,,,,,,,,32,A,2023-11-16_15h13.43.413,exp3,2022.2.2,
low_opac_i,0.4,1,0.01,3,0.82,3.5,0.01,0,0.01,4,5,Invalid,2,51,150,start,lin,0.18622701176860262,0.18622701176860262,1,0.18622701176860262,1,True,,,,,,,,,,,,,32,A,2023-11-16_15h13.43.413,exp3,2022.2.2,
high_opac_v,0.01,1,0.01,3,0.82,3.5,0.01,0,0.01,4,5,Valid,1,51,151,start,lin,0.13744791662928502,0.13744791662928502,1,0.13744791662928502,1,True,,,,,,,,,,,,,32,A,2023-11-16_15h13.43.413,exp3,2022.2.2,
low_opac_v,0.4,1,0.01,3,0.82,3.5,0.01,0,0.01,4,5,Valid,0,51,152,start,lin,0.10518397210107217,0.10518397210107217,1,0.10518397210107217,1,True,,,,,,,,,,,,,32,A,2023-11-16_15h13.43.413,exp3,2022.2.2,
high_opac_v,0.01,1,0.01,3,0.82,3.5,0.01,0,0.01,4,5,Valid,1,52,153,start,lin,0.13573813509900054,0,0,0.13573813509900054,0,True,,,,,,,,,,,,,32,A,2023-11-16_15h13.43.413,exp3,2022.2.2,
low_opac_v,0.4,1,0.01,3,0.82,3.5,0.01,0,0.01,4,5,Valid,0,52,154,start,lin,0.10355721267878559,0.10355721267878559,1,0.10355721267878559,1,True,,,,,,,,,,,,,32,A,2023-11-16_15h13.43.413,exp3,2022.2.2,
low_opac_i,0.4,1,0.01,3,0.82,3.5,0.01,0,0.01,4,5,Invalid,2,52,155,start,lin,0.18464590982020157,0.18464590982020157,1,0.18464590982020157,1,True,,,,,,,,,,,,,32,A,2023-11-16_15h13.43.413,exp3,2022.2.2,
low_opac_i,0.4,1,0.01,3,0.82,3.5,0.01,0,0.01,4,5,Invalid,2,53,156,start,lin,0.1829778403721581,0,0,0.1829778403721581,0,True,,,,,,,,,,,,,32,A,2023-11-16_15h13.43.413,exp3,2022.2.2,
low_opac_v,0.4,1,0.01,3,0.82,3.5,0.01,0,0.01,4,5,Valid,0,53,157,start,lin,0.10182676644699457,0,1,0.10182676644699457,1,True,,,,,,,,,,,,,32,A,2023-11-16_15h13.43.413,exp3,2022.2.2,
high_opac_v,0.01,1,0.01,3,0.82,3.5,0.01,0,0.01,4,5,Valid,1,53,158,start,lin,0.14305009243923855,0,1,0.14305009243923855,1,True,,,,,,,,,,,,,32,A,2023-11-16_15h13.43.413,exp3,2022.2.2,
low_opac_i,0.4,1,0.01,3,0.82,3.5,0.01,0,0.01,4,5,Invalid,2,54,159,start,lin,0.18932475839338705,0,1,0.18932475839338705,1,True,,,,,,,,,,,,,32,A,2023-11-16_15h13.43.413,exp3,2022.2.2,
low_opac_v,0.4,1,0.01,3,0.82,3.5,0.01,0,0.01,4,5,Valid,0,54,160,start,lin,0.10011757221711215,0,1,0.10011757221711215,1,True,,,,,,,,,,,,,32,A,2023-11-16_15h13.43.413,exp3,2022.2.2,
high_opac_v,0.01,1,0.01,3,0.82,3.5,0.01,0,0.01,4,5,Valid,1,54,161,start,lin,0.14132626060392955,0.14132626060392955,1,0.14132626060392955,1,True,,,,,,,,,,,,,32,A,2023-11-16_15h13.43.413,exp3,2022.2.2,
high_opac_v,0.01,1,0.01,3,0.82,3.5,0.01,0,0.01,4,5,Valid,1,55,162,start,lin,0.13962425696997266,0,1,0.13962425696997266,1,True,,,,,,,,,,,,,32,A,2023-11-16_15h13.43.413,exp3,2022.2.2,
low_opac_v,0.4,1,0.01,3,0.82,3.5,0.01,0,0.01,4,5,Valid,0,55,163,start,lin,0.09844708484951104,0,1,0.09844708484951104,1,True,,,,,,,,,,,,,32,A,2023-11-16_15h13.43.413,exp3,2022.2.2,
low_opac_i,0.4,1,0.01,3,0.82,3.5,0.01,0,0.01,4,5,Invalid,2,55,164,start,lin,0.18776523360264216,0,1,0.18776523360264216,1,True,,,,,,,,,,,,,32,A,2023-11-16_15h13.43.413,exp3,2022.2.2,
low_opac_i,0.4,1,0.01,3,0.82,3.5,0.01,0,0.01,4,5,Invalid,2,56,165,start,lin,0.18628024430869106,0,0,0.18628024430869106,0,True,,,,,,,,,,,,,32,A,2023-11-16_15h13.43.413,exp3,2022.2.2,
low_opac_v,0.4,1,0.01,3,0.82,3.5,0.01,0,0.01,4,5,Valid,0,56,166,start,lin,0.09686099213818089,0,1,0.09686099213818089,1,True,,,,,,,,,,,,,32,A,2023-11-16_15h13.43.413,exp3,2022.2.2,
high_opac_v,0.01,1,0.01,3,0.82,3.5,0.01,0,0.01,4,5,Valid,1,56,167,start,lin,0.137994729130503,0.137994729130503,1,0.137994729130503,1,True,,,,,,,,,,,,,32,A,2023-11-16_15h13.43.413,exp3,2022.2.2,
low_opac_v,0.4,1,0.01,3,0.82,3.5,0.01,0,0.01,4,5,Valid,0,57,168,start,lin,0.09534072826606449,0.09534072826606449,0,0.09534072826606449,0,True,,,,,,,,,,,,,32,A,2023-11-16_15h13.43.413,exp3,2022.2.2,
low_opac_i,0.4,1,0.01,3,0.82,3.5,0.01,0,0.01,4,5,Invalid,2,57,169,start,lin,0.19263959522808194,0.19263959522808194,1,0.19263959522808194,1,True,,,,,,,,,,,,,32,A,2023-11-16_15h13.43.413,exp3,2022.2.2,
high_opac_v,0.01,1,0.01,3,0.82,3.5,0.01,0,0.01,4,5,Valid,1,57,170,start,lin,0.13644670895794353,0.13644670895794353,1,0.13644670895794353,1,True,,,,,,,,,,,,,32,A,2023-11-16_15h13.43.413,exp3,2022.2.2,
low_opac_i,0.4,1,0.01,3,0.82,3.5,0.01,0,0.01,4,5,Invalid,2,58,171,start,lin,0.1911382731055353,0,1,0.1911382731055353,1,True,,,,,,,,,,,,,32,A,2023-11-16_15h13.43.413,exp3,2022.2.2,
high_opac_v,0.01,1,0.01,3,0.82,3.5,0.01,0,0.01,4,5,Valid,1,58,172,start,lin,0.13496144852406444,0,1,0.13496144852406444,1,True,,,,,,,,,,,,,32,A,2023-11-16_15h13.43.413,exp3,2022.2.2,
low_opac_v,0.4,1,0.01,3,0.82,3.5,0.01,0,0.01,4,5,Valid,0,58,173,start,lin,0.10195680486857656,0.10195680486857656,1,0.10195680486857656,1,True,,,,,,,,,,,,,32,A,2023-11-16_15h13.43.413,exp3,2022.2.2,
low_opac_v,0.4,1,0.01,3,0.82,3.5,0.01,0,0.01,4,5,Valid,0,59,174,start,lin,0.10041522867002278,0,1,0.10041522867002278,1,True,,,,,,,,,,,,,32,A,2023-11-16_15h13.43.413,exp3,2022.2.2,
low_opac_i,0.4,1,0.01,3,0.82,3.5,0.01,0,0.01,4,5,Invalid,2,59,175,start,lin,0.18964812554990762,0.18964812554990762,1,0.18964812554990762,1,True,,,,,,,,,,,,,32,A,2023-11-16_15h13.43.413,exp3,2022.2.2,
high_opac_v,0.01,1,0.01,3,0.82,3.5,0.01,0,0.01,4,5,Valid,1,59,176,start,lin,0.1333944403251787,0.1333944403251787,1,0.1333944403251787,1,True,,,,,,,,,,,,,32,A,2023-11-16_15h13.43.413,exp3,2022.2.2,
high_opac_v,0.01,1,0.01,3,0.82,3.5,0.01,0,0.01,4,5,Valid,1,60,177,start,lin,0.13185957190938136,0,0,0.13185957190938136,0,True,,,,,,,,,,,,,32,A,2023-11-16_15h13.43.413,exp3,2022.2.2,
low_opac_v,0.4,1,0.01,3,0.82,3.5,0.01,0,0.01,4,5,Valid,0,60,178,start,lin,0.09889289513216354,0,1,0.09889289513216354,1,True,,,,,,,,,,,,,32,A,2023-11-16_15h13.43.413,exp3,2022.2.2,
low_opac_i,0.4,1,0.01,3,0.82,3.5,0.01,0,0.01,4,5,Invalid,2,60,179,start,lin,0.18821655584120733,0.18821655584120733,1,0.18821655584120733,1,True,,,,,,,,,,,,,32,A,2023-11-16_15h13.43.413,exp3,2022.2.2,
high_opac_v,0.01,1,0.01,3,0.82,3.5,0.01,0,0.01,4,5,Valid,1,61,180,start,lin,0.13775852592764642,0,1,0.13775852592764642,1,True,,,,,,,,,,,,,32,A,2023-11-16_15h13.43.413,exp3,2022.2.2,
low_opac_i,0.4,1,0.01,3,0.82,3.5,0.01,0,0.01,4,5,Invalid,2,61,181,start,lin,0.18685318121926067,0.18685318121926067,1,0.18685318121926067,1,True,,,,,,,,,,,,,32,A,2023-11-16_15h13.43.413,exp3,2022.2.2,
low_opac_v,0.4,1,0.01,3,0.82,3.5,0.01,0,0.01,4,5,Valid,0,61,182,start,lin,0.09744266431387716,0.09744266431387716,0,0.09744266431387716,0,True,,,,,,,,,,,,,32,A,2023-11-16_15h13.43.413,exp3,2022.2.2,
high_opac_v,0.01,1,0.01,3,0.82,3.5,0.01,0,0.01,4,5,Valid,1,62,183,start,lin,0.1363595383219117,0.1363595383219117,1,0.1363595383219117,1,True,,,,,,,,,,,,,32,A,2023-11-16_15h13.43.413,exp3,2022.2.2,
low_opac_v,0.4,1,0.01,3,0.82,3.5,0.01,0,0.01,4,5,Valid,0,62,184,start,lin,0.10347648698226763,0.10347648698226763,1,0.10347648698226763,1,True,,,,,,,,,,,,,32,A,2023-11-16_15h13.43.413,exp3,2022.2.2,
low_opac_i,0.4,1,0.01,3,0.82,3.5,0.01,0,0.01,4,5,Invalid,2,62,185,start,lin,0.18554350359954336,0.18554350359954336,1,0.18554350359954336,1,True,,,,,,,,,,,,,32,A,2023-11-16_15h13.43.413,exp3,2022.2.2,
high_opac_v,0.01,1,0.01,3,0.82,3.5,0.01,0,0.01,4,5,Valid,1,63,186,start,lin,0.13501273285769122,0,1,0.13501273285769122,1,True,,,,,,,,,,,,,32,A,2023-11-16_15h13.43.413,exp3,2022.2.2,
low_opac_i,0.4,1,0.01,3,0.82,3.5,0.01,0,0.01,4,5,Invalid,2,63,187,start,lin,0.1842746784567895,0,1,0.1842746784567895,1,True,,,,,,,,,,,,,32,A,2023-11-16_15h13.43.413,exp3,2022.2.2,
low_opac_v,0.4,1,0.01,3,0.82,3.5,0.01,0,0.01,4,5,Valid,0,63,188,start,lin,0.10206099221021525,0,1,0.10206099221021525,1,True,,,,,,,,,,,,,32,A,2023-11-16_15h13.43.413,exp3,2022.2.2,
high_opac_v,0.01,1,0.01,3,0.82,3.5,0.01,0,0.01,4,5,Valid,1,64,189,start,lin,0.1337047292634576,0.1337047292634576,1,0.1337047292634576,1,True,,,,,,,,,,,,,32,A,2023-11-16_15h13.43.413,exp3,2022.2.2,
low_opac_v,0.4,1,0.01,3,0.82,3.5,0.01,0,0.01,4,5,Valid,0,64,190,start,lin,0.10065727262868945,0,1,0.10065727262868945,1,True,,,,,,,,,,,,,32,A,2023-11-16_15h13.43.413,exp3,2022.2.2,
low_opac_i,0.4,1,0.01,3,0.82,3.5,0.01,0,0.01,4,5,Invalid,2,64,191,start,lin,0.1829236388210157,0,1,0.1829236388210157,1,True,,,,,,,,,,,,,32,A,2023-11-16_15h13.43.413,exp3,2022.2.2,
low_opac_i,0.4,1,0.01,3,0.82,3.5,0.01,0,0.01,4,5,Invalid,2,65,192,start,lin,0.18159090490756705,0.18159090490756705,1,0.18159090490756705,1,True,,,,,,,,,,,,,32,A,2023-11-16_15h13.43.413,exp3,2022.2.2,
high_opac_v,0.01,1,0.01,3,0.82,3.5,0.01,0,0.01,4,5,Valid,1,65,193,start,lin,0.13230734692330756,0.13230734692330756,1,0.13230734692330756,1,True,,,,,,,,,,,,,32,A,2023-11-16_15h13.43.413,exp3,2022.2.2,
low_opac_v,0.4,1,0.01,3,0.82,3.5,0.01,0,0.01,4,5,Valid,0,65,194,start,lin,0.09926041436735256,0,1,0.09926041436735256,1,True,,,,,,,,,,,,,32,A,2023-11-16_15h13.43.413,exp3,2022.2.2,
high_opac_v,0.01,1,0.01,3,0.82,3.5,0.01,0,0.01,4,5,Valid,1,66,195,start,lin,0.13092439768604808,0.13092439768604808,1,0.13092439768604808,1,True,,,,,,,,,,,,,32,A,2023-11-16_15h13.43.413,exp3,2022.2.2,
low_opac_i,0.4,1,0.01,3,0.82,3.5,0.01,0,0.01,4,5,Invalid,2,66,196,start,lin,0.18026416877533974,0,1,0.18026416877533974,1,True,,,,,,,,,,,,,32,A,2023-11-16_15h13.43.413,exp3,2022.2.2,
low_opac_v,0.4,1,0.01,3,0.82,3.5,0.01,0,0.01,4,5,Valid,0,66,197,start,lin,0.09792195517069219,0,1,0.09792195517069219,1,True,,,,,,,,,,,,,32,A,2023-11-16_15h13.43.413,exp3,2022.2.2,
high_opac_v,0.01,1,0.01,3,0.82,3.5,0.01,0,0.01,4,5,Valid,1,67,198,start,lin,0.12954635850676074,0,1,0.12954635850676074,1,True,,,,,,,,,,,,,32,A,2023-11-16_15h13.43.413,exp3,2022.2.2,
low_opac_v,0.4,1,0.01,3,0.82,3.5,0.01,0,0.01,4,5,Valid,0,67,199,start,lin,0.09664099131044085,0,1,0.09664099131044085,1,True,,,,,,,,,,,,,32,A,2023-11-16_15h13.43.413,exp3,2022.2.2,
low_opac_i,0.4,1,0.01,3,0.82,3.5,0.01,0,0.01,4,5,Invalid,2,67,200,start,lin,0.17895511675853956,0.17895511675853956,1,0.17895511675853956,1,True,,,,,,,,,,,,,32,A,2023-11-16_15h13.43.413,exp3,2022.2.2,
low_opac_i,0.4,1,0.01,3,0.82,3.5,0.01,0,0.01,4,5,Invalid,2,68,201,start,lin,0.17770710828961206,0,1,0.17770710828961206,1,True,,,,,,,,,,,,,32,A,2023-11-16_15h13.43.413,exp3,2022.2.2,
high_opac_v,0.01,1,0.01,3,0.82,3.5,0.01,0,0.01,4,5,Valid,1,68,202,start,lin,0.12822016381063922,0.12822016381063922,1,0.12822016381063922,1,True,,,,,,,,,,,,,32,A,2023-11-16_15h13.43.413,exp3,2022.2.2,
low_opac_v,0.4,1,0.01,3,0.82,3.5,0.01,0,0.01,4,5,Valid,0,68,203,start,lin,0.09540516048014297,0,1,0.09540516048014297,1,True,,,,,,,,,,,,,32,A,2023-11-16_15h13.43.413,exp3,2022.2.2,
high_opac_v,0.01,1,0.01,3,0.82,3.5,0.01,0,0.01,4,5,Valid,1,69,204,start,lin,0.12695359789857452,0,1,0.12695359789857452,1,True,,,,,,,,,,,,,32,A,2023-11-16_15h13.43.413,exp3,2022.2.2,
low_opac_i,0.4,1,0.01,3,0.82,3.5,0.01,0,0.01,4,5,Invalid,2,69,205,start,lin,0.1765103107401202,0.1765103107401202,0,0.1765103107401202,0,True,,,,,,,,,,,,,32,A,2023-11-16_15h13.43.413,exp3,2022.2.2,
low_opac_v,0.4,1,0.01,3,0.82,3.5,0.01,0,0.01,4,5,Valid,0,69,206,start,lin,0.09420337766928288,0,1,0.09420337766928288,1,True,,,,,,,,,,,,,32,A,2023-11-16_15h13.43.413,exp3,2022.2.2,
low_opac_i,0.4,1,0.01,3,0.82,3.5,0.01,0,0.01,4,5,Invalid,2,70,207,start,lin,0.18169958772652567,0,1,0.18169958772652567,1,True,,,,,,,,,,,,,32,A,2023-11-16_15h13.43.413,exp3,2022.2.2,
high_opac_v,0.01,1,0.01,3,0.82,3.5,0.01,0,0.01,4,5,Valid,1,70,208,start,lin,0.12573436358678225,0,1,0.12573436358678225,1,True,,,,,,,,,,,,,32,A,2023-11-16_15h13.43.413,exp3,2022.2.2,
low_opac_v,0.4,1,0.01,3,0.82,3.5,0.01,0,0.01,4,5,Valid,0,70,209,start,lin,0.09291908256537718,0,1,0.09291908256537718,1,True,,,,,,,,,,,,,32,A,2023-11-16_15h13.43.413,exp3,2022.2.2,
high_opac_v,0.01,1,0.01,3,0.82,3.5,0.01,0,0.01,4,5,Valid,1,71,210,start,lin,0.1245514735192719,0.1245514735192719,1,0.1245514735192719,1,True,,,,,,,,,,,,,32,A,2023-11-16_15h13.43.413,exp3,2022.2.2,
low_opac_i,0.4,1,0.01,3,0.82,3.5,0.01,0,0.01,4,5,Invalid,2,71,211,start,lin,0.18047586877830896,0.18047586877830896,1,0.18047586877830896,1,True,,,,,,,,,,,,,32,A,2023-11-16_15h13.43.413,exp3,2022.2.2,
low_opac_v,0.4,1,0.01,3,0.82,3.5,0.01,0,0.01,4,5,Valid,0,71,212,start,lin,0.09164860064641867,0,1,0.09164860064641867,1,True,,,,,,,,,,,,,32,A,2023-11-16_15h13.43.413,exp3,2022.2.2,
low_opac_i,0.4,1,0.01,3,0.82,3.5,0.01,0,0.01,4,5,Invalid,2,72,213,start,lin,0.1792580215684668,0.1792580215684668,1,0.1792580215684668,1,True,,,,,,,,,,,,,32,A,2023-11-16_15h13.43.413,exp3,2022.2.2,
high_opac_v,0.01,1,0.01,3,0.82,3.5,0.01,0,0.01,4,5,Valid,1,72,214,start,lin,0.12329105924980513,0.12329105924980513,1,0.12329105924980513,1,True,,,,,,,,,,,,,32,A,2023-11-16_15h13.43.413,exp3,2022.2.2,
low_opac_v,0.4,1,0.01,3,0.82,3.5,0.01,0,0.01,4,5,Valid,0,72,215,start,lin,0.09038091063225684,0,1,0.09038091063225684,1,True,,,,,,,,,,,,,32,A,2023-11-16_15h13.43.413,exp3,2022.2.2,
low_opac_v,0.4,1,0.01,3,0.82,3.5,0.01,0,0.01,4,5,Valid,0,73,216,start,lin,0.08911686650467998,0,1,0.08911686650467998,1,True,,,,,,,,,,,,,32,A,2023-11-16_15h13.43.413,exp3,2022.2.2,
low_opac_i,0.4,1,0.01,3,0.82,3.5,0.01,0,0.01,4,5,Invalid,2,73,217,start,lin,0.17809204711719623,0.17809204711719623,1,0.17809204711719623,1,True,,,,,,,,,,,,,32,A,2023-11-16_15h13.43.413,exp3,2022.2.2,
high_opac_v,0.01,1,0.01,3,0.82,3.5,0.01,0,0.01,4,5,Valid,1,73,218,start,lin,0.12204765151857494,0,1,0.12204765151857494,1,True,,,,,,,,,,,,,32,A,2023-11-16_15h13.43.413,exp3,2022.2.2,
low_opac_v,0.4,1,0.01,3,0.82,3.5,0.01,0,0.01,4,5,Valid,0,74,219,start,lin,0.08790547790716452,0,1,0.08790547790716452,1,True,,,,,,,,,,,,,32,A,2023-11-16_15h13.43.413,exp3,2022.2.2,
high_opac_v,0.01,1,0.01,3,0.82,3.5,0.01,0,0.01,4,5,Valid,1,74,220,start,lin,0.12081050537638761,0,1,0.12081050537638761,1,True,,,,,,,,,,,,,32,A,2023-11-16_15h13.43.413,exp3,2022.2.2,
low_opac_i,0.4,1,0.01,3,0.82,3.5,0.01,0,0.01,4,5,Invalid,2,74,221,start,lin,0.1769744968389725,0,1,0.1769744968389725,1,True,,,,,,,,,,,,,32,A,2023-11-16_15h13.43.413,exp3,2022.2.2,
high_opac_v,0.01,1,0.01,3,0.82,3.5,0.01,0,0.01,4,5,Valid,1,75,222,start,lin,0.11957146753658003,0,1,0.11957146753658003,1,True,,,,,,,,,,,,,32,A,2023-11-16_15h13.43.413,exp3,2022.2.2,
low_opac_i,0.4,1,0.01,3,0.82,3.5,0.01,0,0.01,4,5,Invalid,2,75,223,start,lin,0.1758958778518723,0,1,0.1758958778518723,1,True,,,,,,,,,,,,,32,A,2023-11-16_15h13.43.413,exp3,2022.2.2,
low_opac_v,0.4,1,0.01,3,0.82,3.5,0.01,0,0.01,4,5,Valid,0,75,224,start,lin,0.08674246357109894,0.08674246357109894,1,0.08674246357109894,1,True,,,,,,,,,,,,,32,A,2023-11-16_15h13.43.413,exp3,2022.2.2,
,,,,,,,,,,,,,,,,,,,,,,,,0,1716,Valid,noise,-45,2,5.963643800001591,1,2.0,7.271352999843657,True,1,32,A,2023-11-16_15h13.43.413,exp3,2022.2.2,
,,,,,,,,,,,,,,,,,,,,,,,,0,1716,Valid,signal,45,2,1.718968499917537,0,2.0,3.0293048000894487,True,1,32,A,2023-11-16_15h13.43.413,exp3,2022.2.2,
,,,,,,,,,,,,,,,,,,,,,,,,0,1716,Valid,noise,-45,2,2.2380562000907958,1,3.0,3.5459463000297546,True,1,32,A,2023-11-16_15h13.43.413,exp3,2022.2.2,
,,,,,,,,,,,,,,,,,,,,,,,,0,-1716,Valid,noise,45,2,2.3719057000707835,1,3.0,3.6796695000957698,True,1,32,A,2023-11-16_15h13.43.413,exp3,2022.2.2,
,,,,,,,,,,,,,,,,,,,,,,,,0,-1158,Valid,noise,45,1,2.1890684999525547,0,2.0,3.496551200048998,True,1,32,A,2023-11-16_15h13.43.413,exp3,2022.2.2,
,,,,,,,,,,,,,,,,,,,,,,,,0,-1158,Valid,noise,-45,2,1.871130800107494,1,2.0,3.17899309983477,True,1,32,A,2023-11-16_15h13.43.413,exp3,2022.2.2,
,,,,,,,,,,,,,,,,,,,,,,,,0,-1716,Valid,signal,45,1,1.8889152000192553,1,2.0,3.1968125000130385,True,1,32,A,2023-11-16_15h13.43.413,exp3,2022.2.2,
,,,,,,,,,,,,,,,,,,,,,,,,0,1716,Valid,signal,45,2,2.454559300094843,0,2.0,3.7625527000054717,True,1,32,A,2023-11-16_15h13.43.413,exp3,2022.2.2,
,,,,,,,,,,,,,,,,,,,,,,,,0,-1716,Valid,signal,45,2,4.389182500075549,0,1.0,5.697239800123498,True,1,32,A,2023-11-16_15h13.43.413,exp3,2022.2.2,
,,,,,,,,,,,,,,,,,,,,,,,,0,1716,Invalid,signal,-45,1,1.971673599909991,1,2.0,3.279424900189042,True,1,32,A,2023-11-16_15h13.43.413,exp3,2022.2.2,
,,,,,,,,,,,,,,,,,,,,,,,,0,2274,Valid,signal,-45,2,4.056147800059989,0,1.0,5.36390439979732,True,1,32,A,2023-11-16_15h13.43.413,exp3,2022.2.2,
,,,,,,,,,,,,,,,,,,,,,,,,0,1716,Valid,signal,-45,2,1.7045747998636216,0,2.0,3.0122301001101732,True,1,32,A,2023-11-16_15h13.43.413,exp3,2022.2.2,
,,,,,,,,,,,,,,,,,,,,,,,,0,-2274,Valid,signal,-45,2,2.721661200048402,0,1.0,4.029445900116116,True,1,32,A,2023-11-16_15h13.43.413,exp3,2022.2.2,
,,,,,,,,,,,,,,,,,,,,,,,,0,1716,Valid,noise,45,2,1.572062199935317,1,2.0,2.8798519000411034,True,1,32,A,2023-11-16_15h13.43.413,exp3,2022.2.2,
,,,,,,,,,,,,,,,,,,,,,,,,0,-2274,Valid,noise,-45,2,1.6049285000190139,1,2.0,2.9125000999774784,True,1,32,A,2023-11-16_15h13.43.413,exp3,2022.2.2,
,,,,,,,,,,,,,,,,,,,,,,,,0,-557,Valid,noise,-45,2,1.9214999000541866,1,3.0,3.229356899857521,True,1,32,A,2023-11-16_15h13.43.413,exp3,2022.2.2,
,,,,,,,,,,,,,,,,,,,,,,,,0,1716,Valid,signal,-45,2,2.2049447000026703,0,2.0,3.512976699974388,True,1,32,A,2023-11-16_15h13.43.413,exp3,2022.2.2,
,,,,,,,,,,,,,,,,,,,,,,,,0,1716,Valid,noise,45,2,1.8384764001239091,1,2.0,3.1461779999081045,True,1,32,A,2023-11-16_15h13.43.413,exp3,2022.2.2,
,,,,,,,,,,,,,,,,,,,,,,,,0,-2274,Valid,signal,-45,2,2.288240199908614,0,3.0,3.596172100165859,True,1,32,A,2023-11-16_15h13.43.413,exp3,2022.2.2,
,,,,,,,,,,,,,,,,,,,,,,,,0,-557,Invalid,noise,-45,2,3.0390508000273257,1,2.0,4.346716900123283,True,1,32,A,2023-11-16_15h13.43.413,exp3,2022.2.2,
,,,,,,,,,,,,,,,,,,,,,,,,0,-2274,Valid,signal,-45,2,1.521185199962929,0,2.0,2.829024499980733,True,1,32,A,2023-11-16_15h13.43.413,exp3,2022.2.2,
,,,,,,,,,,,,,,,,,,,,,,,,0,-1158,Valid,noise,-45,1,4.355784700019285,0,2.0,5.663671999936923,True,1,32,A,2023-11-16_15h13.43.413,exp3,2022.2.2,
,,,,,,,,,,,,,,,,,,,,,,,,0,557,Valid,noise,-45,2,5.173178200144321,1,2.0,6.48095400002785,True,1,32,A,2023-11-16_15h13.43.413,exp3,2022.2.2,
,,,,,,,,,,,,,,,,,,,,,,,,0,-557,Valid,noise,45,2,1.6382033000700176,1,4.0,2.9461900000460446,True,1,32,A,2023-11-16_15h13.43.413,exp3,2022.2.2,
,,,,,,,,,,,,,,,,,,,,,,,,0,-2274,Invalid,noise,-45,2,2.6888206999283284,1,1.0,3.996615100186318,True,1,32,A,2023-11-16_15h13.43.413,exp3,2022.2.2,
,,,,,,,,,,,,,,,,,,,,,,,,0,-1716,Valid,signal,45,2,1.688750799978152,0,2.0,2.99651850014925,True,1,32,A,2023-11-16_15h13.43.413,exp3,2022.2.2,
,,,,,,,,,,,,,,,,,,,,,,,,0,1158,Valid,signal,-45,2,1.954102300107479,0,3.0,3.2620586999692023,True,1,32,A,2023-11-16_15h13.43.413,exp3,2022.2.2,
,,,,,,,,,,,,,,,,,,,,,,,,0,-2274,Valid,noise,-45,2,2.1553458999842405,1,2.0,3.462969899876043,True,1,32,A,2023-11-16_15h13.43.413,exp3,2022.2.2,
,,,,,,,,,,,,,,,,,,,,,,,,0,1158,Invalid,signal,-45,1,1.8047305999789387,1,3.0,3.112536699976772,True,1,32,A,2023-11-16_15h13.43.413,exp3,2022.2.2,
,,,,,,,,,,,,,,,,,,,,,,,,0,-557,Valid,signal,45,2,2.139059000182897,0,2.0,3.4467980000190437,True,1,32,A,2023-11-16_15h13.43.413,exp3,2022.2.2,
,,,,,,,,,,,,,,,,,,,,,,,,0,-2274,Valid,noise,45,2,1.6545165001880378,1,1.0,2.9627443000208586,True,1,32,A,2023-11-16_15h13.43.413,exp3,2022.2.2,
,,,,,,,,,,,,,,,,,,,,,,,,0,557,Valid,noise,45,2,1.3882055999711156,1,3.0,2.6960547999478877,True,1,32,A,2023-11-16_15h13.43.413,exp3,2022.2.2,
,,,,,,,,,,,,,,,,,,,,,,,,0,1158,Valid,signal,-45,2,1.6205110000446439,0,3.0,2.9284665999002755,True,1,32,A,2023-11-16_15h13.43.413,exp3,2022.2.2,
,,,,,,,,,,,,,,,,,,,,,,,,0,-557,Valid,signal,-45,2,5.7072089000139385,0,1.0,7.014979799976572,True,1,32,A,2023-11-16_15h13.43.413,exp3,2022.2.2,
,,,,,,,,,,,,,,,,,,,,,,,,0,2274,Invalid,signal,45,2,1.9549384000711143,0,1.0,3.2625287999399006,True,1,32,A,2023-11-16_15h13.43.413,exp3,2022.2.2,
,,,,,,,,,,,,,,,,,,,,,,,,0,2274,Invalid,noise,-45,2,1.654922700021416,1,1.0,2.9626928998623043,True,1,32,A,2023-11-16_15h13.43.413,exp3,2022.2.2,
,,,,,,,,,,,,,,,,,,,,,,,,0,-1158,Valid,noise,45,1,1.587806100025773,0,2.0,2.8958255001343787,True,1,32,A,2023-11-16_15h13.43.413,exp3,2022.2.2,
,,,,,,,,,,,,,,,,,,,,,,,,0,-1158,Valid,signal,-45,1,1.0381328999064863,1,2.0,2.345895699923858,True,1,32,A,2023-11-16_15h13.43.413,exp3,2022.2.2,
,,,,,,,,,,,,,,,,,,,,,,,,0,-1158,Valid,noise,-45,2,1.6883320999331772,1,1.0,2.9960310000460595,True,1,32,A,2023-11-16_15h13.43.413,exp3,2022.2.2,
,,,,,,,,,,,,,,,,,,,,,,,,0,-557,Valid,signal,-45,1,1.2882453999482095,1,3.0,2.5958696000743657,True,1,32,A,2023-11-16_15h13.43.413,exp3,2022.2.2,
,,,,,,,,,,,,,,,,,,,,,,,,0,-1158,Valid,signal,-45,1,1.1041200999170542,1,3.0,2.4121157999616116,True,1,32,A,2023-11-16_15h13.43.413,exp3,2022.2.2,
,,,,,,,,,,,,,,,,,,,,,,,,0,2274,Valid,signal,45,2,1.9215739998035133,0,1.0,3.229511500103399,True,1,32,A,2023-11-16_15h13.43.413,exp3,2022.2.2,
,,,,,,,,,,,,,,,,,,,,,,,,0,1158,Valid,noise,45,2,1.471978599904105,1,2.0,2.779789200052619,True,1,32,A,2023-11-16_15h13.43.413,exp3,2022.2.2,
,,,,,,,,,,,,,,,,,,,,,,,,0,1716,Valid,noise,45,2,1.071049700025469,1,2.0,2.378978099906817,True,1,32,A,2023-11-16_15h13.43.413,exp3,2022.2.2,
,,,,,,,,,,,,,,,,,,,,,,,,0,-1716,Valid,signal,45,1,2.3556768998969346,1,2.0,3.662966600153595,True,1,32,A,2023-11-16_15h13.43.413,exp3,2022.2.2,
,,,,,,,,,,,,,,,,,,,,,,,,0,1158,Invalid,signal,45,1,1.9878119002096355,1,3.0,3.29553209990263,True,1,32,A,2023-11-16_15h13.43.413,exp3,2022.2.2,
,,,,,,,,,,,,,,,,,,,,,,,,0,557,Valid,signal,-45,2,1.9219122999347746,0,3.0,3.2295614001341164,True,1,32,A,2023-11-16_15h13.43.413,exp3,2022.2.2,
,,,,,,,,,,,,,,,,,,,,,,,,0,-557,Valid,signal,-45,1,1.1716041001491249,1,3.0,2.4792426000349224,True,1,32,A,2023-11-16_15h13.43.413,exp3,2022.2.2,
,,,,,,,,,,,,,,,,,,,,,,,,0,-557,Valid,noise,45,2,1.6212478000670671,1,3.0,2.929002999793738,True,1,32,A,2023-11-16_15h13.43.413,exp3,2022.2.2,
,,,,,,,,,,,,,,,,,,,,,,,,0,-1716,Invalid,noise,45,2,1.7887363000772893,1,1.0,3.09638539981097,True,1,32,A,2023-11-16_15h13.43.413,exp3,2022.2.2,
,,,,,,,,,,,,,,,,,,,,,,,,0,557,Valid,noise,-45,2,1.3383683001156896,1,1.0,2.6460949999745935,True,1,32,A,2023-11-16_15h13.43.413,exp3,2022.2.2,
,,,,,,,,,,,,,,,,,,,,,,,,0,-557,Valid,noise,-45,2,1.203890100121498,1,2.0,2.512063300004229,True,1,32,A,2023-11-16_15h13.43.413,exp3,2022.2.2,
,,,,,,,,,,,,,,,,,,,,,,,,0,2274,Valid,signal,45,2,1.5884787999093533,0,1.0,2.8962001998443156,True,1,32,A,2023-11-16_15h13.43.413,exp3,2022.2.2,
,,,,,,,,,,,,,,,,,,,,,,,,0,-1158,Invalid,signal,-45,2,3.1553713001776487,0,1.0,4.463316100183874,True,1,32,A,2023-11-16_15h13.43.413,exp3,2022.2.2,
,,,,,,,,,,,,,,,,,,,,,,,,0,557,Valid,noise,45,2,2.788498400012031,1,4.0,4.096232500160113,True,1,32,A,2023-11-16_15h13.43.413,exp3,2022.2.2,
,,,,,,,,,,,,,,,,,,,,,,,,0,2274,Valid,noise,-45,2,1.6213203000370413,1,1.0,2.9293919999618083,True,1,32,A,2023-11-16_15h13.43.413,exp3,2022.2.2,
,,,,,,,,,,,,,,,,,,,,,,,,0,1716,Invalid,noise,-45,2,1.7544148000888526,1,1.0,3.062229899922386,True,1,32,A,2023-11-16_15h13.43.413,exp3,2022.2.2,
,,,,,,,,,,,,,,,,,,,,,,,,0,-1158,Valid,noise,45,2,1.8890140999574214,1,2.0,3.1967785998713225,True,1,32,A,2023-11-16_15h13.43.413,exp3,2022.2.2,
,,,,,,,,,,,,,,,,,,,,,,,,0,-2274,Valid,noise,45,2,1.271251400001347,1,1.0,2.579106800025329,True,1,32,A,2023-11-16_15h13.43.413,exp3,2022.2.2,
,,,,,,,,,,,,,,,,,,,,,,,,0,-1716,Valid,noise,45,2,1.404943599831313,1,2.0,2.7128820000216365,True,1,32,A,2023-11-16_15h13.43.413,exp3,2022.2.2,
,,,,,,,,,,,,,,,,,,,,,,,,0,-557,Valid,noise,45,2,1.588256100192666,1,2.0,2.8961509000509977,True,1,32,A,2023-11-16_15h13.43.413,exp3,2022.2.2,
,,,,,,,,,,,,,,,,,,,,,,,,0,1716,Valid,signal,-45,2,2.037583600031212,0,2.0,3.3457207998726517,True,1,32,A,2023-11-16_15h13.43.413,exp3,2022.2.2,
,,,,,,,,,,,,,,,,,,,,,,,,0,-2274,Valid,noise,45,1,1.8551552998833358,0,1.0,3.163179400144145,True,1,32,A,2023-11-16_15h13.43.413,exp3,2022.2.2,
,,,,,,,,,,,,,,,,,,,,,,,,0,-1716,Valid,noise,-45,2,1.7550210999324918,1,2.0,3.062887500040233,True,1,32,A,2023-11-16_15h13.43.413,exp3,2022.2.2,
,,,,,,,,,,,,,,,,,,,,,,,,0,2274,Valid,noise,-45,2,1.4377608001232147,1,1.0,2.7455963999964297,True,1,32,A,2023-11-16_15h13.43.413,exp3,2022.2.2,
,,,,,,,,,,,,,,,,,,,,,,,,0,1158,Valid,signal,45,1,1.4056256001349539,1,2.0,2.7133247999008745,True,1,32,A,2023-11-16_15h13.43.413,exp3,2022.2.2,
,,,,,,,,,,,,,,,,,,,,,,,,0,-1716,Valid,noise,-45,2,2.0377418999560177,1,2.0,3.345740200020373,True,1,32,A,2023-11-16_15h13.43.413,exp3,2022.2.2,
,,,,,,,,,,,,,,,,,,,,,,,,0,2274,Valid,noise,-45,2,1.1213216001633555,1,1.0,2.4293291999492794,True,1,32,A,2023-11-16_15h13.43.413,exp3,2022.2.2,
,,,,,,,,,,,,,,,,,,,,,,,,0,1716,Valid,signal,-45,2,1.421151400078088,0,1.0,2.729237399995327,True,1,32,A,2023-11-16_15h13.43.413,exp3,2022.2.2,
,,,,,,,,,,,,,,,,,,,,,,,,0,1716,Invalid,signal,45,2,1.737839800072834,0,1.0,3.0457591000013053,True,1,32,A,2023-11-16_15h13.43.413,exp3,2022.2.2,
,,,,,,,,,,,,,,,,,,,,,,,,0,-1716,Valid,signal,45,1,1.2550898999907076,1,2.0,2.5628401001449674,True,1,32,A,2023-11-16_15h13.43.413,exp3,2022.2.2,
,,,,,,,,,,,,,,,,,,,,,,,,0,-557,Valid,signal,45,1,0.9542296000290662,1,4.0,2.2623283001594245,True,1,32,A,2023-11-16_15h13.43.413,exp3,2022.2.2,
,,,,,,,,,,,,,,,,,,,,,,,,0,-1716,Valid,noise,45,2,1.3381565001327544,1,2.0,2.646162500139326,True,1,32,A,2023-11-16_15h13.43.413,exp3,2022.2.2,
,,,,,,,,,,,,,,,,,,,,,,,,0,557,Valid,signal,45,1,1.8047510001342744,1,2.0,3.1126109999604523,True,1,32,A,2023-11-16_15h13.43.413,exp3,2022.2.2,
,,,,,,,,,,,,,,,,,,,,,,,,0,557,Valid,signal,-45,2,3.1893438999541104,0,2.0,4.497259299969301,True,1,32,A,2023-11-16_15h13.43.413,exp3,2022.2.2,
,,,,,,,,,,,,,,,,,,,,,,,,0,557,Invalid,noise,-45,1,1.8215799001045525,0,2.0,3.1290984000079334,True,1,32,A,2023-11-16_15h13.43.413,exp3,2022.2.2,
,,,,,,,,,,,,,,,,,,,,,,,,0,-1158,Valid,signal,-45,1,1.0215956999454647,1,3.0,2.3294273999053985,True,1,32,A,2023-11-16_15h13.43.413,exp3,2022.2.2,
,,,,,,,,,,,,,,,,,,,,,,,,0,-1158,Invalid,noise,-45,2,1.7542661000043154,1,1.0,3.062257400015369,True,1,32,A,2023-11-16_15h13.43.413,exp3,2022.2.2,
,,,,,,,,,,,,,,,,,,,,,,,,0,-2274,Valid,signal,45,2,2.3879305999726057,0,1.0,3.6962588999886066,True,1,32,A,2023-11-16_15h13.43.413,exp3,2022.2.2,
,,,,,,,,,,,,,,,,,,,,,,,,0,2274,Valid,noise,45,2,1.7214681000914425,1,1.0,3.029415600001812,True,1,32,A,2023-11-16_15h13.43.413,exp3,2022.2.2,
,,,,,,,,,,,,,,,,,,,,,,,,0,2274,Valid,noise,-45,2,1.1554016000591218,1,1.0,2.4631990999914706,True,1,32,A,2023-11-16_15h13.43.413,exp3,2022.2.2,
,,,,,,,,,,,,,,,,,,,,,,,,0,557,Valid,noise,45,2,1.937479400075972,1,3.0,3.245462599908933,True,1,32,A,2023-11-16_15h13.43.413,exp3,2022.2.2,
,,,,,,,,,,,,,,,,,,,,,,,,0,1158,Valid,noise,-45,2,1.0378245001193136,1,3.0,2.345694800140336,True,1,32,A,2023-11-16_15h13.43.413,exp3,2022.2.2,
,,,,,,,,,,,,,,,,,,,,,,,,0,-2274,Valid,signal,-45,2,2.5063224001787603,0,2.0,3.814077700022608,True,1,32,A,2023-11-16_15h13.43.413,exp3,2022.2.2,
,,,,,,,,,,,,,,,,,,,,,,,,0,-2274,Valid,noise,45,2,1.3211423999164253,1,2.0,2.628925899975002,True,1,32,A,2023-11-16_15h13.43.413,exp3,2022.2.2,
,,,,,,,,,,,,,,,,,,,,,,,,0,1158,Valid,noise,-45,2,0.9541052998974919,1,3.0,2.2618623001035303,True,1,32,A,2023-11-16_15h13.43.413,exp3,2022.2.2,
,,,,,,,,,,,,,,,,,,,,,,,,0,2274,Valid,signal,45,2,1.6884385000448674,0,1.0,2.9968820000067353,True,1,32,A,2023-11-16_15h13.43.413,exp3,2022.2.2,
,,,,,,,,,,,,,,,,,,,,,,,,0,-2274,Valid,signal,45,2,2.0545754998456687,0,1.0,3.36237969994545,True,1,32,A,2023-11-16_15h13.43.413,exp3,2022.2.2,
,,,,,,,,,,,,,,,,,,,,,,,,0,557,Invalid,signal,-45,1,2.8552709999494255,1,2.0,4.163184199947864,True,1,32,A,2023-11-16_15h13.43.413,exp3,2022.2.2,
,,,,,,,,,,,,,,,,,,,,,,,,0,557,Valid,noise,45,2,1.204524600179866,1,2.0,2.5124884999822825,True,1,32,A,2023-11-16_15h13.43.413,exp3,2022.2.2,
,,,,,,,,,,,,,,,,,,,,,,,,0,1158,Invalid,noise,-45,2,2.372108899988234,1,1.0,3.679678900167346,True,1,32,A,2023-11-16_15h13.43.413,exp3,2022.2.2,
,,,,,,,,,,,,,,,,,,,,,,,,0,-1158,Invalid,noise,-45,2,1.67163040000014,1,2.0,2.9793720000889152,True,1,32,A,2023-11-16_15h13.43.413,exp3,2022.2.2,
,,,,,,,,,,,,,,,,,,,,,,,,0,1716,Valid,signal,-45,2,1.721625000005588,0,1.0,3.0295259999111295,True,1,32,A,2023-11-16_15h13.43.413,exp3,2022.2.2,
,,,,,,,,,,,,,,,,,,,,,,,,0,2274,Valid,signal,45,2,2.2220379998907447,0,1.0,3.529912499943748,True,1,32,A,2023-11-16_15h13.43.413,exp3,2022.2.2,
,,,,,,,,,,,,,,,,,,,,,,,,0,-557,Valid,noise,-45,2,1.4378561000339687,1,2.0,2.745799200143665,True,1,32,A,2023-11-16_15h13.43.413,exp3,2022.2.2,
,,,,,,,,,,,,,,,,,,,,,,,,0,-1716,Invalid,signal,45,2,1.8543531999457628,0,1.0,3.1625779001042247,True,1,32,A,2023-11-16_15h13.43.413,exp3,2022.2.2,
,,,,,,,,,,,,,,,,,,,,,,,,0,1158,Valid,noise,45,2,1.204803200205788,1,2.0,2.5126942999195307,True,1,32,A,2023-11-16_15h13.43.413,exp3,2022.2.2,
,,,,,,,,,,,,,,,,,,,,,,,,0,-557,Invalid,signal,-45,1,2.4559059999883175,1,2.0,3.763624400133267,True,1,32,A,2023-11-16_15h13.43.413,exp3,2022.2.2,
,,,,,,,,,,,,,,,,,,,,,,,,0,-2274,Invalid,noise,-45,2,2.0212061000056565,1,1.0,3.329147699987516,True,1,32,A,2023-11-16_15h13.43.413,exp3,2022.2.2,
,,,,,,,,,,,,,,,,,,,,,,,,0,-557,Valid,signal,45,1,1.5378451999276876,1,3.0,2.8459205999970436,True,1,32,A,2023-11-16_15h13.43.413,exp3,2022.2.2,
,,,,,,,,,,,,,,,,,,,,,,,,0,2274,Valid,signal,45,2,1.9219457998406142,0,1.0,3.229908399982378,True,1,32,A,2023-11-16_15h13.43.413,exp3,2022.2.2,
,,,,,,,,,,,,,,,,,,,,,,,,0,2274,Valid,noise,-45,2,2.2050880000460893,1,1.0,3.5127550000324845,True,1,32,A,2023-11-16_15h13.43.413,exp3,2022.2.2,
,,,,,,,,,,,,,,,,,,,,,,,,0,557,Valid,noise,45,2,1.3223963999189436,1,2.0,2.6299528998788446,True,1,32,A,2023-11-16_15h13.43.413,exp3,2022.2.2,
,,,,,,,,,,,,,,,,,,,,,,,,0,-557,Valid,signal,45,1,1.5707841999828815,1,2.0,2.8788177999667823,True,1,32,A,2023-11-16_15h13.43.413,exp3,2022.2.2,
,,,,,,,,,,,,,,,,,,,,,,,,0,557,Valid,signal,-45,1,4.172843900043517,1,2.0,5.480585600016639,True,1,32,A,2023-11-16_15h13.43.413,exp3,2022.2.2,
,,,,,,,,,,,,,,,,,,,,,,,,0,-1158,Valid,noise,45,1,1.9213660000823438,0,1.0,3.2293761000037193,True,1,32,A,2023-11-16_15h13.43.413,exp3,2022.2.2,
,,,,,,,,,,,,,,,,,,,,,,,,0,-1716,Invalid,signal,-45,2,1.8717305001337081,0,1.0,3.1796178999356925,True,1,32,A,2023-11-16_15h13.43.413,exp3,2022.2.2,
,,,,,,,,,,,,,,,,,,,,,,,,0,-1716,Valid,noise,-45,2,1.3380150001030415,1,1.0,2.645677699940279,True,1,32,A,2023-11-16_15h13.43.413,exp3,2022.2.2,
,,,,,,,,,,,,,,,,,,,,,,,,0,1158,Valid,noise,45,2,1.5881821000948548,1,1.0,2.896005100104958,True,1,32,A,2023-11-16_15h13.43.413,exp3,2022.2.2,
,,,,,,,,,,,,,,,,,,,,,,,,0,-1158,Valid,signal,45,1,1.2381152000743896,1,3.0,2.5461067999713123,True,1,32,A,2023-11-16_15h13.43.413,exp3,2022.2.2,
,,,,,,,,,,,,,,,,,,,,,,,,0,-557,Valid,signal,-45,1,0.8712851000018418,1,3.0,2.179315899964422,True,1,32,A,2023-11-16_15h13.43.413,exp3,2022.2.2,
,,,,,,,,,,,,,,,,,,,,,,,,0,2274,Valid,noise,45,2,1.2546335998922586,1,2.0,2.5623534999322146,True,1,32,A,2023-11-16_15h13.43.413,exp3,2022.2.2,
,,,,,,,,,,,,,,,,,,,,,,,,0,-1158,Invalid,signal,45,1,1.2882928000763059,1,3.0,2.5958783999085426,True,1,32,A,2023-11-16_15h13.43.413,exp3,2022.2.2,
,,,,,,,,,,,,,,,,,,,,,,,,0,2274,Invalid,signal,-45,1,2.0550348998513073,1,2.0,3.3631223998963833,True,1,32,A,2023-11-16_15h13.43.413,exp3,2022.2.2,
,,,,,,,,,,,,,,,,,,,,,,,,0,-2274,Invalid,signal,45,2,1.7383576999418437,0,1.0,3.0462901999708265,True,1,32,A,2023-11-16_15h13.43.413,exp3,2022.2.2,
,,,,,,,,,,,,,,,,,,,,,,,,0,557,Invalid,signal,-45,1,1.2381319999694824,1,2.0,2.5460861001629382,True,1,32,A,2023-11-16_15h13.43.413,exp3,2022.2.2,
,,,,,,,,,,,,,,,,,,,,,,,,0,557,Valid,noise,-45,2,2.3549211998470128,1,2.0,3.662667099852115,True,1,32,A,2023-11-16_15h13.43.413,exp3,2022.2.2,
,,,,,,,,,,,,,,,,,,,,,,,,0,-1716,Valid,signal,45,1,4.822485400130972,1,1.0,6.130375899840146,True,1,32,A,2023-11-16_15h13.43.413,exp3,2022.2.2,
,,,,,,,,,,,,,,,,,,,,,,,,0,1716,Valid,signal,45,2,1.7217407000716776,0,2.0,3.029757999815047,True,1,32,A,2023-11-16_15h13.43.413,exp3,2022.2.2,
,,,,,,,,,,,,,,,,,,,,,,,,0,557,Valid,noise,45,2,1.271431599976495,1,3.0,2.5792697998695076,True,1,32,A,2023-11-16_15h13.43.413,exp3,2022.2.2,
,,,,,,,,,,,,,,,,,,,,,,,,0,557,Valid,signal,-45,2,0.9544433001428843,0,3.0,2.2624820000492036,True,1,32,A,2023-11-16_15h13.43.413,exp3,2022.2.2,
,,,,,,,,,,,,,,,,,,,,,,,,0,-1158,Valid,noise,-45,2,1.6718820000533015,1,2.0,2.9797431000042707,True,1,32,A,2023-11-16_15h13.43.413,exp3,2022.2.2,
,,,,,,,,,,,,,,,,,,,,,,,,0,-1716,Invalid,noise,45,2,1.8211327001918107,1,2.0,3.129064899869263,True,1,32,A,2023-11-16_15h13.43.413,exp3,2022.2.2,
,,,,,,,,,,,,,,,,,,,,,,,,0,1158,Valid,signal,45,1,1.054873599903658,1,2.0,2.362826499855146,True,1,32,A,2023-11-16_15h13.43.413,exp3,2022.2.2,
,,,,,,,,,,,,,,,,,,,,,,,,0,2274,Invalid,noise,45,2,2.204850299982354,1,2.0,3.5129318998660892,True,1,32,A,2023-11-16_15h13.43.413,exp3,2022.2.2,
,,,,,,,,,,,,,,,,,,,,,,,,0,557,Valid,signal,-45,2,1.6547533001285046,0,2.0,2.962770099984482,True,1,32,A,2023-11-16_15h13.43.413,exp3,2022.2.2,
,,,,,,,,,,,,,,,,,,,,,,,,0,1158,Valid,noise,-45,2,1.5715851997956634,1,2.0,2.8795762001536787,True,1,32,A,2023-11-16_15h13.43.413,exp3,2022.2.2,
,,,,,,,,,,,,,,,,,,,,,,,,0,-1158,Valid,signal,45,1,1.2712826000060886,1,3.0,2.5789620000869036,True,1,32,A,2023-11-16_15h13.43.413,exp3,2022.2.2,
,,,,,,,,,,,,,,,,,,,,,,,,0,1716,Valid,signal,45,2,1.2214810999576002,0,2.0,2.529632000019774,True,1,32,A,2023-11-16_15h13.43.413,exp3,2022.2.2,
,,,,,,,,,,,,,,,,,,,,,,,,0,-1716,Valid,signal,45,2,1.5219795000739396,0,2.0,2.829735399922356,True,1,32,A,2023-11-16_15h13.43.413,exp3,2022.2.2,
,,,,,,,,,,,,,,,,,,,,,,,,0,-1716,Valid,signal,45,2,0.9373697000555694,0,2.0,2.2451869999058545,True,1,32,A,2023-11-16_15h13.43.413,exp3,2022.2.2,
,,,,,,,,,,,,,,,,,,,,,,,,0,557,Valid,signal,45,2,2.338749799877405,0,2.0,3.6463630001526326,True,1,32,A,2023-11-16_15h13.43.413,exp3,2022.2.2,
,,,,,,,,,,,,,,,,,,,,,,,,0,1716,Invalid,noise,45,2,1.6887717000208795,1,1.0,2.996533500030637,True,1,32,A,2023-11-16_15h13.43.413,exp3,2022.2.2,
,,,,,,,,,,,,,,,,,,,,,,,,0,-2274,Valid,signal,45,2,1.5376609999220818,0,1.0,2.8455241001211107,True,1,32,A,2023-11-16_15h13.43.413,exp3,2022.2.2,
,,,,,,,,,,,,,,,,,,,,,,,,0,-1158,Valid,signal,45,1,1.0211358999367803,1,3.0,2.3292353998403996,True,1,32,A,2023-11-16_15h13.43.413,exp3,2022.2.2,
,,,,,,,,,,,,,,,,,,,,,,,,0,557,Valid,signal,45,1,1.4220755000133067,1,2.0,2.72992440010421,True,1,32,A,2023-11-16_15h13.43.413,exp3,2022.2.2,
,,,,,,,,,,,,,,,,,,,,,,,,0,-557,Valid,noise,-45,2,1.6709795000497252,1,2.0,2.9789050000254065,True,1,32,A,2023-11-16_15h13.43.413,exp3,2022.2.2,
,,,,,,,,,,,,,,,,,,,,,,,,0,-557,Invalid,signal,-45,1,1.4221610999666154,1,2.0,2.729764799820259,True,1,32,A,2023-11-16_15h13.43.413,exp3,2022.2.2,
,,,,,,,,,,,,,,,,,,,,,,,,0,1158,Valid,signal,-45,2,1.3876385998446494,0,1.0,2.6954243001528084,True,1,32,A,2023-11-16_15h13.43.413,exp3,2022.2.2,
,,,,,,,,,,,,,,,,,,,,,,,,0,1158,Valid,noise,-45,2,1.0545908999629319,1,2.0,2.362274599960074,True,1,32,A,2023-11-16_15h13.43.413,exp3,2022.2.2,
,,,,,,,,,,,,,,,,,,,,,,,,0,1716,Valid,noise,-45,2,0.9884454999119043,1,2.0,2.2961629999335855,True,1,32,A,2023-11-16_15h13.43.413,exp3,2022.2.2,
,,,,,,,,,,,,,,,,,,,,,,,,0,1158,Valid,signal,-45,1,1.2547009999398142,1,2.0,2.5625392999500036,True,1,32,A,2023-11-16_15h13.43.413,exp3,2022.2.2,
,,,,,,,,,,,,,,,,,,,,,,,,0,1158,Invalid,noise,-45,1,2.0048883999697864,0,2.0,3.312558999983594,True,1,32,A,2023-11-16_15h13.43.413,exp3,2022.2.2,
,,,,,,,,,,,,,,,,,,,,,,,,0,-2274,Valid,noise,-45,2,1.372048599878326,1,1.0,2.679735500132665,True,1,32,A,2023-11-16_15h13.43.413,exp3,2022.2.2,
,,,,,,,,,,,,,,,,,,,,,,,,0,557,Invalid,noise,45,2,4.9391719999257475,1,1.0,6.246948699932545,True,1,32,A,2023-11-16_15h13.43.413,exp3,2022.2.2,
,,,,,,,,,,,,,,,,,,,,,,,,0,-1158,Valid,signal,45,1,1.1881532000843436,1,3.0,2.4961296999827027,True,1,32,A,2023-11-16_15h13.43.413,exp3,2022.2.2,
,,,,,,,,,,,,,,,,,,,,,,,,0,1158,Valid,noise,-45,2,1.521707999985665,1,1.0,2.8294516000896692,True,1,32,A,2023-11-16_15h13.43.413,exp3,2022.2.2,
,,,,,,,,,,,,,,,,,,,,,,,,0,-2274,Valid,noise,45,2,1.221301999874413,1,1.0,2.5290557998232543,True,1,32,A,2023-11-16_15h13.43.413,exp3,2022.2.2,
,,,,,,,,,,,,,,,,,,,,,,,,0,-1716,Valid,noise,45,2,1.2875022999942303,1,1.0,2.595505499979481,True,1,32,A,2023-11-16_15h13.43.413,exp3,2022.2.2,
,,,,,,,,,,,,,,,,,,,,,,,,0,1158,Valid,signal,45,1,1.1216694999020547,1,2.0,2.4296677000820637,True,1,32,A,2023-11-16_15h13.43.413,exp3,2022.2.2,
,,,,,,,,,,,,,,,,,,,,,,,,0,-1158,Valid,noise,45,1,1.5711278000380844,0,2.0,2.8790682000108063,True,1,32,A,2023-11-16_15h13.43.413,exp3,2022.2.2,
,,,,,,,,,,,,,,,,,,,,,,,,0,1158,Valid,noise,45,2,1.3214231999590993,1,1.0,2.629404600011185,True,1,32,A,2023-11-16_15h13.43.413,exp3,2022.2.2,
,,,,,,,,,,,,,,,,,,,,,,,,0,-557,Invalid,noise,-45,2,2.0714875999838114,1,2.0,3.3795711998827755,True,1,32,A,2023-11-16_15h13.43.413,exp3,2022.2.2,
,,,,,,,,,,,,,,,,,,,,,,,,0,2274,Valid,signal,-45,2,1.437154500046745,0,1.0,2.745058999862522,True,1,32,A,2023-11-16_15h13.43.413,exp3,2022.2.2,
,,,,,,,,,,,,,,,,,,,,,,,,0,-1158,Valid,signal,45,1,0.9883049998898059,1,3.0,2.2965504999738187,True,1,32,A,2023-11-16_15h13.43.413,exp3,2022.2.2,
,,,,,,,,,,,,,,,,,,,,,,,,0,-1716,Valid,noise,45,2,2.0050091000739485,1,2.0,3.31273839995265,True,1,32,A,2023-11-16_15h13.43.413,exp3,2022.2.2,
,,,,,,,,,,,,,,,,,,,,,,,,0,-2274,Invalid,signal,-45,2,1.671739700017497,0,1.0,2.9792969999834895,True,1,32,A,2023-11-16_15h13.43.413,exp3,2022.2.2,
,,,,,,,,,,,,,,,,,,,,,,,,0,2274,Valid,noise,-45,1,1.4874644000083208,0,2.0,2.7953125000931323,True,1,32,A,2023-11-16_15h13.43.413,exp3,2022.2.2,
,,,,,,,,,,,,,,,,,,,,,,,,0,2274,Valid,noise,-45,1,1.2881273999810219,0,1.0,2.595911599928513,True,1,32,A,2023-11-16_15h13.43.413,exp3,2022.2.2,
,,,,,,,,,,,,,,,,,,,,,,,,0,557,Valid,signal,45,2,2.05495180003345,0,3.0,3.3628634000197053,True,1,32,A,2023-11-16_15h13.43.413,exp3,2022.2.2,
,,,,,,,,,,,,,,,,,,,,,,,,0,1158,Valid,signal,-45,2,1.0385074000805616,0,3.0,2.3462886000052094,True,1,32,A,2023-11-16_15h13.43.413,exp3,2022.2.2,
,,,,,,,,,,,,,,,,,,,,,,,,0,2274,Valid,signal,45,1,1.037715199869126,1,2.0,2.3455706001259387,True,1,32,A,2023-11-16_15h13.43.413,exp3,2022.2.2,
,,,,,,,,,,,,,,,,,,,,,,,,0,1716,Valid,noise,45,2,1.4882225999608636,1,2.0,2.7962319999933243,True,1,32,A,2023-11-16_15h13.43.413,exp3,2022.2.2,
,,,,,,,,,,,,,,,,,,,,,,,,0,-1716,Valid,noise,45,1,2.005224500084296,0,1.0,3.3129278998821974,True,1,32,A,2023-11-16_15h13.43.413,exp3,2022.2.2,
,,,,,,,,,,,,,,,,,,,,,,,,0,-1716,Valid,signal,-45,2,1.1385145999956876,0,2.0,2.446139100007713,True,1,32,A,2023-11-16_15h13.43.413,exp3,2022.2.2,
,,,,,,,,,,,,,,,,,,,,,,,,0,-2274,Valid,noise,45,2,1.6378842999693006,1,1.0,2.9456102000549436,True,1,32,A,2023-11-16_15h13.43.413,exp3,2022.2.2,
,,,,,,,,,,,,,,,,,,,,,,,,0,2274,Valid,signal,-45,2,1.2046382001135498,0,1.0,2.512547899968922,True,1,32,A,2023-11-16_15h13.43.413,exp3,2022.2.2,
,,,,,,,,,,,,,,,,,,,,,,,,0,1716,Valid,noise,-45,2,2.055184200173244,1,2.0,3.3631494001019746,True,1,32,A,2023-11-16_15h13.43.413,exp3,2022.2.2,
,,,,,,,,,,,,,,,,,,,,,,,,0,-2274,Valid,signal,45,1,1.1215385999530554,1,1.0,2.429229599889368,True,1,32,A,2023-11-16_15h13.43.413,exp3,2022.2.2,
,,,,,,,,,,,,,,,,,,,,,,,,0,-557,Valid,noise,-45,2,0.9381116000004113,1,3.0,2.2459987001493573,True,1,32,A,2023-11-16_15h13.43.413,exp3,2022.2.2,
,,,,,,,,,,,,,,,,,,,,,,,,0,-1158,Valid,signal,-45,1,1.3046800999436527,1,3.0,2.6124976000282913,True,1,32,A,2023-11-16_15h13.43.413,exp3,2022.2.2,
,,,,,,,,,,,,,,,,,,,,,,,,0,1716,Valid,noise,-45,2,1.071166600100696,1,2.0,2.3787440001033247,True,1,32,A,2023-11-16_15h13.43.413,exp3,2022.2.2,
,,,,,,,,,,,,,,,,,,,,,,,,0,1158,Valid,signal,-45,1,3.4894004999659956,1,1.0,4.796971200034022,True,1,32,A,2023-11-16_15h13.43.413,exp3,2022.2.2,
,,,,,,,,,,,,,,,,,,,,,,,,0,-557,Valid,signal,-45,1,2.388055299874395,1,2.0,3.6959557998925447,True,1,32,A,2023-11-16_15h13.43.413,exp3,2022.2.2,
,,,,,,,,,,,,,,,,,,,,,,,,0,-557,Valid,noise,-45,2,1.1216438000556082,1,2.0,2.4293833000119776,True,1,32,A,2023-11-16_15h13.43.413,exp3,2022.2.2,
,,,,,,,,,,,,,,,,,,,,,,,,0,-2274,Valid,signal,45,2,2.3549818999599665,0,1.0,3.66293100011535,True,1,32,A,2023-11-16_15h13.43.413,exp3,2022.2.2,
,,,,,,,,,,,,,,,,,,,,,,,,1,-557,Valid,noise,-45,2,2.9325350001454353,1,2.0,4.240765300113708,True,1,32,A,2023-11-16_15h13.43.413,exp3,2022.2.2,
,,,,,,,,,,,,,,,,,,,,,,,,2,-1158,Valid,noise,-45,2,2.704771399963647,1,2.0,4.013139500049874,True,1,32,A,2023-11-16_15h13.43.413,exp3,2022.2.2,
,,,,,,,,,,,,,,,,,,,,,,,,3,-557,Valid,noise,45,2,1.17183250002563,1,3.0,2.4798806000035256,True,1,32,A,2023-11-16_15h13.43.413,exp3,2022.2.2,
,,,,,,,,,,,,,,,,,,,,,,,,4,557,Valid,noise,-45,2,0.9369850000366569,1,3.0,2.2451283999253064,True,1,32,A,2023-11-16_15h13.43.413,exp3,2022.2.2,
,,,,,,,,,,,,,,,,,,,,,,,,5,2274,Invalid,signal,-45,2,1.6382079999893904,0,1.0,2.9465688997879624,True,1,32,A,2023-11-16_15h13.43.413,exp3,2022.2.2,
,,,,,,,,,,,,,,,,,,,,,,,,6,1716,Valid,signal,-45,2,1.0875637999270111,0,2.0,2.3956912998110056,True,1,32,A,2023-11-16_15h13.43.413,exp3,2022.2.2,
,,,,,,,,,,,,,,,,,,,,,,,,7,2274,Valid,noise,45,2,1.4542348999530077,1,2.0,2.7625396999064833,True,1,32,A,2023-11-16_15h13.43.413,exp3,2022.2.2,
,,,,,,,,,,,,,,,,,,,,,,,,8,1158,Valid,signal,45,2,1.454137299908325,0,2.0,2.7626130001153797,True,1,32,A,2023-11-16_15h13.43.413,exp3,2022.2.2,
,,,,,,,,,,,,,,,,,,,,,,,,9,-557,Valid,signal,45,1,1.4212513999082148,1,2.0,2.7293451000005007,True,1,32,A,2023-11-16_15h13.43.413,exp3,2022.2.2,
,,,,,,,,,,,,,,,,,,,,,,,,10,2274,Valid,signal,45,2,1.7051349999383092,0,1.0,3.013337300159037,True,1,32,A,2023-11-16_15h13.43.413,exp3,2022.2.2,
,,,,,,,,,,,,,,,,,,,,,,,,11,-1716,Valid,signal,-45,2,2.0540324000176042,0,2.0,3.3620666000060737,True,1,32,A,2023-11-16_15h13.43.413,exp3,2022.2.2,
,,,,,,,,,,,,,,,,,,,,,,,,12,-1158,Invalid,noise,45,2,2.855499600060284,1,2.0,4.163621800020337,True,1,32,A,2023-11-16_15h13.43.413,exp3,2022.2.2,
,,,,,,,,,,,,,,,,,,,,,,,,13,-557,Valid,signal,-45,1,1.8207323998212814,1,2.0,3.128880999982357,True,1,32,A,2023-11-16_15h13.43.413,exp3,2022.2.2,
,,,,,,,,,,,,,,,,,,,,,,,,14,557,Invalid,noise,45,2,1.7549691998865455,1,2.0,3.0630806998815387,True,1,32,A,2023-11-16_15h13.43.413,exp3,2022.2.2,
,,,,,,,,,,,,,,,,,,,,,,,,15,-557,Valid,noise,-45,2,1.1206843999680132,1,3.0,2.4289268001448363,True,1,32,A,2023-11-16_15h13.43.413,exp3,2022.2.2,
,,,,,,,,,,,,,,,,,,,,,,,,16,1716,Valid,signal,45,2,1.4881565999239683,0,2.0,2.796137799974531,True,1,32,A,2023-11-16_15h13.43.413,exp3,2022.2.2,
,,,,,,,,,,,,,,,,,,,,,,,,17,-1716,Valid,noise,45,2,3.5557718998752534,1,2.0,4.863904400030151,True,1,32,A,2023-11-16_15h13.43.413,exp3,2022.2.2,
,,,,,,,,,,,,,,,,,,,,,,,,18,-557,Valid,noise,-45,2,1.1868972999509424,1,2.0,2.4952390000689775,True,1,32,A,2023-11-16_15h13.43.413,exp3,2022.2.2,
,,,,,,,,,,,,,,,,,,,,,,,,19,2274,Valid,noise,45,2,2.0214471998624504,1,2.0,3.329557699849829,True,1,32,A,2023-11-16_15h13.43.413,exp3,2022.2.2,
,,,,,,,,,,,,,,,,,,,,,,,,20,-1716,Valid,noise,-45,2,1.1374265998601913,1,1.0,2.4456106999423355,True,1,32,A,2023-11-16_15h13.43.413,exp3,2022.2.2,
,,,,,,,,,,,,,,,,,,,,,,,,21,-2274,Valid,signal,45,2,1.3884376999922097,0,2.0,2.6964153998997062,True,1,32,A,2023-11-16_15h13.43.413,exp3,2022.2.2,
,,,,,,,,,,,,,,,,,,,,,,,,22,-2274,Valid,noise,-45,2,1.1871466001030058,1,1.0,2.495280100032687,True,1,32,A,2023-11-16_15h13.43.413,exp3,2022.2.2,
,,,,,,,,,,,,,,,,,,,,,,,,23,-557,Valid,noise,45,2,1.2376097000669688,1,3.0,2.545994099928066,True,1,32,A,2023-11-16_15h13.43.413,exp3,2022.2.2,
,,,,,,,,,,,,,,,,,,,,,,,,24,2274,Valid,signal,45,2,1.3042758000083268,0,2.0,2.612659400096163,True,1,32,A,2023-11-16_15h13.43.413,exp3,2022.2.2,
,,,,,,,,,,,,,,,,,,,,,,,,25,1716,Invalid,signal,-45,2,1.8713859000708908,0,1.0,3.17958280001767,True,1,32,A,2023-11-16_15h13.43.413,exp3,2022.2.2,
,,,,,,,,,,,,,,,,,,,,,,,,26,557,Valid,signal,-45,2,1.9049685997888446,0,2.0,3.2131566999014467,True,1,32,A,2023-11-16_15h13.43.413,exp3,2022.2.2,
,,,,,,,,,,,,,,,,,,,,,,,,27,557,Valid,noise,45,2,1.1040644999593496,1,2.0,2.412262300029397,True,1,32,A,2023-11-16_15h13.43.413,exp3,2022.2.2,
,,,,,,,,,,,,,,,,,,,,,,,,28,-1716,Valid,noise,-45,2,1.0707213000860065,1,2.0,2.3790903999470174,True,1,32,A,2023-11-16_15h13.43.413,exp3,2022.2.2,
,,,,,,,,,,,,,,,,,,,,,,,,29,-2274,Valid,signal,45,2,1.8377125998958945,0,1.0,3.146308199968189,True,1,32,A,2023-11-16_15h13.43.413,exp3,2022.2.2,
,,,,,,,,,,,,,,,,,,,,,,,,30,1158,Valid,signal,-45,2,1.2212799999397248,0,2.0,2.529534799978137,True,1,32,A,2023-11-16_15h13.43.413,exp3,2022.2.2,
,,,,,,,,,,,,,,,,,,,,,,,,31,1158,Valid,signal,-45,2,1.2218131001573056,0,2.0,2.5297675000038,True,1,32,A,2023-11-16_15h13.43.413,exp3,2022.2.2,
,,,,,,,,,,,,,,,,,,,,,,,,32,-2274,Valid,noise,45,2,1.6040555001236498,1,2.0,2.9122624997980893,True,1,32,A,2023-11-16_15h13.43.413,exp3,2022.2.2,
,,,,,,,,,,,,,,,,,,,,,,,,33,557,Valid,signal,-45,2,1.2374336998909712,0,3.0,2.5456265001557767,True,1,32,A,2023-11-16_15h13.43.413,exp3,2022.2.2,
,,,,,,,,,,,,,,,,,,,,,,,,34,-1716,Valid,signal,45,2,2.787953600054607,0,1.0,4.096394999884069,True,1,32,A,2023-11-16_15h13.43.413,exp3,2022.2.2,
,,,,,,,,,,,,,,,,,,,,,,,,35,-2274,Valid,noise,45,2,1.4214053000323474,1,1.0,2.7297052999492735,True,1,32,A,2023-11-16_15h13.43.413,exp3,2022.2.2,
,,,,,,,,,,,,,,,,,,,,,,,,36,-2274,Valid,noise,45,2,12.308057300047949,1,2.0,13.616237199865282,True,1,32,A,2023-11-16_15h13.43.413,exp3,2022.2.2,
,,,,,,,,,,,,,,,,,,,,,,,,37,-2274,Valid,noise,45,2,1.6716163998935372,1,1.0,2.9796378000173718,True,1,32,A,2023-11-16_15h13.43.413,exp3,2022.2.2,
,,,,,,,,,,,,,,,,,,,,,,,,38,1158,Valid,noise,45,2,1.2710593999363482,1,3.0,2.579183300025761,True,1,32,A,2023-11-16_15h13.43.413,exp3,2022.2.2,
,,,,,,,,,,,,,,,,,,,,,,,,39,-1158,Valid,signal,45,1,3.871925000101328,1,3.0,5.180337400175631,True,1,32,A,2023-11-16_15h13.43.413,exp3,2022.2.2,
,,,,,,,,,,,,,,,,,,,,,,,,40,2274,Valid,noise,45,2,2.0543895999435335,1,2.0,3.3628332999069244,True,1,32,A,2023-11-16_15h13.43.413,exp3,2022.2.2,
,,,,,,,,,,,,,,,,,,,,,,,,41,-557,Valid,noise,45,2,1.4714514999650419,1,3.0,2.7798872999846935,True,1,32,A,2023-11-16_15h13.43.413,exp3,2022.2.2,
,,,,,,,,,,,,,,,,,,,,,,,,42,1158,Valid,noise,-45,2,1.0208219999913126,1,3.0,2.3290633000433445,True,1,32,A,2023-11-16_15h13.43.413,exp3,2022.2.2,
,,,,,,,,,,,,,,,,,,,,,,,,43,557,Invalid,signal,45,1,1.3870599998626858,1,3.0,2.695179499918595,True,1,32,A,2023-11-16_15h13.43.413,exp3,2022.2.2,
,,,,,,,,,,,,,,,,,,,,,,,,44,1158,Valid,signal,-45,2,2.455036300001666,0,2.0,3.7632549998816103,True,1,32,A,2023-11-16_15h13.43.413,exp3,2022.2.2,
,,,,,,,,,,,,,,,,,,,,,,,,45,557,Valid,noise,-45,2,1.2379732001572847,1,3.0,2.54597430001013,True,1,32,A,2023-11-16_15h13.43.413,exp3,2022.2.2,
,,,,,,,,,,,,,,,,,,,,,,,,46,2274,Valid,signal,-45,2,1.3543376999441534,0,1.0,2.6624024999327958,True,1,32,A,2023-11-16_15h13.43.413,exp3,2022.2.2,
,,,,,,,,,,,,,,,,,,,,,,,,47,1716,Valid,noise,-45,2,1.2716306999791414,1,2.0,2.5795408999547362,True,1,32,A,2023-11-16_15h13.43.413,exp3,2022.2.2,
,,,,,,,,,,,,,,,,,,,,,,,,48,-1158,Valid,noise,-45,2,1.0039301000069827,1,2.0,2.3118507000617683,True,1,32,A,2023-11-16_15h13.43.413,exp3,2022.2.2,
,,,,,,,,,,,,,,,,,,,,,,,,49,-1716,Valid,signal,45,2,1.3207465000450611,0,2.0,2.6290780999697745,True,1,32,A,2023-11-16_15h13.43.413,exp3,2022.2.2,
,,,,,,,,,,,,,,,,,,,,,,,,50,1158,Valid,noise,-45,2,1.0548304999247193,1,2.0,2.3630182000342757,True,1,32,A,2023-11-16_15h13.43.413,exp3,2022.2.2,
,,,,,,,,,,,,,,,,,,,,,,,,51,-557,Valid,signal,-45,1,2.465679500019178,1,3.0,10.999008700018749,True,2,32,A,2023-11-16_15h13.43.413,exp3,2022.2.2,
,,,,,,,,,,,,,,,,,,,,,,,,52,-557,Invalid,noise,45,2,3.0050417999736965,1,1.0,4.313130399910733,True,1,32,A,2023-11-16_15h13.43.413,exp3,2022.2.2,
,,,,,,,,,,,,,,,,,,,,,,,,53,-2274,Invalid,signal,-45,2,5.188547199824825,0,1.0,6.496782399946824,True,1,32,A,2023-11-16_15h13.43.413,exp3,2022.2.2,
,,,,,,,,,,,,,,,,,,,,,,,,54,557,Valid,signal,45,2,1.8214557999745011,0,3.0,3.129590000025928,True,1,32,A,2023-11-16_15h13.43.413,exp3,2022.2.2,
,,,,,,,,,,,,,,,,,,,,,,,,55,1716,Valid,signal,45,2,1.4382286998443305,0,2.0,2.7461958997882903,True,1,32,A,2023-11-16_15h13.43.413,exp3,2022.2.2,
,,,,,,,,,,,,,,,,,,,,,,,,56,2274,Valid,signal,45,2,1.2540076998993754,0,2.0,2.5623496000189334,True,1,32,A,2023-11-16_15h13.43.413,exp3,2022.2.2,
,,,,,,,,,,,,,,,,,,,,,,,,57,557,Invalid,noise,-45,2,2.137881599832326,1,1.0,3.4461984001100063,True,1,32,A,2023-11-16_15h13.43.413,exp3,2022.2.2,
,,,,,,,,,,,,,,,,,,,,,,,,58,1158,Valid,signal,-45,2,2.638586200075224,0,2.0,3.946776300203055,True,1,32,A,2023-11-16_15h13.43.413,exp3,2022.2.2,
,,,,,,,,,,,,,,,,,,,,,,,,59,-557,Valid,noise,45,2,1.2204206001479179,1,2.0,2.5285579999908805,True,1,32,A,2023-11-16_15h13.43.413,exp3,2022.2.2,
,,,,,,,,,,,,,,,,,,,,,,,,60,557,Valid,signal,-45,2,1.2878086001146585,0,3.0,2.5963089999277145,True,1,32,A,2023-11-16_15h13.43.413,exp3,2022.2.2,
,,,,,,,,,,,,,,,,,,,,,,,,61,1158,Valid,signal,-45,2,1.1706235001329333,0,3.0,2.4788705999962986,True,1,32,A,2023-11-16_15h13.43.413,exp3,2022.2.2,
,,,,,,,,,,,,,,,,,,,,,,,,62,-1158,Invalid,signal,-45,2,1.6383670999202877,0,1.0,2.9463921999558806,True,1,32,A,2023-11-16_15h13.43.413,exp3,2022.2.2,
,,,,,,,,,,,,,,,,,,,,,,,,63,-1716,Valid,noise,45,2,1.7210842999629676,1,2.0,3.029156800126657,True,1,32,A,2023-11-16_15h13.43.413,exp3,2022.2.2,
,,,,,,,,,,,,,,,,,,,,,,,,64,1158,Valid,signal,-45,2,1.1714075999334455,0,2.0,2.4792491998523474,True,1,32,A,2023-11-16_15h13.43.413,exp3,2022.2.2,
,,,,,,,,,,,,,,,,,,,,,,,,65,-2274,Valid,signal,45,2,1.5536945001222193,0,1.0,2.8621271001175046,True,1,32,A,2023-11-16_15h13.43.413,exp3,2022.2.2,
,,,,,,,,,,,,,,,,,,,,,,,,66,-1716,Valid,signal,-45,2,3.722330200020224,0,1.0,5.030422099865973,True,1,32,A,2023-11-16_15h13.43.413,exp3,2022.2.2,
,,,,,,,,,,,,,,,,,,,,,,,,67,-2274,Valid,noise,-45,2,1.4548432999290526,1,1.0,2.7627377999015152,True,1,32,A,2023-11-16_15h13.43.413,exp3,2022.2.2,
,,,,,,,,,,,,,,,,,,,,,,,,68,-1158,Valid,noise,-45,2,1.9543274999596179,1,2.0,3.26250179996714,True,1,32,A,2023-11-16_15h13.43.413,exp3,2022.2.2,
,,,,,,,,,,,,,,,,,,,,,,,,69,-1158,Valid,signal,-45,1,2.3209424999076873,1,1.0,3.62932790000923,True,1,32,A,2023-11-16_15h13.43.413,exp3,2022.2.2,
,,,,,,,,,,,,,,,,,,,,,,,,70,557,Valid,signal,45,1,1.6052214000374079,1,2.0,2.913417699979618,True,1,32,A,2023-11-16_15h13.43.413,exp3,2022.2.2,
,,,,,,,,,,,,,,,,,,,,,,,,71,557,Valid,signal,-45,2,1.2036154000088573,0,2.0,2.5119203999638557,True,1,32,A,2023-11-16_15h13.43.413,exp3,2022.2.2,
,,,,,,,,,,,,,,,,,,,,,,,,72,2274,Valid,signal,-45,2,2.4213000999297947,0,1.0,3.7296084000263363,True,1,32,A,2023-11-16_15h13.43.413,exp3,2022.2.2,
,,,,,,,,,,,,,,,,,,,,,,,,73,-2274,Valid,signal,-45,2,1.1709528001956642,0,2.0,2.479304699925706,True,1,32,A,2023-11-16_15h13.43.413,exp3,2022.2.2,
,,,,,,,,,,,,,,,,,,,,,,,,74,-2274,Invalid,signal,45,2,1.08832550002262,0,1.0,2.396176000125706,True,1,32,A,2023-11-16_15h13.43.413,exp3,2022.2.2,
,,,,,,,,,,,,,,,,,,,,,,,,75,-1158,Valid,noise,45,2,1.9538785999175161,1,1.0,3.2621029999572784,True,1,32,A,2023-11-16_15h13.43.413,exp3,2022.2.2,
,,,,,,,,,,,,,,,,,,,,,,,,76,1158,Valid,noise,45,2,1.2210518000647426,1,2.0,2.5291251000016928,True,1,32,A,2023-11-16_15h13.43.413,exp3,2022.2.2,
,,,,,,,,,,,,,,,,,,,,,,,,77,-1716,Invalid,signal,45,2,3.0548718001227826,0,1.0,4.363199299899861,True,1,32,A,2023-11-16_15h13.43.413,exp3,2022.2.2,
,,,,,,,,,,,,,,,,,,,,,,,,78,1716,Valid,noise,-45,2,1.1708694999106228,1,1.0,2.4792601000517607,True,1,32,A,2023-11-16_15h13.43.413,exp3,2022.2.2,
,,,,,,,,,,,,,,,,,,,,,,,,79,-2274,Valid,noise,45,2,1.1042795998509973,1,2.0,2.4124106001108885,True,1,32,A,2023-11-16_15h13.43.413,exp3,2022.2.2,
,,,,,,,,,,,,,,,,,,,,,,,,80,1158,Valid,noise,-45,2,0.9711362000089139,1,2.0,2.2793257001321763,True,1,32,A,2023-11-16_15h13.43.413,exp3,2022.2.2,
,,,,,,,,,,,,,,,,,,,,,,,,81,1716,Valid,signal,45,2,1.5043792000506073,0,1.0,2.812603499973193,True,1,32,A,2023-11-16_15h13.43.413,exp3,2022.2.2,
,,,,,,,,,,,,,,,,,,,,,,,,82,-1158,Valid,signal,45,1,0.9547951000276953,1,3.0,2.2628275000024587,True,1,32,A,2023-11-16_15h13.43.413,exp3,2022.2.2,
,,,,,,,,,,,,,,,,,,,,,,,,83,2274,Valid,signal,-45,2,1.2874272000044584,0,2.0,2.5957282001618296,True,1,32,A,2023-11-16_15h13.43.413,exp3,2022.2.2,
,,,,,,,,,,,,,,,,,,,,,,,,84,-557,Valid,signal,45,1,1.020863400073722,1,3.0,2.3293173001147807,True,1,32,A,2023-11-16_15h13.43.413,exp3,2022.2.2,
,,,,,,,,,,,,,,,,,,,,,,,,85,2274,Valid,noise,45,2,1.1373064999934286,1,1.0,2.4456113998312503,True,1,32,A,2023-11-16_15h13.43.413,exp3,2022.2.2,
,,,,,,,,,,,,,,,,,,,,,,,,86,-1158,Valid,noise,45,2,1.3050410998985171,1,2.0,2.6132535999640822,True,1,32,A,2023-11-16_15h13.43.413,exp3,2022.2.2,
,,,,,,,,,,,,,,,,,,,,,,,,87,1716,Valid,noise,-45,2,1.4708157000131905,1,3.0,2.778831100091338,True,1,32,A,2023-11-16_15h13.43.413,exp3,2022.2.2,
,,,,,,,,,,,,,,,,,,,,,,,,88,557,Invalid,signal,-45,1,1.6042985001113266,1,3.0,2.9124683998525143,True,1,32,A,2023-11-16_15h13.43.413,exp3,2022.2.2,
,,,,,,,,,,,,,,,,,,,,,,,,89,2274,Invalid,noise,45,2,1.5386250999290496,1,1.0,2.8464119001291692,True,1,32,A,2023-11-16_15h13.43.413,exp3,2022.2.2,
,,,,,,,,,,,,,,,,,,,,,,,,90,1158,Valid,signal,-45,2,0.9872435999568552,0,3.0,2.295420699985698,True,1,32,A,2023-11-16_15h13.43.413,exp3,2022.2.2,
,,,,,,,,,,,,,,,,,,,,,,,,91,-2274,Valid,signal,-45,2,1.47161479992792,0,2.0,2.7795474999584258,True,1,32,A,2023-11-16_15h13.43.413,exp3,2022.2.2,
,,,,,,,,,,,,,,,,,,,,,,,,92,-2274,Valid,signal,45,2,1.2707481000106782,0,1.0,2.5787903000600636,True,1,32,A,2023-11-16_15h13.43.413,exp3,2022.2.2,
,,,,,,,,,,,,,,,,,,,,,,,,93,-1716,Valid,signal,-45,1,1.6546337001491338,1,2.0,2.9629450000356883,True,1,32,A,2023-11-16_15h13.43.413,exp3,2022.2.2,
,,,,,,,,,,,,,,,,,,,,,,,,94,-1158,Valid,noise,45,1,1.3879072000272572,0,2.0,2.6961455999407917,True,1,32,A,2023-11-16_15h13.43.413,exp3,2022.2.2,
,,,,,,,,,,,,,,,,,,,,,,,,95,-2274,Invalid,noise,45,2,1.5710315997712314,1,1.0,2.878883199999109,True,1,32,A,2023-11-16_15h13.43.413,exp3,2022.2.2,
,,,,,,,,,,,,,,,,,,,,,,,,96,557,Valid,signal,-45,2,1.3709584001917392,0,3.0,2.679204799933359,True,1,32,A,2023-11-16_15h13.43.413,exp3,2022.2.2,
,,,,,,,,,,,,,,,,,,,,,,,,97,-1716,Valid,noise,45,2,2.3381229999940842,1,2.0,3.6463450000155717,True,1,32,A,2023-11-16_15h13.43.413,exp3,2022.2.2,
,,,,,,,,,,,,,,,,,,,,,,,,98,1158,Invalid,signal,45,1,1.4376950999721885,1,3.0,2.7458796000573784,True,1,32,A,2023-11-16_15h13.43.413,exp3,2022.2.2,
,,,,,,,,,,,,,,,,,,,,,,,,99,-1716,Invalid,signal,-45,2,1.6722678998485208,0,2.0,2.9802854999434203,True,1,32,A,2023-11-16_15h13.43.413,exp3,2022.2.2,
,,,,,,,,,,,,,,,,,,,,,,,,100,-1716,Invalid,noise,-45,2,1.9039076999761164,1,2.0,3.2123064000625163,True,1,32,A,2023-11-16_15h13.43.413,exp3,2022.2.2,
,,,,,,,,,,,,,,,,,,,,,,,,101,2274,Invalid,signal,-45,1,1.4880148000083864,1,2.0,2.796084800036624,True,1,32,A,2023-11-16_15h13.43.413,exp3,2022.2.2,
,,,,,,,,,,,,,,,,,,,,,,,,102,1716,Valid,noise,45,2,3.0889901001937687,1,2.0,4.397122600115836,True,1,32,A,2023-11-16_15h13.43.413,exp3,2022.2.2,
,,,,,,,,,,,,,,,,,,,,,,,,103,-1716,Valid,noise,45,2,3.138291400158778,1,2.0,4.4463790000882,True,1,32,A,2023-11-16_15h13.43.413,exp3,2022.2.2,
,,,,,,,,,,,,,,,,,,,,,,,,104,-1716,Valid,signal,45,2,1.3534174000378698,0,2.0,2.661587700014934,True,1,32,A,2023-11-16_15h13.43.413,exp3,2022.2.2,
,,,,,,,,,,,,,,,,,,,,,,,,105,2274,Valid,signal,-45,2,1.0543629999738187,0,2.0,2.362424299819395,True,1,32,A,2023-11-16_15h13.43.413,exp3,2022.2.2,
,,,,,,,,,,,,,,,,,,,,,,,,106,-1716,Valid,signal,-45,2,3.856036600191146,0,2.0,5.1641610998194665,True,1,32,A,2023-11-16_15h13.43.413,exp3,2022.2.2,
,,,,,,,,,,,,,,,,,,,,,,,,107,557,Valid,noise,-45,2,1.053602899890393,1,3.0,2.3617657001595944,True,1,32,A,2023-11-16_15h13.43.413,exp3,2022.2.2,
,,,,,,,,,,,,,,,,,,,,,,,,108,1716,Valid,signal,-45,2,4.77242000005208,0,2.0,6.080472300061956,True,1,32,A,2023-11-16_15h13.43.413,exp3,2022.2.2,
,,,,,,,,,,,,,,,,,,,,,,,,109,-1716,Valid,noise,45,2,2.3337199999950826,1,2.0,8.031426599947736,True,2,32,A,2023-11-16_15h13.43.413,exp3,2022.2.2,
,,,,,,,,,,,,,,,,,,,,,,,,110,-557,Invalid,signal,-45,2,2.804622899973765,0,2.0,4.11310279997997,True,1,32,A,2023-11-16_15h13.43.413,exp3,2022.2.2,
,,,,,,,,,,,,,,,,,,,,,,,,111,1716,Valid,noise,45,2,2.2379396001342684,1,2.0,3.546198100084439,True,1,32,A,2023-11-16_15h13.43.413,exp3,2022.2.2,
,,,,,,,,,,,,,,,,,,,,,,,,112,557,Valid,noise,-45,2,1.0545024001039565,1,3.0,2.362563299946487,True,1,32,A,2023-11-16_15h13.43.413,exp3,2022.2.2,
,,,,,,,,,,,,,,,,,,,,,,,,113,2274,Valid,signal,45,2,1.2042595997918397,0,2.0,2.512453000061214,True,1,32,A,2023-11-16_15h13.43.413,exp3,2022.2.2,
,,,,,,,,,,,,,,,,,,,,,,,,114,-2274,Valid,noise,45,2,0.9716293998062611,1,2.0,2.279728200053796,True,1,32,A,2023-11-16_15h13.43.413,exp3,2022.2.2,
,,,,,,,,,,,,,,,,,,,,,,,,115,1716,Invalid,signal,45,1,2.087659499840811,1,1.0,3.3957939001265913,True,1,32,A,2023-11-16_15h13.43.413,exp3,2022.2.2,
,,,,,,,,,,,,,,,,,,,,,,,,116,2274,Valid,noise,-45,2,1.2210080998484045,1,2.0,2.529177499935031,True,1,32,A,2023-11-16_15h13.43.413,exp3,2022.2.2,
,,,,,,,,,,,,,,,,,,,,,,,,117,1158,Valid,noise,45,2,1.6714678001590073,1,2.0,2.9797192998230457,True,1,32,A,2023-11-16_15h13.43.413,exp3,2022.2.2,
,,,,,,,,,,,,,,,,,,,,,,,,118,-1158,Valid,signal,-45,1,1.1712635001167655,1,3.0,2.4792220999952406,True,1,32,A,2023-11-16_15h13.43.413,exp3,2022.2.2,
,,,,,,,,,,,,,,,,,,,,,,,,119,2274,Valid,signal,45,2,1.1546010000165552,0,2.0,2.4626878001727164,True,1,32,A,2023-11-16_15h13.43.413,exp3,2022.2.2,
,,,,,,,,,,,,,,,,,,,,,,,,120,1716,Valid,signal,45,2,1.5045831000898033,0,2.0,2.8127093000803143,True,1,32,A,2023-11-16_15h13.43.413,exp3,2022.2.2,
,,,,,,,,,,,,,,,,,,,,,,,,121,1716,Invalid,noise,-45,2,1.7868920001201332,1,1.0,3.0952061000280082,True,1,32,A,2023-11-16_15h13.43.413,exp3,2022.2.2,
,,,,,,,,,,,,,,,,,,,,,,,,122,-1158,Invalid,noise,45,2,1.420844600070268,1,1.0,2.7290485000703484,True,1,32,A,2023-11-16_15h13.43.413,exp3,2022.2.2,
,,,,,,,,,,,,,,,,,,,,,,,,123,-557,Valid,signal,45,1,1.388655300019309,1,3.0,2.696708400035277,True,1,32,A,2023-11-16_15h13.43.413,exp3,2022.2.2,
,,,,,,,,,,,,,,,,,,,,,,,,124,-2274,Valid,noise,-45,2,1.3870375000406057,1,1.0,2.6951773001346737,True,1,32,A,2023-11-16_15h13.43.413,exp3,2022.2.2,
,,,,,,,,,,,,,,,,,,,,,,,,125,2274,Valid,noise,45,2,1.4377073000650853,1,1.0,2.7460931001696736,True,1,32,A,2023-11-16_15h13.43.413,exp3,2022.2.2,
,,,,,,,,,,,,,,,,,,,,,,,,126,1716,Valid,noise,-45,2,2.054759600199759,1,2.0,3.3628811000380665,True,1,32,A,2023-11-16_15h13.43.413,exp3,2022.2.2,
,,,,,,,,,,,,,,,,,,,,,,,,127,-1158,Valid,signal,45,1,1.120829900028184,1,3.0,2.429222999839112,True,1,32,A,2023-11-16_15h13.43.413,exp3,2022.2.2,
,,,,,,,,,,,,,,,,,,,,,,,,128,-1158,Valid,noise,-45,1,2.3044356999453157,0,1.0,3.612491700099781,True,1,32,A,2023-11-16_15h13.43.413,exp3,2022.2.2,
,,,,,,,,,,,,,,,,,,,,,,,,129,1716,Valid,noise,45,2,1.0211929001379758,1,2.0,2.329553599935025,True,1,32,A,2023-11-16_15h13.43.413,exp3,2022.2.2,
,,,,,,,,,,,,,,,,,,,,,,,,130,557,Valid,noise,45,2,1.254489100072533,1,2.0,2.56265340000391,True,1,32,A,2023-11-16_15h13.43.413,exp3,2022.2.2,
,,,,,,,,,,,,,,,,,,,,,,,,131,1158,Invalid,noise,-45,1,1.404819899937138,0,2.0,2.712985400110483,True,1,32,A,2023-11-16_15h13.43.413,exp3,2022.2.2,
,,,,,,,,,,,,,,,,,,,,,,,,132,-1158,Valid,signal,45,1,1.170422299997881,1,2.0,2.4786764001473784,True,1,32,A,2023-11-16_15h13.43.413,exp3,2022.2.2,
,,,,,,,,,,,,,,,,,,,,,,,,133,1716,Invalid,noise,45,2,2.1051612000446767,1,1.0,3.4132616000715643,True,1,32,A,2023-11-16_15h13.43.413,exp3,2022.2.2,
,,,,,,,,,,,,,,,,,,,,,,,,134,-1716,Valid,noise,-45,2,1.3217021999880672,1,2.0,2.6297447001561522,True,1,32,A,2023-11-16_15h13.43.413,exp3,2022.2.2,
,,,,,,,,,,,,,,,,,,,,,,,,135,-1158,Valid,noise,45,2,1.2535482000093907,1,2.0,2.5620882001239806,True,1,32,A,2023-11-16_15h13.43.413,exp3,2022.2.2,
,,,,,,,,,,,,,,,,,,,,,,,,136,-557,Valid,noise,-45,2,1.2376871001906693,1,3.0,2.545856500044465,True,1,32,A,2023-11-16_15h13.43.413,exp3,2022.2.2,
,,,,,,,,,,,,,,,,,,,,,,,,137,1158,Valid,noise,-45,2,1.9209286998957396,1,2.0,3.2294385000132024,True,1,32,A,2023-11-16_15h13.43.413,exp3,2022.2.2,
,,,,,,,,,,,,,,,,,,,,,,,,138,-557,Valid,signal,45,1,2.221883699996397,1,2.0,3.5300161000341177,True,1,32,A,2023-11-16_15h13.43.413,exp3,2022.2.2,
,,,,,,,,,,,,,,,,,,,,,,,,139,557,Valid,noise,-45,2,1.2209092997945845,1,2.0,2.5288535999134183,True,1,32,A,2023-11-16_15h13.43.413,exp3,2022.2.2,
,,,,,,,,,,,,,,,,,,,,,,,,140,1716,Valid,noise,45,2,1.1208430998958647,1,2.0,2.429173800162971,True,1,32,A,2023-11-16_15h13.43.413,exp3,2022.2.2,
,,,,,,,,,,,,,,,,,,,,,,,,141,-557,Valid,signal,45,1,1.6047592000104487,1,2.0,2.9129289998672903,True,1,32,A,2023-11-16_15h13.43.413,exp3,2022.2.2,
,,,,,,,,,,,,,,,,,,,,,,,,142,-1716,Invalid,noise,-45,2,2.6555254000704736,1,1.0,3.9633265999145806,True,1,32,A,2023-11-16_15h13.43.413,exp3,2022.2.2,
,,,,,,,,,,,,,,,,,,,,,,,,143,-1158,Invalid,signal,45,1,1.4038023999892175,1,2.0,2.712066899985075,True,1,32,A,2023-11-16_15h13.43.413,exp3,2022.2.2,
,,,,,,,,,,,,,,,,,,,,,,,,144,-1158,Valid,noise,45,2,1.6038271998986602,1,2.0,2.912549699889496,True,1,32,A,2023-11-16_15h13.43.413,exp3,2022.2.2,
,,,,,,,,,,,,,,,,,,,,,,,,145,-557,Valid,noise,45,2,0.9718452000524849,1,2.0,2.2799899000674486,True,1,32,A,2023-11-16_15h13.43.413,exp3,2022.2.2,
,,,,,,,,,,,,,,,,,,,,,,,,146,-1158,Valid,signal,45,1,1.2204475000035018,1,2.0,2.5286063000094146,True,1,32,A,2023-11-16_15h13.43.413,exp3,2022.2.2,
,,,,,,,,,,,,,,,,,,,,,,,,147,-1716,Valid,signal,-45,2,1.1709282998926938,0,2.0,2.479088000021875,True,1,32,A,2023-11-16_15h13.43.413,exp3,2022.2.2,
,,,,,,,,,,,,,,,,,,,,,,,,148,-2274,Valid,signal,-45,2,1.4717570999637246,0,1.0,2.7799575000535697,True,1,32,A,2023-11-16_15h13.43.413,exp3,2022.2.2,
,,,,,,,,,,,,,,,,,,,,,,,,149,-1158,Valid,signal,-45,1,1.1039043001364917,1,2.0,2.412296999944374,True,1,32,A,2023-11-16_15h13.43.413,exp3,2022.2.2,
,,,,,,,,,,,,,,,,,,,,,,,,150,557,Valid,noise,45,2,1.0368202000390738,1,2.0,2.3450056998990476,True,1,32,A,2023-11-16_15h13.43.413,exp3,2022.2.2,
,,,,,,,,,,,,,,,,,,,,,,,,151,2274,Valid,noise,45,2,1.3050536001101136,1,1.0,2.613128000171855,True,1,32,A,2023-11-16_15h13.43.413,exp3,2022.2.2,
,,,,,,,,,,,,,,,,,,,,,,,,152,1716,Valid,signal,-45,2,1.2203735001385212,0,2.0,2.528700399911031,True,1,32,A,2023-11-16_15h13.43.413,exp3,2022.2.2,
,,,,,,,,,,,,,,,,,,,,,,,,153,-1716,Valid,noise,45,2,1.1544208999257535,1,1.0,2.4626715001650155,True,1,32,A,2023-11-16_15h13.43.413,exp3,2022.2.2,
,,,,,,,,,,,,,,,,,,,,,,,,154,1716,Valid,signal,-45,2,1.2213334999978542,0,2.0,2.5295283999294043,True,1,32,A,2023-11-16_15h13.43.413,exp3,2022.2.2,
,,,,,,,,,,,,,,,,,,,,,,,,155,-1158,Valid,signal,45,1,1.1041270000860095,1,2.0,2.412185800028965,True,1,32,A,2023-11-16_15h13.43.413,exp3,2022.2.2,
,,,,,,,,,,,,,,,,,,,,,,,,156,-2274,Invalid,noise,-45,2,2.238130799960345,1,1.0,3.546480900142342,True,1,32,A,2023-11-16_15h13.43.413,exp3,2022.2.2,
,,,,,,,,,,,,,,,,,,,,,,,,157,-557,Invalid,noise,45,2,1.9720117999240756,1,2.0,3.2799452000763267,True,1,32,A,2023-11-16_15h13.43.413,exp3,2022.2.2,
,,,,,,,,,,,,,,,,,,,,,,,,158,1716,Valid,signal,45,2,2.95462580001913,0,1.0,4.262785000028089,True,1,32,A,2023-11-16_15h13.43.413,exp3,2022.2.2,
,,,,,,,,,,,,,,,,,,,,,,,,159,1158,Valid,noise,-45,2,1.1873292999807745,1,1.0,2.495558600174263,True,1,32,A,2023-11-16_15h13.43.413,exp3,2022.2.2,
,,,,,,,,,,,,,,,,,,,,,,,,160,557,Valid,noise,45,2,1.1878410000354052,1,1.0,2.4962347999680787,True,1,32,A,2023-11-16_15h13.43.413,exp3,2022.2.2,
,,,,,,,,,,,,,,,,,,,,,,,,161,-2274,Valid,signal,45,2,1.4037941000424325,0,1.0,2.712186299962923,True,1,32,A,2023-11-16_15h13.43.413,exp3,2022.2.2,
,,,,,,,,,,,,,,,,,,,,,,,,162,-557,Valid,signal,-45,1,0.9541004998609424,1,3.0,2.2622716000769287,True,1,32,A,2023-11-16_15h13.43.413,exp3,2022.2.2,
,,,,,,,,,,,,,,,,,,,,,,,,163,-557,Valid,signal,45,1,0.8549478999339044,1,3.0,2.1631525999400765,True,1,32,A,2023-11-16_15h13.43.413,exp3,2022.2.2,
,,,,,,,,,,,,,,,,,,,,,,,,164,1158,Valid,noise,45,2,1.2538133999332786,1,2.0,2.5620106998831034,True,1,32,A,2023-11-16_15h13.43.413,exp3,2022.2.2,
,,,,,,,,,,,,,,,,,,,,,,,,165,2274,Valid,noise,-45,2,1.2040872001089156,1,1.0,2.51237709983252,True,1,32,A,2023-11-16_15h13.43.413,exp3,2022.2.2,
,,,,,,,,,,,,,,,,,,,,,,,,166,-2274,Valid,signal,45,1,1.1707937000319362,1,1.0,2.4791796999052167,True,1,32,A,2023-11-16_15h13.43.413,exp3,2022.2.2,
,,,,,,,,,,,,,,,,,,,,,,,,167,557,Valid,signal,45,1,1.0383562999777496,1,3.0,2.346297200070694,True,1,32,A,2023-11-16_15h13.43.413,exp3,2022.2.2,
,,,,,,,,,,,,,,,,,,,,,,,,168,1158,Invalid,noise,45,1,2.137329600052908,0,1.0,3.4455927000381052,True,1,32,A,2023-11-16_15h13.43.413,exp3,2022.2.2,
,,,,,,,,,,,,,,,,,,,,,,,,169,2274,Valid,noise,-45,2,1.371680999873206,1,1.0,2.6795814000070095,True,1,32,A,2023-11-16_15h13.43.413,exp3,2022.2.2,
,,,,,,,,,,,,,,,,,,,,,,,,170,-557,Invalid,signal,45,1,1.5040930001996458,1,2.0,2.812243500025943,True,1,32,A,2023-11-16_15h13.43.413,exp3,2022.2.2,
,,,,,,,,,,,,,,,,,,,,,,,,171,1158,Valid,signal,-45,2,1.7212882000021636,0,2.0,3.0292066000401974,True,1,32,A,2023-11-16_15h13.43.413,exp3,2022.2.2,
,,,,,,,,,,,,,,,,,,,,,,,,172,557,Valid,signal,45,1,1.1041025999002159,1,2.0,2.412308800034225,True,1,32,A,2023-11-16_15h13.43.413,exp3,2022.2.2,
,,,,,,,,,,,,,,,,,,,,,,,,173,-1716,Valid,signal,45,1,1.1873329998925328,1,2.0,2.4956477000378072,True,1,32,A,2023-11-16_15h13.43.413,exp3,2022.2.2,
,,,,,,,,,,,,,,,,,,,,,,,,174,1716,Valid,noise,45,2,1.205010399920866,1,1.0,2.5131335000041872,True,1,32,A,2023-11-16_15h13.43.413,exp3,2022.2.2,
,,,,,,,,,,,,,,,,,,,,,,,,175,2274,Invalid,noise,45,2,1.603869899874553,1,1.0,2.9122266001068056,True,1,32,A,2023-11-16_15h13.43.413,exp3,2022.2.2,
,,,,,,,,,,,,,,,,,,,,,,,,176,1158,Invalid,signal,45,1,1.3885504000354558,1,2.0,2.6965761000756174,True,1,32,A,2023-11-16_15h13.43.413,exp3,2022.2.2,
,,,,,,,,,,,,,,,,,,,,,,,,2,-1716,Valid,noise,45,2,1.8140708999708295,1,1.0,3.1229742001742125,True,1,32,A,2023-11-16_15h13.43.413,exp3,2022.2.2,
,,,,,,,,,,,,,,,,,,,,,,,,4,2274,Valid,noise,45,2,1.0701253998558968,1,1.0,2.3787690999452025,True,1,32,A,2023-11-16_15h13.43.413,exp3,2022.2.2,
,,,,,,,,,,,,,,,,,,,,,,,,6,-1716,Valid,noise,45,2,1.3372367999982089,1,1.0,2.6459973000455648,True,1,32,A,2023-11-16_15h13.43.413,exp3,2022.2.2,
,,,,,,,,,,,,,,,,,,,,,,,,8,-2274,Valid,noise,-45,2,1.1377394997980446,1,1.0,2.4461662000976503,True,1,32,A,2023-11-16_15h13.43.413,exp3,2022.2.2,
,,,,,,,,,,,,,,,,,,,,,,,,10,-2274,Valid,noise,-45,2,1.0202391999773681,1,1.0,2.3287021999713033,True,1,32,A,2023-11-16_15h13.43.413,exp3,2022.2.2,
,,,,,,,,,,,,,,,,,,,,,,,,12,557,Valid,noise,45,2,1.821255300194025,1,3.0,3.1296989999245852,True,1,32,A,2023-11-16_15h13.43.413,exp3,2022.2.2,
,,,,,,,,,,,,,,,,,,,,,,,,14,-557,Valid,signal,-45,1,1.370547000085935,1,2.0,2.679075599880889,True,1,32,A,2023-11-16_15h13.43.413,exp3,2022.2.2,
,,,,,,,,,,,,,,,,,,,,,,,,16,-1716,Valid,noise,-45,2,1.103857700014487,1,1.0,2.4126659999601543,True,1,32,A,2023-11-16_15h13.43.413,exp3,2022.2.2,
,,,,,,,,,,,,,,,,,,,,,,,,18,-2274,Valid,signal,-45,1,0.9209304999094456,1,2.0,2.2292245000135154,True,1,32,A,2023-11-16_15h13.43.413,exp3,2022.2.2,
,,,,,,,,,,,,,,,,,,,,,,,,20,-1158,Valid,noise,-45,2,1.5874285001773387,1,2.0,2.89590990007855,True,1,32,A,2023-11-16_15h13.43.413,exp3,2022.2.2,
,,,,,,,,,,,,,,,,,,,,,,,,22,1716,Valid,noise,-45,2,1.3878379999659956,1,2.0,2.69642150006257,True,1,32,A,2023-11-16_15h13.43.413,exp3,2022.2.2,
,,,,,,,,,,,,,,,,,,,,,,,,24,557,Valid,noise,45,2,1.7375448001548648,1,2.0,3.0458134999498725,True,1,32,A,2023-11-16_15h13.43.413,exp3,2022.2.2,
,,,,,,,,,,,,,,,,,,,,,,,,26,-557,Valid,noise,-45,2,1.1200608001090586,1,2.0,2.4285446000285447,True,1,32,A,2023-11-16_15h13.43.413,exp3,2022.2.2,
,,,,,,,,,,,,,,,,,,,,,,,,28,1716,Valid,noise,45,2,2.2882940000854433,1,2.0,3.596910399850458,True,1,32,A,2023-11-16_15h13.43.413,exp3,2022.2.2,
,,,,,,,,,,,,,,,,,,,,,,,,30,-1158,Valid,noise,-45,2,1.9204975001048297,1,1.0,3.228973599849269,True,1,32,A,2023-11-16_15h13.43.413,exp3,2022.2.2,
,,,,,,,,,,,,,,,,,,,,,,,,32,-1158,Valid,noise,45,2,1.937271200120449,1,1.0,3.245976399863139,True,1,32,A,2023-11-16_15h13.43.413,exp3,2022.2.2,
,,,,,,,,,,,,,,,,,,,,,,,,34,1716,Valid,signal,45,2,1.254073000047356,0,3.0,2.5627103000879288,True,1,32,A,2023-11-16_15h13.43.413,exp3,2022.2.2,
,,,,,,,,,,,,,,,,,,,,,,,,36,-1716,Invalid,signal,-45,2,1.4873033999465406,0,1.0,2.795952199958265,True,1,32,A,2023-11-16_15h13.43.413,exp3,2022.2.2,
,,,,,,,,,,,,,,,,,,,,,,,,38,2274,Valid,signal,-45,2,1.086864999961108,0,2.0,2.3956569998990744,True,1,32,A,2023-11-16_15h13.43.413,exp3,2022.2.2,
,,,,,,,,,,,,,,,,,,,,,,,,40,-1158,Valid,signal,45,1,1.537975100101903,1,3.0,2.846537800040096,True,1,32,A,2023-11-16_15h13.43.413,exp3,2022.2.2,
,,,,,,,,,,,,,,,,,,,,,,,,42,-1158,Valid,signal,45,1,0.9208025999832898,1,3.0,2.229249499971047,True,1,32,A,2023-11-16_15h13.43.413,exp3,2022.2.2,
,,,,,,,,,,,,,,,,,,,,,,,,44,2274,Invalid,noise,45,2,1.5203941001091152,1,1.0,2.8289401000365615,True,1,32,A,2023-11-16_15h13.43.413,exp3,2022.2.2,
,,,,,,,,,,,,,,,,,,,,,,,,46,-1158,Valid,noise,-45,1,2.938279900001362,0,2.0,4.246573700103909,True,1,32,A,2023-11-16_15h13.43.413,exp3,2022.2.2,
,,,,,,,,,,,,,,,,,,,,,,,,48,-1158,Valid,noise,45,2,1.6705996000673622,1,2.0,2.9792409997899085,True,1,32,A,2023-11-16_15h13.43.413,exp3,2022.2.2,
,,,,,,,,,,,,,,,,,,,,,,,,50,-1158,Valid,signal,45,1,0.970695500029251,1,2.0,2.279435700038448,True,1,32,A,2023-11-16_15h13.43.413,exp3,2022.2.2,
,,,,,,,,,,,,,,,,,,,,,,,,52,2274,Valid,noise,45,2,1.1538348000030965,1,2.0,2.4625005999114364,True,1,32,A,2023-11-16_15h13.43.413,exp3,2022.2.2,
,,,,,,,,,,,,,,,,,,,,,,,,54,-2274,Valid,signal,-45,2,1.6873875998426229,0,2.0,2.9960092999972403,True,1,32,A,2023-11-16_15h13.43.413,exp3,2022.2.2,
,,,,,,,,,,,,,,,,,,,,,,,,56,2274,Valid,signal,45,2,1.070860099978745,0,2.0,2.379452200140804,True,1,32,A,2023-11-16_15h13.43.413,exp3,2022.2.2,
,,,,,,,,,,,,,,,,,,,,,,,,58,-557,Valid,signal,-45,1,1.5705701999831945,1,3.0,2.879176599904895,True,1,32,A,2023-11-16_15h13.43.413,exp3,2022.2.2,
,,,,,,,,,,,,,,,,,,,,,,,,60,1158,Valid,signal,-45,2,1.1377153999637812,0,2.0,2.4459679999854416,True,1,32,A,2023-11-16_15h13.43.413,exp3,2022.2.2,
,,,,,,,,,,,,,,,,,,,,,,,,62,2274,Invalid,noise,-45,2,2.437394200125709,1,2.0,3.7458662998396903,True,1,32,A,2023-11-16_15h13.43.413,exp3,2022.2.2,
,,,,,,,,,,,,,,,,,,,,,,,,64,557,Invalid,signal,-45,1,1.504070800030604,1,2.0,2.8125571999698877,True,1,32,A,2023-11-16_15h13.43.413,exp3,2022.2.2,
,,,,,,,,,,,,,,,,,,,,,,,,66,557,Valid,noise,45,2,0.9705117999110371,1,2.0,2.2791071999818087,True,1,32,A,2023-11-16_15h13.43.413,exp3,2022.2.2,
,,,,,,,,,,,,,,,,,,,,,,,,68,-1716,Valid,signal,-45,2,0.9872486998792738,0,2.0,2.2957995000761002,True,1,32,A,2023-11-16_15h13.43.413,exp3,2022.2.2,
,,,,,,,,,,,,,,,,,,,,,,,,70,-1716,Valid,noise,45,2,2.521124399965629,1,1.0,3.829690400045365,True,1,32,A,2023-11-16_15h13.43.413,exp3,2022.2.2,
,,,,,,,,,,,,,,,,,,,,,,,,72,-557,Valid,noise,45,2,1.0540430000983179,1,3.0,2.3626000001095235,True,1,32,A,2023-11-16_15h13.43.413,exp3,2022.2.2,
,,,,,,,,,,,,,,,,,,,,,,,,74,2274,Valid,signal,-45,1,1.2212900000158697,1,2.0,2.529765200102702,True,1,32,A,2023-11-16_15h13.43.413,exp3,2022.2.2,
,,,,,,,,,,,,,,,,,,,,,,,,76,-1158,Invalid,signal,45,1,1.6867587000597268,1,2.0,2.9954150000121444,True,1,32,A,2023-11-16_15h13.43.413,exp3,2022.2.2,
,,,,,,,,,,,,,,,,,,,,,,,,78,1716,Invalid,signal,45,2,3.321772900177166,0,1.0,4.630322800017893,True,1,32,A,2023-11-16_15h13.43.413,exp3,2022.2.2,
,,,,,,,,,,,,,,,,,,,,,,,,80,2274,Valid,signal,-45,2,1.0706000998616219,0,1.0,2.3792195999994874,True,1,32,A,2023-11-16_15h13.43.413,exp3,2022.2.2,
,,,,,,,,,,,,,,,,,,,,,,,,82,-557,Invalid,noise,45,2,1.6701807000208646,1,2.0,2.9789984999224544,True,1,32,A,2023-11-16_15h13.43.413,exp3,2022.2.2,
,,,,,,,,,,,,,,,,,,,,,,,,84,-1716,Valid,signal,45,2,1.7716534999199212,0,2.0,3.0801562999840826,True,1,32,A,2023-11-16_15h13.43.413,exp3,2022.2.2,
,,,,,,,,,,,,,,,,,,,,,,,,86,-557,Valid,noise,45,2,1.4534549999516457,1,2.0,2.762057199841365,True,1,32,A,2023-11-16_15h13.43.413,exp3,2022.2.2,
