trials.label,trials.startVal,trials.maxVal,trials.minVal,trials.startValSd,trials.pthreshold,trials.beta,trials.delta,trials.gamma,trials.grain,trials.stepSize,trials.range,trials.cue,trials.thisIndex,trials.thisRepN,trials.thisN,trials.direction,trials.stepType,trials.intensity,signalOpacity,stair_response_correct,level,trials.response,stair_eye_ok,nTrial,position,validity,Stimulus,orientation,response_key,response_rt,response_correct,confidence,confidence_rt,eye_ok,trial_rep,participant,session,date,expName,psychopyVersion,
low_opac_i,0.4,1,0.01,3,0.82,3.5,0.01,0,0.01,4,5,Invalid,2,1,0,start,lin,0.4,0.4,1,0.4,1,True,,,,,,,,,,,,,20,A,2023-09-16_10h20.57.725,exp3,2022.2.2,
high_opac_v,0.01,1,0.01,3,0.82,3.5,0.01,0,0.01,4,5,Valid,1,1,1,start,lin,0.01,0.01,0,0.01,0,True,,,,,,,,,,,,,20,A,2023-09-16_10h20.57.725,exp3,2022.2.2,
low_opac_v,0.4,1,0.01,3,0.82,3.5,0.01,0,0.01,4,5,Valid,0,1,2,start,lin,0.4,0.4,1,0.4,1,True,,,,,,,,,,,,,20,A,2023-09-16_10h20.57.725,exp3,2022.2.2,
low_opac_i,0.4,1,0.01,3,0.82,3.5,0.01,0,0.01,4,5,Invalid,2,2,3,start,lin,0.01,0.01,0,0.01,0,True,,,,,,,,,,,,,20,A,2023-09-16_10h20.57.725,exp3,2022.2.2,
high_opac_v,0.01,1,0.01,3,0.82,3.5,0.01,0,0.01,4,5,Valid,1,2,4,start,lin,1,0,1,1,1,True,,,,,,,,,,,,,20,A,2023-09-16_10h20.57.725,exp3,2022.2.2,
low_opac_v,0.4,1,0.01,3,0.82,3.5,0.01,0,0.01,4,5,Valid,0,2,5,start,lin,0.01,0,1,0.01,1,True,,,,,,,,,,,,,20,A,2023-09-16_10h20.57.725,exp3,2022.2.2,
low_opac_v,0.4,1,0.01,3,0.82,3.5,0.01,0,0.01,4,5,Valid,0,3,6,start,lin,0.01,0,1,0.01,1,True,,,,,,,,,,,,,20,A,2023-09-16_10h20.57.725,exp3,2022.2.2,
low_opac_i,0.4,1,0.01,3,0.82,3.5,0.01,0,0.01,4,5,Invalid,2,3,7,start,lin,0.3144098688205103,0,1,0.3144098688205103,1,True,,,,,,,,,,,,,20,A,2023-09-16_10h20.57.725,exp3,2022.2.2,
high_opac_v,0.01,1,0.01,3,0.82,3.5,0.01,0,0.01,4,5,Valid,1,3,8,start,lin,0.6092784667527542,0,1,0.6092784667527542,1,True,,,,,,,,,,,,,20,A,2023-09-16_10h20.57.725,exp3,2022.2.2,
low_opac_i,0.4,1,0.01,3,0.82,3.5,0.01,0,0.01,4,5,Invalid,2,4,9,start,lin,0.23561159539411833,0.23561159539411833,1,0.23561159539411833,1,True,,,,,,,,,,,,,20,A,2023-09-16_10h20.57.725,exp3,2022.2.2,
low_opac_v,0.4,1,0.01,3,0.82,3.5,0.01,0,0.01,4,5,Valid,0,4,10,start,lin,0.01,0,1,0.01,1,True,,,,,,,,,,,,,20,A,2023-09-16_10h20.57.725,exp3,2022.2.2,
high_opac_v,0.01,1,0.01,3,0.82,3.5,0.01,0,0.01,4,5,Valid,1,4,11,start,lin,0.41662067589367746,0,1,0.41662067589367746,1,True,,,,,,,,,,,,,20,A,2023-09-16_10h20.57.725,exp3,2022.2.2,
high_opac_v,0.01,1,0.01,3,0.82,3.5,0.01,0,0.01,4,5,Valid,1,5,12,start,lin,0.3073330120243674,0,1,0.3073330120243674,1,True,,,,,,,,,,,,,20,A,2023-09-16_10h20.57.725,exp3,2022.2.2,
low_opac_i,0.4,1,0.01,3,0.82,3.5,0.01,0,0.01,4,5,Invalid,2,5,13,start,lin,0.1841780991895161,0,1,0.1841780991895161,1,True,,,,,,,,,,,,,20,A,2023-09-16_10h20.57.725,exp3,2022.2.2,
low_opac_v,0.4,1,0.01,3,0.82,3.5,0.01,0,0.01,4,5,Valid,0,5,14,start,lin,0.01,0.01,0,0.01,0,True,,,,,,,,,,,,,20,A,2023-09-16_10h20.57.725,exp3,2022.2.2,
low_opac_i,0.4,1,0.01,3,0.82,3.5,0.01,0,0.01,4,5,Invalid,2,6,15,start,lin,0.14081453445857006,0.14081453445857006,0,0.14081453445857006,0,True,,,,,,,,,,,,,20,A,2023-09-16_10h20.57.725,exp3,2022.2.2,
high_opac_v,0.01,1,0.01,3,0.82,3.5,0.01,0,0.01,4,5,Valid,1,6,16,start,lin,0.2346279982429363,0,1,0.2346279982429363,1,True,,,,,,,,,,,,,20,A,2023-09-16_10h20.57.725,exp3,2022.2.2,
low_opac_v,0.4,1,0.01,3,0.82,3.5,0.01,0,0.01,4,5,Valid,0,6,17,start,lin,0.01,0.01,0,0.01,0,True,,,,,,,,,,,,,20,A,2023-09-16_10h20.57.725,exp3,2022.2.2,
low_opac_v,0.4,1,0.01,3,0.82,3.5,0.01,0,0.01,4,5,Valid,0,7,18,start,lin,0.09211722752377788,0,1,0.09211722752377788,1,True,,,,,,,,,,,,,20,A,2023-09-16_10h20.57.725,exp3,2022.2.2,
high_opac_v,0.01,1,0.01,3,0.82,3.5,0.01,0,0.01,4,5,Valid,1,7,19,start,lin,0.1783883928663719,0.1783883928663719,1,0.1783883928663719,1,True,,,,,,,,,,,,,20,A,2023-09-16_10h20.57.725,exp3,2022.2.2,
low_opac_i,0.4,1,0.01,3,0.82,3.5,0.01,0,0.01,4,5,Invalid,2,7,20,start,lin,0.23618356900306736,0,0,0.23618356900306736,0,True,,,,,,,,,,,,,20,A,2023-09-16_10h20.57.725,exp3,2022.2.2,
low_opac_v,0.4,1,0.01,3,0.82,3.5,0.01,0,0.01,4,5,Valid,0,8,21,start,lin,0.07413750903451344,0,1,0.07413750903451344,1,True,,,,,,,,,,,,,20,A,2023-09-16_10h20.57.725,exp3,2022.2.2,
low_opac_i,0.4,1,0.01,3,0.82,3.5,0.01,0,0.01,4,5,Invalid,2,8,22,start,lin,0.30213173093745077,0.30213173093745077,1,0.30213173093745077,1,True,,,,,,,,,,,,,20,A,2023-09-16_10h20.57.725,exp3,2022.2.2,
high_opac_v,0.01,1,0.01,3,0.82,3.5,0.01,0,0.01,4,5,Valid,1,8,23,start,lin,0.13459290957572173,0,1,0.13459290957572173,1,True,,,,,,,,,,,,,20,A,2023-09-16_10h20.57.725,exp3,2022.2.2,
high_opac_v,0.01,1,0.01,3,0.82,3.5,0.01,0,0.01,4,5,Valid,1,9,24,start,lin,0.09461515961891341,0.09461515961891341,1,0.09461515961891341,1,True,,,,,,,,,,,,,20,A,2023-09-16_10h20.57.725,exp3,2022.2.2,
low_opac_i,0.4,1,0.01,3,0.82,3.5,0.01,0,0.01,4,5,Invalid,2,9,25,start,lin,0.28643842413400866,0,0,0.28643842413400866,0,True,,,,,,,,,,,,,20,A,2023-09-16_10h20.57.725,exp3,2022.2.2,
low_opac_v,0.4,1,0.01,3,0.82,3.5,0.01,0,0.01,4,5,Valid,0,9,26,start,lin,0.059151685519047204,0,1,0.059151685519047204,1,True,,,,,,,,,,,,,20,A,2023-09-16_10h20.57.725,exp3,2022.2.2,
low_opac_v,0.4,1,0.01,3,0.82,3.5,0.01,0,0.01,4,5,Valid,0,10,27,start,lin,0.04666033754158716,0.04666033754158716,0,0.04666033754158716,0,True,,,,,,,,,,,,,20,A,2023-09-16_10h20.57.725,exp3,2022.2.2,
high_opac_v,0.01,1,0.01,3,0.82,3.5,0.01,0,0.01,4,5,Valid,1,10,28,start,lin,0.05620518288249825,0.05620518288249825,1,0.05620518288249825,1,True,,,,,,,,,,,,,20,A,2023-09-16_10h20.57.725,exp3,2022.2.2,
low_opac_i,0.4,1,0.01,3,0.82,3.5,0.01,0,0.01,4,5,Invalid,2,10,29,start,lin,0.33412004910676446,0.33412004910676446,1,0.33412004910676446,1,True,,,,,,,,,,,,,20,A,2023-09-16_10h20.57.725,exp3,2022.2.2,
low_opac_v,0.4,1,0.01,3,0.82,3.5,0.01,0,0.01,4,5,Valid,0,11,30,start,lin,0.08786106711264335,0.08786106711264335,1,0.08786106711264335,1,True,,,,,,,,,,,,,20,A,2023-09-16_10h20.57.725,exp3,2022.2.2,
high_opac_v,0.01,1,0.01,3,0.82,3.5,0.01,0,0.01,4,5,Valid,1,11,31,start,lin,0.017218684157691948,0.017218684157691948,0,0.017218684157691948,0,True,,,,,,,,,,,,,20,A,2023-09-16_10h20.57.725,exp3,2022.2.2,
low_opac_i,0.4,1,0.01,3,0.82,3.5,0.01,0,0.01,4,5,Invalid,2,11,32,start,lin,0.32234280292353884,0,1,0.32234280292353884,1,True,,,,,,,,,,,,,20,A,2023-09-16_10h20.57.725,exp3,2022.2.2,
high_opac_v,0.01,1,0.01,3,0.82,3.5,0.01,0,0.01,4,5,Valid,1,12,33,start,lin,0.11161525224112645,0.11161525224112645,1,0.11161525224112645,1,True,,,,,,,,,,,,,20,A,2023-09-16_10h20.57.725,exp3,2022.2.2,
low_opac_v,0.4,1,0.01,3,0.82,3.5,0.01,0,0.01,4,5,Valid,0,12,34,start,lin,0.07881273174527031,0,1,0.07881273174527031,1,True,,,,,,,,,,,,,20,A,2023-09-16_10h20.57.725,exp3,2022.2.2,
low_opac_i,0.4,1,0.01,3,0.82,3.5,0.01,0,0.01,4,5,Invalid,2,12,35,start,lin,0.3122391223922387,0,1,0.3122391223922387,1,True,,,,,,,,,,,,,20,A,2023-09-16_10h20.57.725,exp3,2022.2.2,
high_opac_v,0.01,1,0.01,3,0.82,3.5,0.01,0,0.01,4,5,Valid,1,13,36,start,lin,0.09755754181013546,0,1,0.09755754181013546,1,True,,,,,,,,,,,,,20,A,2023-09-16_10h20.57.725,exp3,2022.2.2,
low_opac_v,0.4,1,0.01,3,0.82,3.5,0.01,0,0.01,4,5,Valid,0,13,37,start,lin,0.07069726072697308,0.07069726072697308,0,0.07069726072697308,0,True,,,,,,,,,,,,,20,A,2023-09-16_10h20.57.725,exp3,2022.2.2,
low_opac_i,0.4,1,0.01,3,0.82,3.5,0.01,0,0.01,4,5,Invalid,2,13,38,start,lin,0.3032569597457389,0.3032569597457389,1,0.3032569597457389,1,True,,,,,,,,,,,,,20,A,2023-09-16_10h20.57.725,exp3,2022.2.2,
low_opac_i,0.4,1,0.01,3,0.82,3.5,0.01,0,0.01,4,5,Invalid,2,14,39,start,lin,0.2950585109805218,0,1,0.2950585109805218,1,True,,,,,,,,,,,,,20,A,2023-09-16_10h20.57.725,exp3,2022.2.2,
high_opac_v,0.01,1,0.01,3,0.82,3.5,0.01,0,0.01,4,5,Valid,1,14,40,start,lin,0.08547167609931655,0.08547167609931655,0,0.08547167609931655,0,True,,,,,,,,,,,,,20,A,2023-09-16_10h20.57.725,exp3,2022.2.2,
low_opac_v,0.4,1,0.01,3,0.82,3.5,0.01,0,0.01,4,5,Valid,0,14,41,start,lin,0.09891114469426782,0,1,0.09891114469426782,1,True,,,,,,,,,,,,,20,A,2023-09-16_10h20.57.725,exp3,2022.2.2,
low_opac_v,0.4,1,0.01,3,0.82,3.5,0.01,0,0.01,4,5,Valid,0,15,42,start,lin,0.0921125879962299,0.0921125879962299,1,0.0921125879962299,1,True,,,,,,,,,,,,,20,A,2023-09-16_10h20.57.725,exp3,2022.2.2,
high_opac_v,0.01,1,0.01,3,0.82,3.5,0.01,0,0.01,4,5,Valid,1,15,43,start,lin,0.1263039720503014,0.1263039720503014,1,0.1263039720503014,1,True,,,,,,,,,,,,,20,A,2023-09-16_10h20.57.725,exp3,2022.2.2,
low_opac_i,0.4,1,0.01,3,0.82,3.5,0.01,0,0.01,4,5,Invalid,2,15,44,start,lin,0.2880158793942586,0.2880158793942586,0,0.2880158793942586,0,True,,,,,,,,,,,,,20,A,2023-09-16_10h20.57.725,exp3,2022.2.2,
high_opac_v,0.01,1,0.01,3,0.82,3.5,0.01,0,0.01,4,5,Valid,1,16,45,start,lin,0.11759075154341593,0,1,0.11759075154341593,1,True,,,,,,,,,,,,,20,A,2023-09-16_10h20.57.725,exp3,2022.2.2,
low_opac_i,0.4,1,0.01,3,0.82,3.5,0.01,0,0.01,4,5,Invalid,2,16,46,start,lin,0.3142021026919475,0,0,0.3142021026919475,0,True,,,,,,,,,,,,,20,A,2023-09-16_10h20.57.725,exp3,2022.2.2,
low_opac_v,0.4,1,0.01,3,0.82,3.5,0.01,0,0.01,4,5,Valid,0,16,47,start,lin,0.08571478116224818,0,1,0.08571478116224818,1,True,,,,,,,,,,,,,20,A,2023-09-16_10h20.57.725,exp3,2022.2.2,
low_opac_v,0.4,1,0.01,3,0.82,3.5,0.01,0,0.01,4,5,Valid,0,17,48,start,lin,0.08010583111357705,0,1,0.08010583111357705,1,True,,,,,,,,,,,,,20,A,2023-09-16_10h20.57.725,exp3,2022.2.2,
low_opac_i,0.4,1,0.01,3,0.82,3.5,0.01,0,0.01,4,5,Invalid,2,17,49,start,lin,0.33711592060231477,0,1,0.33711592060231477,1,True,,,,,,,,,,,,,20,A,2023-09-16_10h20.57.725,exp3,2022.2.2,
high_opac_v,0.01,1,0.01,3,0.82,3.5,0.01,0,0.01,4,5,Valid,1,17,50,start,lin,0.10958846304553396,0,1,0.10958846304553396,1,True,,,,,,,,,,,,,20,A,2023-09-16_10h20.57.725,exp3,2022.2.2,
low_opac_i,0.4,1,0.01,3,0.82,3.5,0.01,0,0.01,4,5,Invalid,2,18,51,start,lin,0.3315600194925959,0.3315600194925959,1,0.3315600194925959,1,True,,,,,,,,,,,,,20,A,2023-09-16_10h20.57.725,exp3,2022.2.2,
high_opac_v,0.01,1,0.01,3,0.82,3.5,0.01,0,0.01,4,5,Valid,1,18,52,start,lin,0.10212086377606526,0,1,0.10212086377606526,1,True,,,,,,,,,,,,,20,A,2023-09-16_10h20.57.725,exp3,2022.2.2,
low_opac_v,0.4,1,0.01,3,0.82,3.5,0.01,0,0.01,4,5,Valid,0,18,53,start,lin,0.07470341504451883,0,1,0.07470341504451883,1,True,,,,,,,,,,,,,20,A,2023-09-16_10h20.57.725,exp3,2022.2.2,
high_opac_v,0.01,1,0.01,3,0.82,3.5,0.01,0,0.01,4,5,Valid,1,19,54,start,lin,0.0950314898524942,0,1,0.0950314898524942,1,True,,,,,,,,,,,,,20,A,2023-09-16_10h20.57.725,exp3,2022.2.2,
low_opac_v,0.4,1,0.01,3,0.82,3.5,0.01,0,0.01,4,5,Valid,0,19,55,start,lin,0.06942856879159898,0.06942856879159898,0,0.06942856879159898,0,True,,,,,,,,,,,,,20,A,2023-09-16_10h20.57.725,exp3,2022.2.2,
low_opac_i,0.4,1,0.01,3,0.82,3.5,0.01,0,0.01,4,5,Invalid,2,19,56,start,lin,0.326183504315919,0,1,0.326183504315919,1,True,,,,,,,,,,,,,20,A,2023-09-16_10h20.57.725,exp3,2022.2.2,
low_opac_i,0.4,1,0.01,3,0.82,3.5,0.01,0,0.01,4,5,Invalid,2,20,57,start,lin,0.32138800765326875,0.32138800765326875,1,0.32138800765326875,1,True,,,,,,,,,,,,,20,A,2023-09-16_10h20.57.725,exp3,2022.2.2,
low_opac_v,0.4,1,0.01,3,0.82,3.5,0.01,0,0.01,4,5,Valid,0,20,58,start,lin,0.08823792683550691,0.08823792683550691,1,0.08823792683550691,1,True,,,,,,,,,,,,,20,A,2023-09-16_10h20.57.725,exp3,2022.2.2,
high_opac_v,0.01,1,0.01,3,0.82,3.5,0.01,0,0.01,4,5,Valid,1,20,59,start,lin,0.08877686656670548,0,1,0.08877686656670548,1,True,,,,,,,,,,,,,20,A,2023-09-16_10h20.57.725,exp3,2022.2.2,
high_opac_v,0.01,1,0.01,3,0.82,3.5,0.01,0,0.01,4,5,Valid,1,21,60,start,lin,0.08271682599093712,0,1,0.08271682599093712,1,True,,,,,,,,,,,,,20,A,2023-09-16_10h20.57.725,exp3,2022.2.2,
low_opac_v,0.4,1,0.01,3,0.82,3.5,0.01,0,0.01,4,5,Valid,0,21,61,start,lin,0.08385008804796512,0,1,0.08385008804796512,1,True,,,,,,,,,,,,,20,A,2023-09-16_10h20.57.725,exp3,2022.2.2,
low_opac_i,0.4,1,0.01,3,0.82,3.5,0.01,0,0.01,4,5,Invalid,2,21,62,start,lin,0.3166502053920097,0.3166502053920097,1,0.3166502053920097,1,True,,,,,,,,,,,,,20,A,2023-09-16_10h20.57.725,exp3,2022.2.2,
low_opac_i,0.4,1,0.01,3,0.82,3.5,0.01,0,0.01,4,5,Invalid,2,22,63,start,lin,0.3123726764761926,0.3123726764761926,1,0.3123726764761926,1,True,,,,,,,,,,,,,20,A,2023-09-16_10h20.57.725,exp3,2022.2.2,
high_opac_v,0.01,1,0.01,3,0.82,3.5,0.01,0,0.01,4,5,Valid,1,22,64,start,lin,0.07675566150616703,0,1,0.07675566150616703,1,True,,,,,,,,,,,,,20,A,2023-09-16_10h20.57.725,exp3,2022.2.2,
low_opac_v,0.4,1,0.01,3,0.82,3.5,0.01,0,0.01,4,5,Valid,0,22,65,start,lin,0.07946762386729134,0.07946762386729134,0,0.07946762386729134,0,True,,,,,,,,,,,,,20,A,2023-09-16_10h20.57.725,exp3,2022.2.2,
low_opac_i,0.4,1,0.01,3,0.82,3.5,0.01,0,0.01,4,5,Invalid,2,23,66,start,lin,0.3080688926115601,0.3080688926115601,1,0.3080688926115601,1,True,,,,,,,,,,,,,20,A,2023-09-16_10h20.57.725,exp3,2022.2.2,
high_opac_v,0.01,1,0.01,3,0.82,3.5,0.01,0,0.01,4,5,Valid,1,23,67,start,lin,0.07138194962525306,0,0,0.07138194962525306,0,True,,,,,,,,,,,,,20,A,2023-09-16_10h20.57.725,exp3,2022.2.2,
low_opac_v,0.4,1,0.01,3,0.82,3.5,0.01,0,0.01,4,5,Valid,0,23,68,start,lin,0.09546989265001116,0,1,0.09546989265001116,1,True,,,,,,,,,,,,,20,A,2023-09-16_10h20.57.725,exp3,2022.2.2,
low_opac_i,0.4,1,0.01,3,0.82,3.5,0.01,0,0.01,4,5,Invalid,2,24,69,start,lin,0.3041489092243823,0.3041489092243823,1,0.3041489092243823,1,True,,,,,,,,,,,,,20,A,2023-09-16_10h20.57.725,exp3,2022.2.2,
low_opac_v,0.4,1,0.01,3,0.82,3.5,0.01,0,0.01,4,5,Valid,0,24,70,start,lin,0.09180073771053249,0,1,0.09180073771053249,1,True,,,,,,,,,,,,,20,A,2023-09-16_10h20.57.725,exp3,2022.2.2,
high_opac_v,0.01,1,0.01,3,0.82,3.5,0.01,0,0.01,4,5,Valid,1,24,71,start,lin,0.09159894153414004,0,1,0.09159894153414004,1,True,,,,,,,,,,,,,20,A,2023-09-16_10h20.57.725,exp3,2022.2.2,
low_opac_v,0.4,1,0.01,3,0.82,3.5,0.01,0,0.01,4,5,Valid,0,25,72,start,lin,0.08807725061418814,0.08807725061418814,1,0.08807725061418814,1,True,,,,,,,,,,,,,20,A,2023-09-16_10h20.57.725,exp3,2022.2.2,
low_opac_i,0.4,1,0.01,3,0.82,3.5,0.01,0,0.01,4,5,Invalid,2,25,73,start,lin,0.30018306681085727,0,1,0.30018306681085727,1,True,,,,,,,,,,,,,20,A,2023-09-16_10h20.57.725,exp3,2022.2.2,
high_opac_v,0.01,1,0.01,3,0.82,3.5,0.01,0,0.01,4,5,Valid,1,25,74,start,lin,0.08689985715925498,0.08689985715925498,1,0.08689985715925498,1,True,,,,,,,,,,,,,20,A,2023-09-16_10h20.57.725,exp3,2022.2.2,
low_opac_i,0.4,1,0.01,3,0.82,3.5,0.01,0,0.01,4,5,Invalid,2,26,75,start,lin,0.2964913703635312,0,1,0.2964913703635312,1,True,,,,,,,,,,,,,20,A,2023-09-16_10h20.57.725,exp3,2022.2.2,
low_opac_v,0.4,1,0.01,3,0.82,3.5,0.01,0,0.01,4,5,Valid,0,26,76,start,lin,0.08467184042409348,0.08467184042409348,1,0.08467184042409348,1,True,,,,,,,,,,,,,20,A,2023-09-16_10h20.57.725,exp3,2022.2.2,
high_opac_v,0.01,1,0.01,3,0.82,3.5,0.01,0,0.01,4,5,Valid,1,26,77,start,lin,0.08262518244427734,0,1,0.08262518244427734,1,True,,,,,,,,,,,,,20,A,2023-09-16_10h20.57.725,exp3,2022.2.2,
low_opac_i,0.4,1,0.01,3,0.82,3.5,0.01,0,0.01,4,5,Invalid,2,27,78,start,lin,0.2930812793321617,0,1,0.2930812793321617,1,True,,,,,,,,,,,,,20,A,2023-09-16_10h20.57.725,exp3,2022.2.2,
low_opac_v,0.4,1,0.01,3,0.82,3.5,0.01,0,0.01,4,5,Valid,0,27,79,start,lin,0.08121472810863878,0,1,0.08121472810863878,1,True,,,,,,,,,,,,,20,A,2023-09-16_10h20.57.725,exp3,2022.2.2,
high_opac_v,0.01,1,0.01,3,0.82,3.5,0.01,0,0.01,4,5,Valid,1,27,80,start,lin,0.07828906061515634,0.07828906061515634,0,0.07828906061515634,0,True,,,,,,,,,,,,,20,A,2023-09-16_10h20.57.725,exp3,2022.2.2,
low_opac_v,0.4,1,0.01,3,0.82,3.5,0.01,0,0.01,4,5,Valid,0,28,81,start,lin,0.07795261095249434,0.07795261095249434,1,0.07795261095249434,1,True,,,,,,,,,,,,,20,A,2023-09-16_10h20.57.725,exp3,2022.2.2,
low_opac_i,0.4,1,0.01,3,0.82,3.5,0.01,0,0.01,4,5,Invalid,2,28,82,start,lin,0.2895665632967696,0.2895665632967696,1,0.2895665632967696,1,True,,,,,,,,,,,,,20,A,2023-09-16_10h20.57.725,exp3,2022.2.2,
high_opac_v,0.01,1,0.01,3,0.82,3.5,0.01,0,0.01,4,5,Valid,1,28,83,start,lin,0.09443310843574872,0,1,0.09443310843574872,1,True,,,,,,,,,,,,,20,A,2023-09-16_10h20.57.725,exp3,2022.2.2,
low_opac_i,0.4,1,0.01,3,0.82,3.5,0.01,0,0.01,4,5,Invalid,2,29,84,start,lin,0.28627487072669017,0,1,0.28627487072669017,1,True,,,,,,,,,,,,,20,A,2023-09-16_10h20.57.725,exp3,2022.2.2,
low_opac_v,0.4,1,0.01,3,0.82,3.5,0.01,0,0.01,4,5,Valid,0,29,85,start,lin,0.07493938368379316,0,1,0.07493938368379316,1,True,,,,,,,,,,,,,20,A,2023-09-16_10h20.57.725,exp3,2022.2.2,
high_opac_v,0.01,1,0.01,3,0.82,3.5,0.01,0,0.01,4,5,Valid,1,29,86,start,lin,0.09058441040406576,0.09058441040406576,0,0.09058441040406576,0,True,,,,,,,,,,,,,20,A,2023-09-16_10h20.57.725,exp3,2022.2.2,
low_opac_i,0.4,1,0.01,3,0.82,3.5,0.01,0,0.01,4,5,Invalid,2,30,87,start,lin,0.2832036608891065,0.2832036608891065,1,0.2832036608891065,1,True,,,,,,,,,,,,,20,A,2023-09-16_10h20.57.725,exp3,2022.2.2,
low_opac_v,0.4,1,0.01,3,0.82,3.5,0.01,0,0.01,4,5,Valid,0,30,88,start,lin,0.07185631691905031,0.07185631691905031,0,0.07185631691905031,0,True,,,,,,,,,,,,,20,A,2023-09-16_10h20.57.725,exp3,2022.2.2,
high_opac_v,0.01,1,0.01,3,0.82,3.5,0.01,0,0.01,4,5,Valid,1,30,89,start,lin,0.10470389097231837,0,1,0.10470389097231837,1,True,,,,,,,,,,,,,20,A,2023-09-16_10h20.57.725,exp3,2022.2.2,
low_opac_v,0.4,1,0.01,3,0.82,3.5,0.01,0,0.01,4,5,Valid,0,31,90,start,lin,0.08326382400482601,0.08326382400482601,1,0.08326382400482601,1,True,,,,,,,,,,,,,20,A,2023-09-16_10h20.57.725,exp3,2022.2.2,
low_opac_i,0.4,1,0.01,3,0.82,3.5,0.01,0,0.01,4,5,Invalid,2,31,91,start,lin,0.28001325811571887,0.28001325811571887,1,0.28001325811571887,1,True,,,,,,,,,,,,,20,A,2023-09-16_10h20.57.725,exp3,2022.2.2,
high_opac_v,0.01,1,0.01,3,0.82,3.5,0.01,0,0.01,4,5,Valid,1,31,92,start,lin,0.10123178946898437,0,1,0.10123178946898437,1,True,,,,,,,,,,,,,20,A,2023-09-16_10h20.57.725,exp3,2022.2.2,
high_opac_v,0.01,1,0.01,3,0.82,3.5,0.01,0,0.01,4,5,Valid,1,32,93,start,lin,0.0979490057696839,0,1,0.0979490057696839,1,True,,,,,,,,,,,,,20,A,2023-09-16_10h20.57.725,exp3,2022.2.2,
low_opac_i,0.4,1,0.01,3,0.82,3.5,0.01,0,0.01,4,5,Invalid,2,32,94,start,lin,0.276977292175915,0,1,0.276977292175915,1,True,,,,,,,,,,,,,20,A,2023-09-16_10h20.57.725,exp3,2022.2.2,
low_opac_v,0.4,1,0.01,3,0.82,3.5,0.01,0,0.01,4,5,Valid,0,32,95,start,lin,0.08043321568243045,0,1,0.08043321568243045,1,True,,,,,,,,,,,,,20,A,2023-09-16_10h20.57.725,exp3,2022.2.2,
low_opac_v,0.4,1,0.01,3,0.82,3.5,0.01,0,0.01,4,5,Valid,0,33,96,start,lin,0.07774381438115424,0,1,0.07774381438115424,1,True,,,,,,,,,,,,,20,A,2023-09-16_10h20.57.725,exp3,2022.2.2,
high_opac_v,0.01,1,0.01,3,0.82,3.5,0.01,0,0.01,4,5,Valid,1,33,97,start,lin,0.09491245462366821,0.09491245462366821,0,0.09491245462366821,0,True,,,,,,,,,,,,,20,A,2023-09-16_10h20.57.725,exp3,2022.2.2,
low_opac_i,0.4,1,0.01,3,0.82,3.5,0.01,0,0.01,4,5,Invalid,2,33,98,start,lin,0.2741371542869429,0.2741371542869429,1,0.2741371542869429,1,True,,,,,,,,,,,,,20,A,2023-09-16_10h20.57.725,exp3,2022.2.2,
high_opac_v,0.01,1,0.01,3,0.82,3.5,0.01,0,0.01,4,5,Valid,1,34,99,start,lin,0.1065300636258833,0.1065300636258833,1,0.1065300636258833,1,True,,,,,,,,,,,,,20,A,2023-09-16_10h20.57.725,exp3,2022.2.2,
low_opac_v,0.4,1,0.01,3,0.82,3.5,0.01,0,0.01,4,5,Valid,0,34,100,start,lin,0.07523599915157675,0.07523599915157675,1,0.07523599915157675,1,True,,,,,,,,,,,,,20,A,2023-09-16_10h20.57.725,exp3,2022.2.2,
low_opac_i,0.4,1,0.01,3,0.82,3.5,0.01,0,0.01,4,5,Invalid,2,34,101,start,lin,0.2711862186979139,0,1,0.2711862186979139,1,True,,,,,,,,,,,,,20,A,2023-09-16_10h20.57.725,exp3,2022.2.2,
low_opac_i,0.4,1,0.01,3,0.82,3.5,0.01,0,0.01,4,5,Invalid,2,35,102,start,lin,0.2683261339154368,0,1,0.2683261339154368,1,True,,,,,,,,,,,,,20,A,2023-09-16_10h20.57.725,exp3,2022.2.2,
high_opac_v,0.01,1,0.01,3,0.82,3.5,0.01,0,0.01,4,5,Valid,1,35,103,start,lin,0.1037808839778845,0.1037808839778845,1,0.1037808839778845,1,True,,,,,,,,,,,,,20,A,2023-09-16_10h20.57.725,exp3,2022.2.2,
low_opac_v,0.4,1,0.01,3,0.82,3.5,0.01,0,0.01,4,5,Valid,0,35,104,start,lin,0.07285815287098041,0,1,0.07285815287098041,1,True,,,,,,,,,,,,,20,A,2023-09-16_10h20.57.725,exp3,2022.2.2,
low_opac_v,0.4,1,0.01,3,0.82,3.5,0.01,0,0.01,4,5,Valid,0,36,105,start,lin,0.07035916408685355,0.07035916408685355,1,0.07035916408685355,1,True,,,,,,,,,,,,,20,A,2023-09-16_10h20.57.725,exp3,2022.2.2,
low_opac_i,0.4,1,0.01,3,0.82,3.5,0.01,0,0.01,4,5,Invalid,2,36,106,start,lin,0.26563213889268034,0.26563213889268034,1,0.26563213889268034,1,True,,,,,,,,,,,,,20,A,2023-09-16_10h20.57.725,exp3,2022.2.2,
high_opac_v,0.01,1,0.01,3,0.82,3.5,0.01,0,0.01,4,5,Valid,1,36,107,start,lin,0.10093255859747809,0.10093255859747809,1,0.10093255859747809,1,True,,,,,,,,,,,,,20,A,2023-09-16_10h20.57.725,exp3,2022.2.2,
low_opac_v,0.4,1,0.01,3,0.82,3.5,0.01,0,0.01,4,5,Valid,0,37,108,start,lin,0.0679608205435836,0.0679608205435836,0,0.0679608205435836,0,True,,,,,,,,,,,,,20,A,2023-09-16_10h20.57.725,exp3,2022.2.2,
low_opac_i,0.4,1,0.01,3,0.82,3.5,0.01,0,0.01,4,5,Invalid,2,37,109,start,lin,0.2630737391935113,0,1,0.2630737391935113,1,True,,,,,,,,,,,,,20,A,2023-09-16_10h20.57.725,exp3,2022.2.2,
high_opac_v,0.01,1,0.01,3,0.82,3.5,0.01,0,0.01,4,5,Valid,1,37,110,start,lin,0.0982064555537789,0.0982064555537789,1,0.0982064555537789,1,True,,,,,,,,,,,,,20,A,2023-09-16_10h20.57.725,exp3,2022.2.2,
high_opac_v,0.01,1,0.01,3,0.82,3.5,0.01,0,0.01,4,5,Valid,1,38,111,start,lin,0.09566353653172772,0,1,0.09566353653172772,1,True,,,,,,,,,,,,,20,A,2023-09-16_10h20.57.725,exp3,2022.2.2,
low_opac_i,0.4,1,0.01,3,0.82,3.5,0.01,0,0.01,4,5,Invalid,2,38,112,start,lin,0.26037633226623547,0,1,0.26037633226623547,1,True,,,,,,,,,,,,,20,A,2023-09-16_10h20.57.725,exp3,2022.2.2,
low_opac_v,0.4,1,0.01,3,0.82,3.5,0.01,0,0.01,4,5,Valid,0,38,113,start,lin,0.07741001662992181,0,1,0.07741001662992181,1,True,,,,,,,,,,,,,20,A,2023-09-16_10h20.57.725,exp3,2022.2.2,
high_opac_v,0.01,1,0.01,3,0.82,3.5,0.01,0,0.01,4,5,Valid,1,39,114,start,lin,0.09325787507940898,0,1,0.09325787507940898,1,True,,,,,,,,,,,,,20,A,2023-09-16_10h20.57.725,exp3,2022.2.2,
low_opac_i,0.4,1,0.01,3,0.82,3.5,0.01,0,0.01,4,5,Invalid,2,39,115,start,lin,0.25774651825738765,0,1,0.25774651825738765,1,True,,,,,,,,,,,,,20,A,2023-09-16_10h20.57.725,exp3,2022.2.2,
low_opac_v,0.4,1,0.01,3,0.82,3.5,0.01,0,0.01,4,5,Valid,0,39,116,start,lin,0.07526890183053031,0,1,0.07526890183053031,1,True,,,,,,,,,,,,,20,A,2023-09-16_10h20.57.725,exp3,2022.2.2,
high_opac_v,0.01,1,0.01,3,0.82,3.5,0.01,0,0.01,4,5,Valid,1,40,117,start,lin,0.09073608745243152,0.09073608745243152,1,0.09073608745243152,1,True,,,,,,,,,,,,,20,A,2023-09-16_10h20.57.725,exp3,2022.2.2,
low_opac_v,0.4,1,0.01,3,0.82,3.5,0.01,0,0.01,4,5,Valid,0,40,118,start,lin,0.07322474927940686,0,1,0.07322474927940686,1,True,,,,,,,,,,,,,20,A,2023-09-16_10h20.57.725,exp3,2022.2.2,
low_opac_i,0.4,1,0.01,3,0.82,3.5,0.01,0,0.01,4,5,Invalid,2,40,119,start,lin,0.2552626809160939,0.2552626809160939,1,0.2552626809160939,1,True,,,,,,,,,,,,,20,A,2023-09-16_10h20.57.725,exp3,2022.2.2,
low_opac_i,0.4,1,0.01,3,0.82,3.5,0.01,0,0.01,4,5,Invalid,2,41,120,start,lin,0.25288530642487683,0.25288530642487683,1,0.25288530642487683,1,True,,,,,,,,,,,,,20,A,2023-09-16_10h20.57.725,exp3,2022.2.2,
high_opac_v,0.01,1,0.01,3,0.82,3.5,0.01,0,0.01,4,5,Valid,1,41,121,start,lin,0.08830172323263903,0,1,0.08830172323263903,1,True,,,,,,,,,,,,,20,A,2023-09-16_10h20.57.725,exp3,2022.2.2,
low_opac_v,0.4,1,0.01,3,0.82,3.5,0.01,0,0.01,4,5,Valid,0,41,122,start,lin,0.0710671416286045,0,1,0.0710671416286045,1,True,,,,,,,,,,,,,20,A,2023-09-16_10h20.57.725,exp3,2022.2.2,
high_opac_v,0.01,1,0.01,3,0.82,3.5,0.01,0,0.01,4,5,Valid,1,42,123,start,lin,0.08601694504729439,0,1,0.08601694504729439,1,True,,,,,,,,,,,,,20,A,2023-09-16_10h20.57.725,exp3,2022.2.2,
low_opac_i,0.4,1,0.01,3,0.82,3.5,0.01,0,0.01,4,5,Invalid,2,42,124,start,lin,0.25036059185356807,0,1,0.25036059185356807,1,True,,,,,,,,,,,,,20,A,2023-09-16_10h20.57.725,exp3,2022.2.2,
low_opac_v,0.4,1,0.01,3,0.82,3.5,0.01,0,0.01,4,5,Valid,0,42,125,start,lin,0.06896092685362748,0.06896092685362748,0,0.06896092685362748,0,True,,,,,,,,,,,,,20,A,2023-09-16_10h20.57.725,exp3,2022.2.2,
high_opac_v,0.01,1,0.01,3,0.82,3.5,0.01,0,0.01,4,5,Valid,1,43,126,start,lin,0.08384687534676703,0.08384687534676703,0,0.08384687534676703,0,True,,,,,,,,,,,,,20,A,2023-09-16_10h20.57.725,exp3,2022.2.2,
low_opac_i,0.4,1,0.01,3,0.82,3.5,0.01,0,0.01,4,5,Invalid,2,43,127,start,lin,0.2478741136447576,0,1,0.2478741136447576,1,True,,,,,,,,,,,,,20,A,2023-09-16_10h20.57.725,exp3,2022.2.2,
low_opac_v,0.4,1,0.01,3,0.82,3.5,0.01,0,0.01,4,5,Valid,0,43,128,start,lin,0.07716265105096232,0,1,0.07716265105096232,1,True,,,,,,,,,,,,,20,A,2023-09-16_10h20.57.725,exp3,2022.2.2,
low_opac_i,0.4,1,0.01,3,0.82,3.5,0.01,0,0.01,4,5,Invalid,2,44,129,start,lin,0.24551363525427922,0,1,0.24551363525427922,1,True,,,,,,,,,,,,,20,A,2023-09-16_10h20.57.725,exp3,2022.2.2,
high_opac_v,0.01,1,0.01,3,0.82,3.5,0.01,0,0.01,4,5,Valid,1,44,130,start,lin,0.0925953923700041,0.0925953923700041,1,0.0925953923700041,1,True,,,,,,,,,,,,,20,A,2023-09-16_10h20.57.725,exp3,2022.2.2,
low_opac_v,0.4,1,0.01,3,0.82,3.5,0.01,0,0.01,4,5,Valid,0,44,131,start,lin,0.07529547252753654,0,1,0.07529547252753654,1,True,,,,,,,,,,,,,20,A,2023-09-16_10h20.57.725,exp3,2022.2.2,
low_opac_v,0.4,1,0.01,3,0.82,3.5,0.01,0,0.01,4,5,Valid,0,45,132,start,lin,0.07350360789200688,0,1,0.07350360789200688,1,True,,,,,,,,,,,,,20,A,2023-09-16_10h20.57.725,exp3,2022.2.2,
high_opac_v,0.01,1,0.01,3,0.82,3.5,0.01,0,0.01,4,5,Valid,1,45,133,start,lin,0.09041638127745395,0,1,0.09041638127745395,1,True,,,,,,,,,,,,,20,A,2023-09-16_10h20.57.725,exp3,2022.2.2,
low_opac_i,0.4,1,0.01,3,0.82,3.5,0.01,0,0.01,4,5,Invalid,2,45,134,start,lin,0.2432469041896197,0.2432469041896197,1,0.2432469041896197,1,True,,,,,,,,,,,,,20,A,2023-09-16_10h20.57.725,exp3,2022.2.2,
high_opac_v,0.01,1,0.01,3,0.82,3.5,0.01,0,0.01,4,5,Valid,1,46,135,start,lin,0.08830542691071891,0.08830542691071891,1,0.08830542691071891,1,True,,,,,,,,,,,,,20,A,2023-09-16_10h20.57.725,exp3,2022.2.2,
low_opac_v,0.4,1,0.01,3,0.82,3.5,0.01,0,0.01,4,5,Valid,0,46,136,start,lin,0.07160606276167308,0,1,0.07160606276167308,1,True,,,,,,,,,,,,,20,A,2023-09-16_10h20.57.725,exp3,2022.2.2,
low_opac_i,0.4,1,0.01,3,0.82,3.5,0.01,0,0.01,4,5,Invalid,2,46,137,start,lin,0.24083323795593672,0,1,0.24083323795593672,1,True,,,,,,,,,,,,,20,A,2023-09-16_10h20.57.725,exp3,2022.2.2,
high_opac_v,0.01,1,0.01,3,0.82,3.5,0.01,0,0.01,4,5,Valid,1,47,138,start,lin,0.08631609805624717,0.08631609805624717,1,0.08631609805624717,1,True,,,,,,,,,,,,,20,A,2023-09-16_10h20.57.725,exp3,2022.2.2,
low_opac_i,0.4,1,0.01,3,0.82,3.5,0.01,0,0.01,4,5,Invalid,2,47,139,start,lin,0.2384283553294244,0.2384283553294244,1,0.2384283553294244,1,True,,,,,,,,,,,,,20,A,2023-09-16_10h20.57.725,exp3,2022.2.2,
low_opac_v,0.4,1,0.01,3,0.82,3.5,0.01,0,0.01,4,5,Valid,0,47,140,start,lin,0.06973824642224041,0.06973824642224041,0,0.06973824642224041,0,True,,,,,,,,,,,,,20,A,2023-09-16_10h20.57.725,exp3,2022.2.2,
low_opac_i,0.4,1,0.01,3,0.82,3.5,0.01,0,0.01,4,5,Invalid,2,48,141,start,lin,0.23612065976408833,0.23612065976408833,1,0.23612065976408833,1,True,,,,,,,,,,,,,20,A,2023-09-16_10h20.57.725,exp3,2022.2.2,
high_opac_v,0.01,1,0.01,3,0.82,3.5,0.01,0,0.01,4,5,Valid,1,48,142,start,lin,0.08441976314446475,0.08441976314446475,0,0.08441976314446475,0,True,,,,,,,,,,,,,20,A,2023-09-16_10h20.57.725,exp3,2022.2.2,
low_opac_v,0.4,1,0.01,3,0.82,3.5,0.01,0,0.01,4,5,Valid,0,48,143,start,lin,0.07697229036776904,0.07697229036776904,0,0.07697229036776904,0,True,,,,,,,,,,,,,20,A,2023-09-16_10h20.57.725,exp3,2022.2.2,
low_opac_v,0.4,1,0.01,3,0.82,3.5,0.01,0,0.01,4,5,Valid,0,49,144,start,lin,0.08418558000879539,0.08418558000879539,0,0.08418558000879539,0,True,,,,,,,,,,,,,20,A,2023-09-16_10h20.57.725,exp3,2022.2.2,
low_opac_i,0.4,1,0.01,3,0.82,3.5,0.01,0,0.01,4,5,Invalid,2,49,145,start,lin,0.2339029677033248,0,1,0.2339029677033248,1,True,,,,,,,,,,,,,20,A,2023-09-16_10h20.57.725,exp3,2022.2.2,
high_opac_v,0.01,1,0.01,3,0.82,3.5,0.01,0,0.01,4,5,Valid,1,49,146,start,lin,0.09208789794210191,0,1,0.09208789794210191,1,True,,,,,,,,,,,,,20,A,2023-09-16_10h20.57.725,exp3,2022.2.2,
high_opac_v,0.01,1,0.01,3,0.82,3.5,0.01,0,0.01,4,5,Valid,1,50,147,start,lin,0.09016674159655892,0.09016674159655892,0,0.09016674159655892,0,True,,,,,,,,,,,,,20,A,2023-09-16_10h20.57.725,exp3,2022.2.2,
low_opac_v,0.4,1,0.01,3,0.82,3.5,0.01,0,0.01,4,5,Valid,0,50,148,start,lin,0.09083475184701062,0,1,0.09083475184701062,1,True,,,,,,,,,,,,,20,A,2023-09-16_10h20.57.725,exp3,2022.2.2,
low_opac_i,0.4,1,0.01,3,0.82,3.5,0.01,0,0.01,4,5,Invalid,2,50,149,start,lin,0.2315406484306492,0.2315406484306492,1,0.2315406484306492,1,True,,,,,,,,,,,,,20,A,2023-09-16_10h20.57.725,exp3,2022.2.2,
low_opac_i,0.4,1,0.01,3,0.82,3.5,0.01,0,0.01,4,5,Invalid,2,51,150,start,lin,0.22917658624009074,0.22917658624009074,1,0.22917658624009074,1,True,,,,,,,,,,,,,20,A,2023-09-16_10h20.57.725,exp3,2022.2.2,
low_opac_v,0.4,1,0.01,3,0.82,3.5,0.01,0,0.01,4,5,Valid,0,51,151,start,lin,0.08914802860019605,0.08914802860019605,1,0.08914802860019605,1,True,,,,,,,,,,,,,20,A,2023-09-16_10h20.57.725,exp3,2022.2.2,
high_opac_v,0.01,1,0.01,3,0.82,3.5,0.01,0,0.01,4,5,Valid,1,51,152,start,lin,0.09757841815651482,0.09757841815651482,0,0.09757841815651482,0,True,,,,,,,,,,,,,20,A,2023-09-16_10h20.57.725,exp3,2022.2.2,
high_opac_v,0.01,1,0.01,3,0.82,3.5,0.01,0,0.01,4,5,Valid,1,52,153,start,lin,0.10495057862773165,0.10495057862773165,1,0.10495057862773165,1,True,,,,,,,,,,,,,20,A,2023-09-16_10h20.57.725,exp3,2022.2.2,
low_opac_v,0.4,1,0.01,3,0.82,3.5,0.01,0,0.01,4,5,Valid,0,52,154,start,lin,0.0875488606770276,0.0875488606770276,1,0.0875488606770276,1,True,,,,,,,,,,,,,20,A,2023-09-16_10h20.57.725,exp3,2022.2.2,
low_opac_i,0.4,1,0.01,3,0.82,3.5,0.01,0,0.01,4,5,Invalid,2,52,155,start,lin,0.2268543711844882,0,0,0.2268543711844882,0,True,,,,,,,,,,,,,20,A,2023-09-16_10h20.57.725,exp3,2022.2.2,
high_opac_v,0.01,1,0.01,3,0.82,3.5,0.01,0,0.01,4,5,Valid,1,53,156,start,lin,0.10318394605550339,0,1,0.10318394605550339,1,True,,,,,,,,,,,,,20,A,2023-09-16_10h20.57.725,exp3,2022.2.2,
low_opac_i,0.4,1,0.01,3,0.82,3.5,0.01,0,0.01,4,5,Invalid,2,53,157,start,lin,0.2362096987710425,0.2362096987710425,1,0.2362096987710425,1,True,,,,,,,,,,,,,20,A,2023-09-16_10h20.57.725,exp3,2022.2.2,
low_opac_v,0.4,1,0.01,3,0.82,3.5,0.01,0,0.01,4,5,Valid,0,53,158,start,lin,0.08602634496190431,0,1,0.08602634496190431,1,True,,,,,,,,,,,,,20,A,2023-09-16_10h20.57.725,exp3,2022.2.2,
low_opac_i,0.4,1,0.01,3,0.82,3.5,0.01,0,0.01,4,5,Invalid,2,54,159,start,lin,0.2343028540758859,0,1,0.2343028540758859,1,True,,,,,,,,,,,,,20,A,2023-09-16_10h20.57.725,exp3,2022.2.2,
low_opac_v,0.4,1,0.01,3,0.82,3.5,0.01,0,0.01,4,5,Valid,0,54,160,start,lin,0.08456239766031753,0,1,0.08456239766031753,1,True,,,,,,,,,,,,,20,A,2023-09-16_10h20.57.725,exp3,2022.2.2,
high_opac_v,0.01,1,0.01,3,0.82,3.5,0.01,0,0.01,4,5,Valid,1,54,161,start,lin,0.10145866492933993,0,1,0.10145866492933993,1,True,,,,,,,,,,,,,20,A,2023-09-16_10h20.57.725,exp3,2022.2.2,
high_opac_v,0.01,1,0.01,3,0.82,3.5,0.01,0,0.01,4,5,Valid,1,55,162,start,lin,0.09975460789088057,0.09975460789088057,0,0.09975460789088057,0,True,,,,,,,,,,,,,20,A,2023-09-16_10h20.57.725,exp3,2022.2.2,
low_opac_i,0.4,1,0.01,3,0.82,3.5,0.01,0,0.01,4,5,Invalid,2,55,163,start,lin,0.2322750576302661,0.2322750576302661,1,0.2322750576302661,1,True,,,,,,,,,,,,,20,A,2023-09-16_10h20.57.725,exp3,2022.2.2,
low_opac_v,0.4,1,0.01,3,0.82,3.5,0.01,0,0.01,4,5,Valid,0,55,164,start,lin,0.08301410998742126,0,1,0.08301410998742126,1,True,,,,,,,,,,,,,20,A,2023-09-16_10h20.57.725,exp3,2022.2.2,
low_opac_i,0.4,1,0.01,3,0.82,3.5,0.01,0,0.01,4,5,Invalid,2,56,165,start,lin,0.23026961877719193,0.23026961877719193,1,0.23026961877719193,1,True,,,,,,,,,,,,,20,A,2023-09-16_10h20.57.725,exp3,2022.2.2,
high_opac_v,0.01,1,0.01,3,0.82,3.5,0.01,0,0.01,4,5,Valid,1,56,166,start,lin,0.10637164301252422,0,1,0.10637164301252422,1,True,,,,,,,,,,,,,20,A,2023-09-16_10h20.57.725,exp3,2022.2.2,
low_opac_v,0.4,1,0.01,3,0.82,3.5,0.01,0,0.01,4,5,Valid,0,56,167,start,lin,0.08149430853818035,0,1,0.08149430853818035,1,True,,,,,,,,,,,,,20,A,2023-09-16_10h20.57.725,exp3,2022.2.2,
low_opac_i,0.4,1,0.01,3,0.82,3.5,0.01,0,0.01,4,5,Invalid,2,57,168,start,lin,0.22825545112384887,0.22825545112384887,1,0.22825545112384887,1,True,,,,,,,,,,,,,20,A,2023-09-16_10h20.57.725,exp3,2022.2.2,
high_opac_v,0.01,1,0.01,3,0.82,3.5,0.01,0,0.01,4,5,Valid,1,57,169,start,lin,0.10486711574728078,0,1,0.10486711574728078,1,True,,,,,,,,,,,,,20,A,2023-09-16_10h20.57.725,exp3,2022.2.2,
low_opac_v,0.4,1,0.01,3,0.82,3.5,0.01,0,0.01,4,5,Valid,0,57,170,start,lin,0.07998670261205337,0,1,0.07998670261205337,1,True,,,,,,,,,,,,,20,A,2023-09-16_10h20.57.725,exp3,2022.2.2,
low_opac_i,0.4,1,0.01,3,0.82,3.5,0.01,0,0.01,4,5,Invalid,2,58,171,start,lin,0.22632548430022933,0,1,0.22632548430022933,1,True,,,,,,,,,,,,,20,A,2023-09-16_10h20.57.725,exp3,2022.2.2,
low_opac_v,0.4,1,0.01,3,0.82,3.5,0.01,0,0.01,4,5,Valid,0,58,172,start,lin,0.07852280474252366,0.07852280474252366,0,0.07852280474252366,0,True,,,,,,,,,,,,,20,A,2023-09-16_10h20.57.725,exp3,2022.2.2,
high_opac_v,0.01,1,0.01,3,0.82,3.5,0.01,0,0.01,4,5,Valid,1,58,173,start,lin,0.10328028240317422,0.10328028240317422,0,0.10328028240317422,0,True,,,,,,,,,,,,,20,A,2023-09-16_10h20.57.725,exp3,2022.2.2,
high_opac_v,0.01,1,0.01,3,0.82,3.5,0.01,0,0.01,4,5,Valid,1,59,174,start,lin,0.10931350505102357,0,1,0.10931350505102357,1,True,,,,,,,,,,,,,20,A,2023-09-16_10h20.57.725,exp3,2022.2.2,
low_opac_v,0.4,1,0.01,3,0.82,3.5,0.01,0,0.01,4,5,Valid,0,59,175,start,lin,0.08440745213183981,0.08440745213183981,0,0.08440745213183981,0,True,,,,,,,,,,,,,20,A,2023-09-16_10h20.57.725,exp3,2022.2.2,
low_opac_i,0.4,1,0.01,3,0.82,3.5,0.01,0,0.01,4,5,Invalid,2,59,176,start,lin,0.22446243154391918,0.22446243154391918,1,0.22446243154391918,1,True,,,,,,,,,,,,,20,A,2023-09-16_10h20.57.725,exp3,2022.2.2,
low_opac_v,0.4,1,0.01,3,0.82,3.5,0.01,0,0.01,4,5,Valid,0,60,177,start,lin,0.08986956446967465,0,1,0.08986956446967465,1,True,,,,,,,,,,,,,20,A,2023-09-16_10h20.57.725,exp3,2022.2.2,
low_opac_i,0.4,1,0.01,3,0.82,3.5,0.01,0,0.01,4,5,Invalid,2,60,178,start,lin,0.22247518502465644,0.22247518502465644,1,0.22247518502465644,1,True,,,,,,,,,,,,,20,A,2023-09-16_10h20.57.725,exp3,2022.2.2,
high_opac_v,0.01,1,0.01,3,0.82,3.5,0.01,0,0.01,4,5,Valid,1,60,179,start,lin,0.10782407127514987,0.10782407127514987,0,0.10782407127514987,0,True,,,,,,,,,,,,,20,A,2023-09-16_10h20.57.725,exp3,2022.2.2,
low_opac_i,0.4,1,0.01,3,0.82,3.5,0.01,0,0.01,4,5,Invalid,2,61,180,start,lin,0.22050499087175718,0.22050499087175718,1,0.22050499087175718,1,True,,,,,,,,,,,,,20,A,2023-09-16_10h20.57.725,exp3,2022.2.2,
high_opac_v,0.01,1,0.01,3,0.82,3.5,0.01,0,0.01,4,5,Valid,1,61,181,start,lin,0.11394952627100072,0,1,0.11394952627100072,1,True,,,,,,,,,,,,,20,A,2023-09-16_10h20.57.725,exp3,2022.2.2,
low_opac_v,0.4,1,0.01,3,0.82,3.5,0.01,0,0.01,4,5,Valid,0,61,182,start,lin,0.08849238512721397,0.08849238512721397,1,0.08849238512721397,1,True,,,,,,,,,,,,,20,A,2023-09-16_10h20.57.725,exp3,2022.2.2,
high_opac_v,0.01,1,0.01,3,0.82,3.5,0.01,0,0.01,4,5,Valid,1,62,183,start,lin,0.11249056805323975,0.11249056805323975,1,0.11249056805323975,1,True,,,,,,,,,,,,,20,A,2023-09-16_10h20.57.725,exp3,2022.2.2,
low_opac_i,0.4,1,0.01,3,0.82,3.5,0.01,0,0.01,4,5,Invalid,2,62,184,start,lin,0.2185039286220646,0.2185039286220646,1,0.2185039286220646,1,True,,,,,,,,,,,,,20,A,2023-09-16_10h20.57.725,exp3,2022.2.2,
low_opac_v,0.4,1,0.01,3,0.82,3.5,0.01,0,0.01,4,5,Valid,0,62,185,start,lin,0.08718185006599455,0,1,0.08718185006599455,1,True,,,,,,,,,,,,,20,A,2023-09-16_10h20.57.725,exp3,2022.2.2,
low_opac_i,0.4,1,0.01,3,0.82,3.5,0.01,0,0.01,4,5,Invalid,2,63,186,start,lin,0.21656847354827136,0.21656847354827136,0,0.21656847354827136,0,True,,,,,,,,,,,,,20,A,2023-09-16_10h20.57.725,exp3,2022.2.2,
low_opac_v,0.4,1,0.01,3,0.82,3.5,0.01,0,0.01,4,5,Valid,0,63,187,start,lin,0.08592443176474657,0,1,0.08592443176474657,1,True,,,,,,,,,,,,,20,A,2023-09-16_10h20.57.725,exp3,2022.2.2,
high_opac_v,0.01,1,0.01,3,0.82,3.5,0.01,0,0.01,4,5,Valid,1,63,188,start,lin,0.11105155367894173,0,1,0.11105155367894173,1,True,,,,,,,,,,,,,20,A,2023-09-16_10h20.57.725,exp3,2022.2.2,
low_opac_i,0.4,1,0.01,3,0.82,3.5,0.01,0,0.01,4,5,Invalid,2,64,189,start,lin,0.22455168636035217,0.22455168636035217,1,0.22455168636035217,1,True,,,,,,,,,,,,,20,A,2023-09-16_10h20.57.725,exp3,2022.2.2,
low_opac_v,0.4,1,0.01,3,0.82,3.5,0.01,0,0.01,4,5,Valid,0,64,190,start,lin,0.08470814275946364,0,1,0.08470814275946364,1,True,,,,,,,,,,,,,20,A,2023-09-16_10h20.57.725,exp3,2022.2.2,
high_opac_v,0.01,1,0.01,3,0.82,3.5,0.01,0,0.01,4,5,Valid,1,64,191,start,lin,0.10962174725527876,0,1,0.10962174725527876,1,True,,,,,,,,,,,,,20,A,2023-09-16_10h20.57.725,exp3,2022.2.2,
low_opac_v,0.4,1,0.01,3,0.82,3.5,0.01,0,0.01,4,5,Valid,0,65,192,start,lin,0.08341616686834669,0,1,0.08341616686834669,1,True,,,,,,,,,,,,,20,A,2023-09-16_10h20.57.725,exp3,2022.2.2,
high_opac_v,0.01,1,0.01,3,0.82,3.5,0.01,0,0.01,4,5,Valid,1,65,193,start,lin,0.10824876899956995,0.10824876899956995,1,0.10824876899956995,1,True,,,,,,,,,,,,,20,A,2023-09-16_10h20.57.725,exp3,2022.2.2,
low_opac_i,0.4,1,0.01,3,0.82,3.5,0.01,0,0.01,4,5,Invalid,2,65,194,start,lin,0.22280307604369598,0.22280307604369598,1,0.22280307604369598,1,True,,,,,,,,,,,,,20,A,2023-09-16_10h20.57.725,exp3,2022.2.2,
high_opac_v,0.01,1,0.01,3,0.82,3.5,0.01,0,0.01,4,5,Valid,1,66,195,start,lin,0.10694018833268326,0.10694018833268326,1,0.10694018833268326,1,True,,,,,,,,,,,,,20,A,2023-09-16_10h20.57.725,exp3,2022.2.2,
low_opac_i,0.4,1,0.01,3,0.82,3.5,0.01,0,0.01,4,5,Invalid,2,66,196,start,lin,0.22107157052134413,0,1,0.22107157052134413,1,True,,,,,,,,,,,,,20,A,2023-09-16_10h20.57.725,exp3,2022.2.2,
low_opac_v,0.4,1,0.01,3,0.82,3.5,0.01,0,0.01,4,5,Valid,0,66,197,start,lin,0.08214492587828803,0,1,0.08214492587828803,1,True,,,,,,,,,,,,,20,A,2023-09-16_10h20.57.725,exp3,2022.2.2,
low_opac_v,0.4,1,0.01,3,0.82,3.5,0.01,0,0.01,4,5,Valid,0,67,198,start,lin,0.08088300935159226,0.08088300935159226,0,0.08088300935159226,0,True,,,,,,,,,,,,,20,A,2023-09-16_10h20.57.725,exp3,2022.2.2,
high_opac_v,0.01,1,0.01,3,0.82,3.5,0.01,0,0.01,4,5,Valid,1,67,199,start,lin,0.10568265424685822,0.10568265424685822,0,0.10568265424685822,0,True,,,,,,,,,,,,,20,A,2023-09-16_10h20.57.725,exp3,2022.2.2,
low_opac_i,0.4,1,0.01,3,0.82,3.5,0.01,0,0.01,4,5,Invalid,2,67,200,start,lin,0.21932297580213292,0.21932297580213292,1,0.21932297580213292,1,True,,,,,,,,,,,,,20,A,2023-09-16_10h20.57.725,exp3,2022.2.2,
high_opac_v,0.01,1,0.01,3,0.82,3.5,0.01,0,0.01,4,5,Valid,1,68,201,start,lin,0.1112000438443503,0,1,0.1112000438443503,1,True,,,,,,,,,,,,,20,A,2023-09-16_10h20.57.725,exp3,2022.2.2,
low_opac_i,0.4,1,0.01,3,0.82,3.5,0.01,0,0.01,4,5,Invalid,2,68,202,start,lin,0.2176037452676264,0,1,0.2176037452676264,1,True,,,,,,,,,,,,,20,A,2023-09-16_10h20.57.725,exp3,2022.2.2,
low_opac_v,0.4,1,0.01,3,0.82,3.5,0.01,0,0.01,4,5,Valid,0,68,203,start,lin,0.08578740599561102,0,1,0.08578740599561102,1,True,,,,,,,,,,,,,20,A,2023-09-16_10h20.57.725,exp3,2022.2.2,
high_opac_v,0.01,1,0.01,3,0.82,3.5,0.01,0,0.01,4,5,Valid,1,69,204,start,lin,0.10988541574596741,0,1,0.10988541574596741,1,True,,,,,,,,,,,,,20,A,2023-09-16_10h20.57.725,exp3,2022.2.2,
low_opac_i,0.4,1,0.01,3,0.82,3.5,0.01,0,0.01,4,5,Invalid,2,69,205,start,lin,0.2159499752313272,0,1,0.2159499752313272,1,True,,,,,,,,,,,,,20,A,2023-09-16_10h20.57.725,exp3,2022.2.2,
low_opac_v,0.4,1,0.01,3,0.82,3.5,0.01,0,0.01,4,5,Valid,0,69,206,start,lin,0.08466790596989454,0,1,0.08466790596989454,1,True,,,,,,,,,,,,,20,A,2023-09-16_10h20.57.725,exp3,2022.2.2,
low_opac_v,0.4,1,0.01,3,0.82,3.5,0.01,0,0.01,4,5,Valid,0,70,207,start,lin,0.08347590852550751,0,1,0.08347590852550751,1,True,,,,,,,,,,,,,20,A,2023-09-16_10h20.57.725,exp3,2022.2.2,
high_opac_v,0.01,1,0.01,3,0.82,3.5,0.01,0,0.01,4,5,Valid,1,70,208,start,lin,0.10860991329152046,0,1,0.10860991329152046,1,True,,,,,,,,,,,,,20,A,2023-09-16_10h20.57.725,exp3,2022.2.2,
low_opac_i,0.4,1,0.01,3,0.82,3.5,0.01,0,0.01,4,5,Invalid,2,70,209,start,lin,0.2143428462265045,0.2143428462265045,1,0.2143428462265045,1,True,,,,,,,,,,,,,20,A,2023-09-16_10h20.57.725,exp3,2022.2.2,
low_opac_v,0.4,1,0.01,3,0.82,3.5,0.01,0,0.01,4,5,Valid,0,71,210,start,lin,0.08230120528100127,0.08230120528100127,0,0.08230120528100127,0,True,,,,,,,,,,,,,20,A,2023-09-16_10h20.57.725,exp3,2022.2.2,
high_opac_v,0.01,1,0.01,3,0.82,3.5,0.01,0,0.01,4,5,Valid,1,71,211,start,lin,0.10739411348247357,0.10739411348247357,1,0.10739411348247357,1,True,,,,,,,,,,,,,20,A,2023-09-16_10h20.57.725,exp3,2022.2.2,
low_opac_i,0.4,1,0.01,3,0.82,3.5,0.01,0,0.01,4,5,Invalid,2,71,212,start,lin,0.21261973324132719,0,1,0.21261973324132719,1,True,,,,,,,,,,,,,20,A,2023-09-16_10h20.57.725,exp3,2022.2.2,
low_opac_i,0.4,1,0.01,3,0.82,3.5,0.01,0,0.01,4,5,Invalid,2,72,213,start,lin,0.21090608110252454,0,1,0.21090608110252454,1,True,,,,,,,,,,,,,20,A,2023-09-16_10h20.57.725,exp3,2022.2.2,
low_opac_v,0.4,1,0.01,3,0.82,3.5,0.01,0,0.01,4,5,Valid,0,72,214,start,lin,0.0868322475109789,0.0868322475109789,1,0.0868322475109789,1,True,,,,,,,,,,,,,20,A,2023-09-16_10h20.57.725,exp3,2022.2.2,
high_opac_v,0.01,1,0.01,3,0.82,3.5,0.01,0,0.01,4,5,Valid,1,72,215,start,lin,0.1062264612231826,0.1062264612231826,1,0.1062264612231826,1,True,,,,,,,,,,,,,20,A,2023-09-16_10h20.57.725,exp3,2022.2.2,
low_opac_i,0.4,1,0.01,3,0.82,3.5,0.01,0,0.01,4,5,Invalid,2,73,216,start,lin,0.20916003515395387,0,1,0.20916003515395387,1,True,,,,,,,,,,,,,20,A,2023-09-16_10h20.57.725,exp3,2022.2.2,
low_opac_v,0.4,1,0.01,3,0.82,3.5,0.01,0,0.01,4,5,Valid,0,73,217,start,lin,0.08576426008000815,0.08576426008000815,1,0.08576426008000815,1,True,,,,,,,,,,,,,20,A,2023-09-16_10h20.57.725,exp3,2022.2.2,
high_opac_v,0.01,1,0.01,3,0.82,3.5,0.01,0,0.01,4,5,Valid,1,73,218,start,lin,0.10509665381294195,0,1,0.10509665381294195,1,True,,,,,,,,,,,,,20,A,2023-09-16_10h20.57.725,exp3,2022.2.2,
low_opac_i,0.4,1,0.01,3,0.82,3.5,0.01,0,0.01,4,5,Invalid,2,74,219,start,lin,0.20743952137215435,0.20743952137215435,1,0.20743952137215435,1,True,,,,,,,,,,,,,20,A,2023-09-16_10h20.57.725,exp3,2022.2.2,
low_opac_v,0.4,1,0.01,3,0.82,3.5,0.01,0,0.01,4,5,Valid,0,74,220,start,lin,0.08472625806778394,0,1,0.08472625806778394,1,True,,,,,,,,,,,,,20,A,2023-09-16_10h20.57.725,exp3,2022.2.2,
high_opac_v,0.01,1,0.01,3,0.82,3.5,0.01,0,0.01,4,5,Valid,1,74,221,start,lin,0.1039954033027703,0.1039954033027703,1,0.1039954033027703,1,True,,,,,,,,,,,,,20,A,2023-09-16_10h20.57.725,exp3,2022.2.2,
low_opac_i,0.4,1,0.01,3,0.82,3.5,0.01,0,0.01,4,5,Invalid,2,75,222,start,lin,0.20577812035782506,0,1,0.20577812035782506,1,True,,,,,,,,,,,,,20,A,2023-09-16_10h20.57.725,exp3,2022.2.2,
high_opac_v,0.01,1,0.01,3,0.82,3.5,0.01,0,0.01,4,5,Valid,1,75,223,start,lin,0.10281643878572988,0,1,0.10281643878572988,1,True,,,,,,,,,,,,,20,A,2023-09-16_10h20.57.725,exp3,2022.2.2,
low_opac_v,0.4,1,0.01,3,0.82,3.5,0.01,0,0.01,4,5,Valid,0,75,224,start,lin,0.08361953236567038,0,1,0.08361953236567038,1,True,,,,,,,,,,,,,20,A,2023-09-16_10h20.57.725,exp3,2022.2.2,
,,,,,,,,,,,,,,,,,,,,,,,,0,-1158,Valid,noise,-45,2,8.026702099989052,1,1.0,43.8573699999979,True,15,20,A,2023-09-16_10h20.57.725,exp3,2022.2.2,
,,,,,,,,,,,,,,,,,,,,,,,,0,2274,Valid,signal,-45,2,4.823168899994926,0,3.0,6.130875299990294,True,1,20,A,2023-09-16_10h20.57.725,exp3,2022.2.2,
,,,,,,,,,,,,,,,,,,,,,,,,0,-2274,Valid,noise,-45,2,2.504704600010882,1,2.0,3.8128074999985984,True,1,20,A,2023-09-16_10h20.57.725,exp3,2022.2.2,
,,,,,,,,,,,,,,,,,,,,,,,,0,2274,Invalid,noise,45,2,3.5398317000071984,1,1.0,4.847472199995536,True,1,20,A,2023-09-16_10h20.57.725,exp3,2022.2.2,
,,,,,,,,,,,,,,,,,,,,,,,,0,2274,Invalid,signal,45,2,2.322005199996056,0,3.0,3.6295187000068836,True,1,20,A,2023-09-16_10h20.57.725,exp3,2022.2.2,
,,,,,,,,,,,,,,,,,,,,,,,,0,-1716,Valid,signal,-45,1,1.6384956999972928,1,4.0,2.946012000000337,True,1,20,A,2023-09-16_10h20.57.725,exp3,2022.2.2,
,,,,,,,,,,,,,,,,,,,,,,,,0,1158,Invalid,noise,-45,2,2.171792400011327,1,2.0,3.479699299990898,True,1,20,A,2023-09-16_10h20.57.725,exp3,2022.2.2,
,,,,,,,,,,,,,,,,,,,,,,,,0,1716,Invalid,signal,-45,1,1.9382995000050869,1,4.0,3.245937599989702,True,1,20,A,2023-09-16_10h20.57.725,exp3,2022.2.2,
,,,,,,,,,,,,,,,,,,,,,,,,0,-2274,Valid,signal,-45,1,2.905735399996047,1,2.0,4.213228799999342,True,1,20,A,2023-09-16_10h20.57.725,exp3,2022.2.2,
,,,,,,,,,,,,,,,,,,,,,,,,0,-2274,Valid,noise,45,1,3.1894214999920223,0,1.0,4.496927300002426,True,1,20,A,2023-09-16_10h20.57.725,exp3,2022.2.2,
,,,,,,,,,,,,,,,,,,,,,,,,0,1716,Valid,noise,-45,2,1.854211400001077,1,1.0,3.162282299992512,True,1,20,A,2023-09-16_10h20.57.725,exp3,2022.2.2,
,,,,,,,,,,,,,,,,,,,,,,,,0,-1716,Valid,signal,45,2,2.605155500001274,0,1.0,3.913091099995654,True,1,20,A,2023-09-16_10h20.57.725,exp3,2022.2.2,
,,,,,,,,,,,,,,,,,,,,,,,,0,-557,Valid,noise,-45,2,2.6223634999914793,1,4.0,3.930170400009956,True,1,20,A,2023-09-16_10h20.57.725,exp3,2022.2.2,
,,,,,,,,,,,,,,,,,,,,,,,,0,-1158,Valid,signal,45,1,4.822902699990664,1,2.0,6.130881499993848,True,1,20,A,2023-09-16_10h20.57.725,exp3,2022.2.2,
,,,,,,,,,,,,,,,,,,,,,,,,0,557,Valid,noise,-45,2,5.367573999988963,1,4.0,9.582050199998775,True,2,20,A,2023-09-16_10h20.57.725,exp3,2022.2.2,
,,,,,,,,,,,,,,,,,,,,,,,,0,-1716,Valid,noise,45,2,2.182876499995473,1,3.0,6.1141471000009915,True,2,20,A,2023-09-16_10h20.57.725,exp3,2022.2.2,
,,,,,,,,,,,,,,,,,,,,,,,,0,1158,Valid,noise,45,2,3.605019499998889,1,4.0,4.91304929999751,True,1,20,A,2023-09-16_10h20.57.725,exp3,2022.2.2,
,,,,,,,,,,,,,,,,,,,,,,,,0,-2274,Valid,signal,45,2,2.6876361000031466,0,1.0,7.9815737000026274,True,2,20,A,2023-09-16_10h20.57.725,exp3,2022.2.2,
,,,,,,,,,,,,,,,,,,,,,,,,0,-1716,Valid,noise,45,2,2.9892614999989746,1,1.0,4.297365400008857,True,1,20,A,2023-09-16_10h20.57.725,exp3,2022.2.2,
,,,,,,,,,,,,,,,,,,,,,,,,0,-2274,Valid,noise,-45,2,2.6713271999906283,1,2.0,3.979276199999731,True,1,20,A,2023-09-16_10h20.57.725,exp3,2022.2.2,
,,,,,,,,,,,,,,,,,,,,,,,,0,-1716,Valid,signal,-45,1,1.9719685000018217,1,3.0,3.279679200000828,True,1,20,A,2023-09-16_10h20.57.725,exp3,2022.2.2,
,,,,,,,,,,,,,,,,,,,,,,,,0,-1716,Invalid,noise,-45,2,3.3221864999941317,1,2.0,4.629887400005828,True,1,20,A,2023-09-16_10h20.57.725,exp3,2022.2.2,
,,,,,,,,,,,,,,,,,,,,,,,,0,1716,Invalid,noise,45,1,2.171379999999772,0,2.0,3.4793789999966975,True,1,20,A,2023-09-16_10h20.57.725,exp3,2022.2.2,
,,,,,,,,,,,,,,,,,,,,,,,,0,-1158,Valid,noise,-45,2,2.0893622000003234,1,2.0,3.396777600006317,True,1,20,A,2023-09-16_10h20.57.725,exp3,2022.2.2,
,,,,,,,,,,,,,,,,,,,,,,,,0,-1158,Valid,noise,-45,1,2.792656799996621,0,2.0,6.5640639000048395,True,2,20,A,2023-09-16_10h20.57.725,exp3,2022.2.2,
,,,,,,,,,,,,,,,,,,,,,,,,0,-557,Valid,noise,-45,2,2.3879091999988304,1,4.0,6.047171099999105,True,2,20,A,2023-09-16_10h20.57.725,exp3,2022.2.2,
,,,,,,,,,,,,,,,,,,,,,,,,0,-557,Valid,signal,-45,1,2.7223491000040667,1,2.0,4.030121200004942,True,1,20,A,2023-09-16_10h20.57.725,exp3,2022.2.2,
,,,,,,,,,,,,,,,,,,,,,,,,0,-1716,Invalid,noise,45,2,3.205672099997173,1,1.0,4.513472700011334,True,1,20,A,2023-09-16_10h20.57.725,exp3,2022.2.2,
,,,,,,,,,,,,,,,,,,,,,,,,0,-557,Invalid,signal,45,1,2.2057484999968437,1,4.0,3.5136570000031497,True,1,20,A,2023-09-16_10h20.57.725,exp3,2022.2.2,
,,,,,,,,,,,,,,,,,,,,,,,,0,-2274,Valid,noise,45,2,3.3549358999880496,1,1.0,4.662900499999523,True,1,20,A,2023-09-16_10h20.57.725,exp3,2022.2.2,
,,,,,,,,,,,,,,,,,,,,,,,,0,1158,Valid,signal,45,1,3.3562249000096926,1,4.0,4.663833900005557,True,1,20,A,2023-09-16_10h20.57.725,exp3,2022.2.2,
,,,,,,,,,,,,,,,,,,,,,,,,0,1716,Valid,noise,-45,1,5.089812200007145,0,1.0,6.3975840999919455,True,1,20,A,2023-09-16_10h20.57.725,exp3,2022.2.2,
,,,,,,,,,,,,,,,,,,,,,,,,0,-2274,Valid,noise,45,2,3.788373600007617,1,3.0,5.09634420000657,True,1,20,A,2023-09-16_10h20.57.725,exp3,2022.2.2,
,,,,,,,,,,,,,,,,,,,,,,,,0,-1158,Valid,signal,-45,1,1.321767400004319,1,4.0,2.6297474000020884,True,1,20,A,2023-09-16_10h20.57.725,exp3,2022.2.2,
,,,,,,,,,,,,,,,,,,,,,,,,0,557,Valid,signal,-45,1,1.272375500004273,1,3.0,2.5797957999893697,True,1,20,A,2023-09-16_10h20.57.725,exp3,2022.2.2,
,,,,,,,,,,,,,,,,,,,,,,,,0,1158,Invalid,noise,45,2,4.605853100001696,1,2.0,5.913499799993588,True,1,20,A,2023-09-16_10h20.57.725,exp3,2022.2.2,
,,,,,,,,,,,,,,,,,,,,,,,,0,-2274,Valid,signal,45,2,3.9388796999992337,0,3.0,5.246662399993511,True,1,20,A,2023-09-16_10h20.57.725,exp3,2022.2.2,
,,,,,,,,,,,,,,,,,,,,,,,,0,557,Valid,noise,-45,2,3.4726034000050277,1,4.0,4.7802938999957405,True,1,20,A,2023-09-16_10h20.57.725,exp3,2022.2.2,
,,,,,,,,,,,,,,,,,,,,,,,,0,557,Valid,signal,45,1,2.463468499990995,1,4.0,14.01670279999962,True,6,20,A,2023-09-16_10h20.57.725,exp3,2022.2.2,
,,,,,,,,,,,,,,,,,,,,,,,,0,-1716,Invalid,signal,-45,1,3.0386831000068923,1,2.0,4.346504700006335,True,1,20,A,2023-09-16_10h20.57.725,exp3,2022.2.2,
,,,,,,,,,,,,,,,,,,,,,,,,0,1716,Valid,signal,-45,1,1.4050573000131408,1,3.0,2.7127507999975933,True,1,20,A,2023-09-16_10h20.57.725,exp3,2022.2.2,
,,,,,,,,,,,,,,,,,,,,,,,,0,557,Valid,signal,-45,1,1.8816578999976628,1,4.0,7.598278699995717,True,3,20,A,2023-09-16_10h20.57.725,exp3,2022.2.2,
,,,,,,,,,,,,,,,,,,,,,,,,0,2274,Valid,noise,45,2,2.454843500003335,1,1.0,3.762904300005175,True,1,20,A,2023-09-16_10h20.57.725,exp3,2022.2.2,
,,,,,,,,,,,,,,,,,,,,,,,,0,557,Valid,noise,-45,1,2.405165499993018,0,4.0,3.7131345000088913,True,1,20,A,2023-09-16_10h20.57.725,exp3,2022.2.2,
,,,,,,,,,,,,,,,,,,,,,,,,0,-1158,Valid,noise,45,2,1.8887675000005402,1,2.0,3.1964930999965873,True,1,20,A,2023-09-16_10h20.57.725,exp3,2022.2.2,
,,,,,,,,,,,,,,,,,,,,,,,,0,1716,Valid,signal,-45,1,1.4880496999976458,1,3.0,2.7957785000035074,True,1,20,A,2023-09-16_10h20.57.725,exp3,2022.2.2,
,,,,,,,,,,,,,,,,,,,,,,,,0,-1158,Invalid,signal,45,1,2.1054835000104504,1,3.0,3.413296500002616,True,1,20,A,2023-09-16_10h20.57.725,exp3,2022.2.2,
,,,,,,,,,,,,,,,,,,,,,,,,0,-557,Valid,signal,45,1,1.1713512999995146,1,4.0,2.4792258000088623,True,1,20,A,2023-09-16_10h20.57.725,exp3,2022.2.2,
,,,,,,,,,,,,,,,,,,,,,,,,0,1716,Valid,signal,45,1,1.471696200009319,1,4.0,2.7795283000014024,True,1,20,A,2023-09-16_10h20.57.725,exp3,2022.2.2,
,,,,,,,,,,,,,,,,,,,,,,,,0,557,Valid,signal,-45,1,1.2048243999888655,1,4.0,2.512783700003638,True,1,20,A,2023-09-16_10h20.57.725,exp3,2022.2.2,
,,,,,,,,,,,,,,,,,,,,,,,,0,-1158,Valid,noise,45,2,2.10514489999332,1,1.0,3.412770200011437,True,1,20,A,2023-09-16_10h20.57.725,exp3,2022.2.2,
,,,,,,,,,,,,,,,,,,,,,,,,0,2274,Valid,noise,-45,1,1.5548525000049267,0,2.0,2.8625431999971624,True,1,20,A,2023-09-16_10h20.57.725,exp3,2022.2.2,
,,,,,,,,,,,,,,,,,,,,,,,,0,-2274,Valid,noise,45,1,1.8718013000034261,0,2.0,3.1796255000081146,True,1,20,A,2023-09-16_10h20.57.725,exp3,2022.2.2,
,,,,,,,,,,,,,,,,,,,,,,,,0,2274,Valid,noise,45,2,2.15658500000427,1,2.0,11.382654500004719,True,4,20,A,2023-09-16_10h20.57.725,exp3,2022.2.2,
,,,,,,,,,,,,,,,,,,,,,,,,0,2274,Valid,noise,-45,2,1.5045702000061283,1,2.0,2.812561700004153,True,1,20,A,2023-09-16_10h20.57.725,exp3,2022.2.2,
,,,,,,,,,,,,,,,,,,,,,,,,0,-1716,Valid,noise,45,2,1.6720927999995183,1,2.0,2.9800574999972014,True,1,20,A,2023-09-16_10h20.57.725,exp3,2022.2.2,
,,,,,,,,,,,,,,,,,,,,,,,,0,557,Invalid,noise,45,2,4.3056719999876805,1,3.0,5.6136484000016935,True,1,20,A,2023-09-16_10h20.57.725,exp3,2022.2.2,
,,,,,,,,,,,,,,,,,,,,,,,,0,-1716,Valid,signal,45,1,2.1926084000006085,1,2.0,12.400092999989283,True,5,20,A,2023-09-16_10h20.57.725,exp3,2022.2.2,
,,,,,,,,,,,,,,,,,,,,,,,,0,-1158,Valid,noise,-45,2,29.832861700007925,1,2.0,31.14065089999349,True,1,20,A,2023-09-16_10h20.57.725,exp3,2022.2.2,
,,,,,,,,,,,,,,,,,,,,,,,,0,1716,Invalid,noise,45,1,3.2050702999986243,0,1.0,4.513175400003092,True,1,20,A,2023-09-16_10h20.57.725,exp3,2022.2.2,
,,,,,,,,,,,,,,,,,,,,,,,,0,557,Valid,noise,-45,2,2.4893120000051567,1,4.0,3.7969516000011936,True,1,20,A,2023-09-16_10h20.57.725,exp3,2022.2.2,
,,,,,,,,,,,,,,,,,,,,,,,,0,1716,Valid,noise,45,2,2.8887185999919893,1,4.0,4.196448899994721,True,1,20,A,2023-09-16_10h20.57.725,exp3,2022.2.2,
,,,,,,,,,,,,,,,,,,,,,,,,0,-1158,Invalid,signal,45,1,1.3712832000019262,1,4.0,2.679063000003225,True,1,20,A,2023-09-16_10h20.57.725,exp3,2022.2.2,
,,,,,,,,,,,,,,,,,,,,,,,,0,557,Invalid,noise,45,2,2.121447600002284,1,2.0,3.4294995999953244,True,1,20,A,2023-09-16_10h20.57.725,exp3,2022.2.2,
,,,,,,,,,,,,,,,,,,,,,,,,0,-2274,Valid,signal,45,2,1.8719508000067435,0,3.0,3.179646299991873,True,1,20,A,2023-09-16_10h20.57.725,exp3,2022.2.2,
,,,,,,,,,,,,,,,,,,,,,,,,0,-557,Valid,noise,45,2,1.004845400006161,1,3.0,2.3126934000028996,True,1,20,A,2023-09-16_10h20.57.725,exp3,2022.2.2,
,,,,,,,,,,,,,,,,,,,,,,,,0,2274,Valid,noise,45,2,1.1053499999979977,1,3.0,2.412902899988694,True,1,20,A,2023-09-16_10h20.57.725,exp3,2022.2.2,
,,,,,,,,,,,,,,,,,,,,,,,,0,2274,Valid,noise,-45,2,1.5053371000103652,1,2.0,2.8130046000005677,True,1,20,A,2023-09-16_10h20.57.725,exp3,2022.2.2,
,,,,,,,,,,,,,,,,,,,,,,,,0,-1716,Valid,noise,-45,2,1.4707698999991408,1,1.0,2.778941600001417,True,1,20,A,2023-09-16_10h20.57.725,exp3,2022.2.2,
,,,,,,,,,,,,,,,,,,,,,,,,0,-1716,Valid,noise,-45,2,1.5883530999999493,1,3.0,2.8962444000062533,True,1,20,A,2023-09-16_10h20.57.725,exp3,2022.2.2,
,,,,,,,,,,,,,,,,,,,,,,,,0,557,Invalid,signal,45,1,1.8218720000004396,1,4.0,3.1296889999939594,True,1,20,A,2023-09-16_10h20.57.725,exp3,2022.2.2,
,,,,,,,,,,,,,,,,,,,,,,,,0,1158,Valid,noise,45,1,1.6557136999908835,0,1.0,2.96333610000147,True,1,20,A,2023-09-16_10h20.57.725,exp3,2022.2.2,
,,,,,,,,,,,,,,,,,,,,,,,,0,557,Invalid,signal,-45,1,1.590871500011417,1,4.0,4.796879000001354,True,2,20,A,2023-09-16_10h20.57.725,exp3,2022.2.2,
,,,,,,,,,,,,,,,,,,,,,,,,0,-2274,Valid,noise,-45,2,2.538649099995382,1,1.0,3.846409499994479,True,1,20,A,2023-09-16_10h20.57.725,exp3,2022.2.2,
,,,,,,,,,,,,,,,,,,,,,,,,0,1158,Invalid,signal,-45,1,2.154863600007957,1,4.0,3.4626573999994434,True,1,20,A,2023-09-16_10h20.57.725,exp3,2022.2.2,
,,,,,,,,,,,,,,,,,,,,,,,,0,-557,Valid,noise,45,2,1.6883054000063566,1,3.0,2.9961921999929473,True,1,20,A,2023-09-16_10h20.57.725,exp3,2022.2.2,
,,,,,,,,,,,,,,,,,,,,,,,,0,1716,Valid,signal,45,1,1.805588400005945,1,4.0,3.113318600007915,True,1,20,A,2023-09-16_10h20.57.725,exp3,2022.2.2,
,,,,,,,,,,,,,,,,,,,,,,,,0,2274,Valid,signal,-45,1,2.238193900004262,1,2.0,3.545972099993378,True,1,20,A,2023-09-16_10h20.57.725,exp3,2022.2.2,
,,,,,,,,,,,,,,,,,,,,,,,,0,-2274,Valid,noise,-45,2,1.6388272999902256,1,2.0,2.946540400007507,True,1,20,A,2023-09-16_10h20.57.725,exp3,2022.2.2,
,,,,,,,,,,,,,,,,,,,,,,,,0,-1158,Valid,noise,45,1,2.121554400000605,0,3.0,3.429351899991161,True,1,20,A,2023-09-16_10h20.57.725,exp3,2022.2.2,
,,,,,,,,,,,,,,,,,,,,,,,,0,-1158,Valid,signal,-45,1,1.8052148999995552,1,4.0,3.112895300000673,True,1,20,A,2023-09-16_10h20.57.725,exp3,2022.2.2,
,,,,,,,,,,,,,,,,,,,,,,,,0,-557,Valid,signal,-45,1,1.7224470999935875,1,4.0,3.030168199999025,True,1,20,A,2023-09-16_10h20.57.725,exp3,2022.2.2,
,,,,,,,,,,,,,,,,,,,,,,,,0,-1158,Valid,noise,-45,2,4.722339100000681,1,2.0,6.030139099995722,True,1,20,A,2023-09-16_10h20.57.725,exp3,2022.2.2,
,,,,,,,,,,,,,,,,,,,,,,,,0,2274,Valid,noise,-45,1,1.7720858999964548,0,2.0,3.079847200002405,True,1,20,A,2023-09-16_10h20.57.725,exp3,2022.2.2,
,,,,,,,,,,,,,,,,,,,,,,,,0,1158,Valid,signal,-45,1,1.329794099990977,1,3.0,5.096612399996957,True,2,20,A,2023-09-16_10h20.57.725,exp3,2022.2.2,
,,,,,,,,,,,,,,,,,,,,,,,,0,-557,Valid,signal,-45,1,1.054745900008129,1,4.0,2.3625795999978436,True,1,20,A,2023-09-16_10h20.57.725,exp3,2022.2.2,
,,,,,,,,,,,,,,,,,,,,,,,,0,2274,Valid,noise,-45,2,2.380113400009577,1,2.0,6.163715599992429,True,2,20,A,2023-09-16_10h20.57.725,exp3,2022.2.2,
,,,,,,,,,,,,,,,,,,,,,,,,0,-2274,Valid,signal,-45,1,1.270472600008361,1,3.0,2.5784160000039265,True,1,20,A,2023-09-16_10h20.57.725,exp3,2022.2.2,
,,,,,,,,,,,,,,,,,,,,,,,,0,1158,Valid,noise,45,1,1.9892476000095485,0,3.0,3.296860500006005,True,1,20,A,2023-09-16_10h20.57.725,exp3,2022.2.2,
,,,,,,,,,,,,,,,,,,,,,,,,0,-2274,Valid,signal,45,2,2.4715813000075286,0,2.0,3.779321299996809,True,1,20,A,2023-09-16_10h20.57.725,exp3,2022.2.2,
,,,,,,,,,,,,,,,,,,,,,,,,0,-1716,Valid,noise,-45,2,2.3226840999996057,1,2.0,3.6302775999938603,True,1,20,A,2023-09-16_10h20.57.725,exp3,2022.2.2,
,,,,,,,,,,,,,,,,,,,,,,,,0,1158,Valid,noise,-45,2,1.287416499995743,1,2.0,2.595363100001123,True,1,20,A,2023-09-16_10h20.57.725,exp3,2022.2.2,
,,,,,,,,,,,,,,,,,,,,,,,,0,557,Valid,signal,-45,1,1.7555068999936339,1,4.0,3.06323159999738,True,1,20,A,2023-09-16_10h20.57.725,exp3,2022.2.2,
,,,,,,,,,,,,,,,,,,,,,,,,0,1158,Valid,noise,45,1,1.6214120999939041,0,3.0,2.929245599996648,True,1,20,A,2023-09-16_10h20.57.725,exp3,2022.2.2,
,,,,,,,,,,,,,,,,,,,,,,,,0,-2274,Valid,signal,-45,1,2.5720562000060454,1,2.0,3.8799539000028744,True,1,20,A,2023-09-16_10h20.57.725,exp3,2022.2.2,
,,,,,,,,,,,,,,,,,,,,,,,,0,1716,Valid,noise,45,1,2.5395764999993844,0,1.0,3.847227499994915,True,1,20,A,2023-09-16_10h20.57.725,exp3,2022.2.2,
,,,,,,,,,,,,,,,,,,,,,,,,0,1716,Valid,noise,45,2,3.42199139999866,1,2.0,4.729762499991921,True,1,20,A,2023-09-16_10h20.57.725,exp3,2022.2.2,
,,,,,,,,,,,,,,,,,,,,,,,,0,-557,Valid,signal,-45,1,1.4387810000043828,1,4.0,2.746596699988004,True,1,20,A,2023-09-16_10h20.57.725,exp3,2022.2.2,
,,,,,,,,,,,,,,,,,,,,,,,,0,2274,Valid,signal,45,1,2.040507700003218,1,4.0,7.464113099995302,True,3,20,A,2023-09-16_10h20.57.725,exp3,2022.2.2,
,,,,,,,,,,,,,,,,,,,,,,,,0,1158,Valid,signal,-45,1,1.7380971000093268,1,3.0,3.0460543999943184,True,1,20,A,2023-09-16_10h20.57.725,exp3,2022.2.2,
,,,,,,,,,,,,,,,,,,,,,,,,0,-1716,Valid,noise,45,2,2.6223259000107646,1,3.0,3.9299870999966515,True,1,20,A,2023-09-16_10h20.57.725,exp3,2022.2.2,
,,,,,,,,,,,,,,,,,,,,,,,,0,557,Valid,signal,45,1,2.522345300007146,1,3.0,3.8299696000030963,True,1,20,A,2023-09-16_10h20.57.725,exp3,2022.2.2,
,,,,,,,,,,,,,,,,,,,,,,,,0,-557,Valid,signal,45,1,0.9051155000051949,1,3.0,2.212797700005467,True,1,20,A,2023-09-16_10h20.57.725,exp3,2022.2.2,
,,,,,,,,,,,,,,,,,,,,,,,,0,-2274,Invalid,signal,-45,2,2.0541590000066208,0,3.0,3.362097299992456,True,1,20,A,2023-09-16_10h20.57.725,exp3,2022.2.2,
,,,,,,,,,,,,,,,,,,,,,,,,0,-1716,Invalid,signal,45,1,1.1886394000030123,1,4.0,2.4963827000028687,True,1,20,A,2023-09-16_10h20.57.725,exp3,2022.2.2,
,,,,,,,,,,,,,,,,,,,,,,,,0,-557,Invalid,signal,45,1,1.3878812000039034,1,4.0,2.6958716999943135,True,1,20,A,2023-09-16_10h20.57.725,exp3,2022.2.2,
,,,,,,,,,,,,,,,,,,,,,,,,0,2274,Valid,signal,45,1,2.9730813000060152,1,2.0,4.280727699995623,True,1,20,A,2023-09-16_10h20.57.725,exp3,2022.2.2,
,,,,,,,,,,,,,,,,,,,,,,,,0,557,Valid,signal,-45,1,1.3552039999922272,1,4.0,2.6629223999916576,True,1,20,A,2023-09-16_10h20.57.725,exp3,2022.2.2,
,,,,,,,,,,,,,,,,,,,,,,,,0,-557,Valid,noise,-45,2,1.7874274999921909,1,4.0,3.09547859999293,True,1,20,A,2023-09-16_10h20.57.725,exp3,2022.2.2,
,,,,,,,,,,,,,,,,,,,,,,,,0,-1158,Valid,noise,45,2,1.3558625000005122,1,2.0,2.663726200000383,True,1,20,A,2023-09-16_10h20.57.725,exp3,2022.2.2,
,,,,,,,,,,,,,,,,,,,,,,,,0,-2274,Valid,signal,45,1,3.322230899997521,1,1.0,8.764842600008706,True,2,20,A,2023-09-16_10h20.57.725,exp3,2022.2.2,
,,,,,,,,,,,,,,,,,,,,,,,,0,1158,Valid,noise,-45,2,1.8210044000006747,1,2.0,3.128836299991235,True,1,20,A,2023-09-16_10h20.57.725,exp3,2022.2.2,
,,,,,,,,,,,,,,,,,,,,,,,,0,557,Valid,noise,-45,2,2.00595429999521,1,3.0,3.3136667999933707,True,1,20,A,2023-09-16_10h20.57.725,exp3,2022.2.2,
,,,,,,,,,,,,,,,,,,,,,,,,0,-1716,Valid,signal,-45,1,1.3745107000140706,1,3.0,4.930388100008713,True,2,20,A,2023-09-16_10h20.57.725,exp3,2022.2.2,
,,,,,,,,,,,,,,,,,,,,,,,,0,-2274,Invalid,noise,45,2,5.039053799991962,1,2.0,6.34679049999977,True,1,20,A,2023-09-16_10h20.57.725,exp3,2022.2.2,
,,,,,,,,,,,,,,,,,,,,,,,,0,2274,Valid,signal,-45,2,1.5887166000029538,0,2.0,2.8964664000086486,True,1,20,A,2023-09-16_10h20.57.725,exp3,2022.2.2,
,,,,,,,,,,,,,,,,,,,,,,,,0,1158,Valid,signal,-45,1,1.4882188999908976,1,3.0,2.7958926999999676,True,1,20,A,2023-09-16_10h20.57.725,exp3,2022.2.2,
,,,,,,,,,,,,,,,,,,,,,,,,0,-1158,Valid,signal,45,1,1.4715374000079464,1,3.0,2.7793701000045985,True,1,20,A,2023-09-16_10h20.57.725,exp3,2022.2.2,
,,,,,,,,,,,,,,,,,,,,,,,,0,1716,Valid,signal,45,1,1.0551369999884628,1,3.0,2.3627488000056474,True,1,20,A,2023-09-16_10h20.57.725,exp3,2022.2.2,
,,,,,,,,,,,,,,,,,,,,,,,,0,-557,Valid,signal,-45,1,0.8036725999991177,1,3.0,2.1118071999953827,True,1,20,A,2023-09-16_10h20.57.725,exp3,2022.2.2,
,,,,,,,,,,,,,,,,,,,,,,,,0,1716,Valid,signal,45,1,0.9720302000059746,1,3.0,2.279674300007173,True,1,20,A,2023-09-16_10h20.57.725,exp3,2022.2.2,
,,,,,,,,,,,,,,,,,,,,,,,,0,-1158,Valid,signal,45,1,1.467056199995568,1,3.0,5.163780800008681,True,2,20,A,2023-09-16_10h20.57.725,exp3,2022.2.2,
,,,,,,,,,,,,,,,,,,,,,,,,0,2274,Valid,signal,-45,1,1.1791407999990042,1,3.0,4.546552400002838,True,2,20,A,2023-09-16_10h20.57.725,exp3,2022.2.2,
,,,,,,,,,,,,,,,,,,,,,,,,0,2274,Valid,signal,45,2,1.738371899991762,0,3.0,3.046202199999243,True,1,20,A,2023-09-16_10h20.57.725,exp3,2022.2.2,
,,,,,,,,,,,,,,,,,,,,,,,,0,-557,Invalid,noise,-45,2,2.372081599998637,1,1.0,3.6799910999980057,True,1,20,A,2023-09-16_10h20.57.725,exp3,2022.2.2,
,,,,,,,,,,,,,,,,,,,,,,,,0,557,Valid,noise,-45,2,1.5714995000016643,1,3.0,2.8793236000055913,True,1,20,A,2023-09-16_10h20.57.725,exp3,2022.2.2,
,,,,,,,,,,,,,,,,,,,,,,,,0,2274,Valid,signal,45,2,2.9388921999925515,0,2.0,4.246596500001033,True,1,20,A,2023-09-16_10h20.57.725,exp3,2022.2.2,
,,,,,,,,,,,,,,,,,,,,,,,,0,-1158,Invalid,noise,45,2,1.8551898999867262,1,1.0,3.163061799990828,True,1,20,A,2023-09-16_10h20.57.725,exp3,2022.2.2,
,,,,,,,,,,,,,,,,,,,,,,,,0,-2274,Invalid,noise,45,2,3.089141800010111,1,1.0,4.3967157999868505,True,1,20,A,2023-09-16_10h20.57.725,exp3,2022.2.2,
,,,,,,,,,,,,,,,,,,,,,,,,0,-557,Valid,signal,-45,1,1.012951000011526,1,4.0,4.697253399994224,True,2,20,A,2023-09-16_10h20.57.725,exp3,2022.2.2,
,,,,,,,,,,,,,,,,,,,,,,,,0,557,Valid,signal,45,1,0.8717443000059575,1,4.0,2.179373000006308,True,1,20,A,2023-09-16_10h20.57.725,exp3,2022.2.2,
,,,,,,,,,,,,,,,,,,,,,,,,0,-1716,Valid,signal,-45,1,0.8708538999926532,1,4.0,2.1787144000118133,True,1,20,A,2023-09-16_10h20.57.725,exp3,2022.2.2,
,,,,,,,,,,,,,,,,,,,,,,,,0,-1158,Valid,signal,45,1,0.8714688000036404,1,4.0,2.1792845000018133,True,1,20,A,2023-09-16_10h20.57.725,exp3,2022.2.2,
,,,,,,,,,,,,,,,,,,,,,,,,0,-557,Valid,noise,-45,2,1.7392606000066735,1,3.0,3.046751599991694,True,1,20,A,2023-09-16_10h20.57.725,exp3,2022.2.2,
,,,,,,,,,,,,,,,,,,,,,,,,0,1716,Valid,noise,-45,2,1.737196000001859,1,2.0,3.045185800001491,True,1,20,A,2023-09-16_10h20.57.725,exp3,2022.2.2,
,,,,,,,,,,,,,,,,,,,,,,,,0,557,Valid,signal,-45,1,1.3556375000043772,1,3.0,2.663352699993993,True,1,20,A,2023-09-16_10h20.57.725,exp3,2022.2.2,
,,,,,,,,,,,,,,,,,,,,,,,,0,1716,Valid,signal,-45,1,1.0048486000014236,1,3.0,2.312546300003305,True,1,20,A,2023-09-16_10h20.57.725,exp3,2022.2.2,
,,,,,,,,,,,,,,,,,,,,,,,,0,1716,Invalid,signal,-45,1,1.505393899991759,1,3.0,2.812936599992099,True,1,20,A,2023-09-16_10h20.57.725,exp3,2022.2.2,
,,,,,,,,,,,,,,,,,,,,,,,,0,-557,Valid,noise,-45,2,1.7213717000122415,1,1.0,3.0291755000071134,True,1,20,A,2023-09-16_10h20.57.725,exp3,2022.2.2,
,,,,,,,,,,,,,,,,,,,,,,,,0,1716,Valid,noise,-45,2,2.272028400009731,1,2.0,3.57982539999648,True,1,20,A,2023-09-16_10h20.57.725,exp3,2022.2.2,
,,,,,,,,,,,,,,,,,,,,,,,,0,-1716,Valid,noise,45,1,1.287892299995292,0,2.0,2.5958577999990666,True,1,20,A,2023-09-16_10h20.57.725,exp3,2022.2.2,
,,,,,,,,,,,,,,,,,,,,,,,,0,557,Valid,noise,45,2,2.0888909999921452,1,3.0,3.3966660000005504,True,1,20,A,2023-09-16_10h20.57.725,exp3,2022.2.2,
,,,,,,,,,,,,,,,,,,,,,,,,0,2274,Valid,noise,45,2,1.3719623000069987,1,3.0,2.6794378999911714,True,1,20,A,2023-09-16_10h20.57.725,exp3,2022.2.2,
,,,,,,,,,,,,,,,,,,,,,,,,0,2274,Valid,signal,-45,2,3.054875500005437,0,2.0,4.362732599998708,True,1,20,A,2023-09-16_10h20.57.725,exp3,2022.2.2,
,,,,,,,,,,,,,,,,,,,,,,,,0,-557,Valid,noise,-45,2,1.1220880000037141,1,2.0,2.4300095999933546,True,1,20,A,2023-09-16_10h20.57.725,exp3,2022.2.2,
,,,,,,,,,,,,,,,,,,,,,,,,0,1716,Valid,noise,-45,2,1.6529137000034098,1,2.0,5.21322710000095,True,2,20,A,2023-09-16_10h20.57.725,exp3,2022.2.2,
,,,,,,,,,,,,,,,,,,,,,,,,0,1158,Valid,signal,45,1,1.188325299997814,1,3.0,2.4961979999934556,True,1,20,A,2023-09-16_10h20.57.725,exp3,2022.2.2,
,,,,,,,,,,,,,,,,,,,,,,,,0,1716,Valid,noise,-45,1,2.3548998000042047,0,3.0,3.6630660999944666,True,1,20,A,2023-09-16_10h20.57.725,exp3,2022.2.2,
,,,,,,,,,,,,,,,,,,,,,,,,0,1158,Valid,noise,-45,2,1.0384984999982407,1,2.0,2.3462482999893837,True,1,20,A,2023-09-16_10h20.57.725,exp3,2022.2.2,
,,,,,,,,,,,,,,,,,,,,,,,,0,1158,Valid,signal,45,1,0.8549516999919433,1,3.0,2.162779000005685,True,1,20,A,2023-09-16_10h20.57.725,exp3,2022.2.2,
,,,,,,,,,,,,,,,,,,,,,,,,0,-1716,Valid,signal,-45,1,0.8714382000034675,1,3.0,2.179088299992145,True,1,20,A,2023-09-16_10h20.57.725,exp3,2022.2.2,
,,,,,,,,,,,,,,,,,,,,,,,,0,2274,Invalid,noise,45,2,4.272240899997996,1,2.0,5.580103400003281,True,1,20,A,2023-09-16_10h20.57.725,exp3,2022.2.2,
,,,,,,,,,,,,,,,,,,,,,,,,0,1158,Valid,signal,45,1,1.705185500002699,1,4.0,3.0130912000022363,True,1,20,A,2023-09-16_10h20.57.725,exp3,2022.2.2,
,,,,,,,,,,,,,,,,,,,,,,,,0,-1158,Valid,signal,-45,1,1.5546912999998312,1,4.0,2.862585599999875,True,1,20,A,2023-09-16_10h20.57.725,exp3,2022.2.2,
,,,,,,,,,,,,,,,,,,,,,,,,0,557,Valid,noise,45,2,1.3212280000007013,1,4.0,2.6291070000006584,True,1,20,A,2023-09-16_10h20.57.725,exp3,2022.2.2,
,,,,,,,,,,,,,,,,,,,,,,,,0,1158,Invalid,signal,45,2,1.7385898000065936,0,2.0,3.0464886000117986,True,1,20,A,2023-09-16_10h20.57.725,exp3,2022.2.2,
,,,,,,,,,,,,,,,,,,,,,,,,0,1716,Valid,signal,45,1,1.0047150000027614,1,4.0,2.3126952000020538,True,1,20,A,2023-09-16_10h20.57.725,exp3,2022.2.2,
,,,,,,,,,,,,,,,,,,,,,,,,0,1158,Valid,signal,45,1,1.1052799000026425,1,4.0,2.4129631999967387,True,1,20,A,2023-09-16_10h20.57.725,exp3,2022.2.2,
,,,,,,,,,,,,,,,,,,,,,,,,0,-1158,Valid,signal,-45,1,1.0871667000028538,1,4.0,2.395547500011162,True,1,20,A,2023-09-16_10h20.57.725,exp3,2022.2.2,
,,,,,,,,,,,,,,,,,,,,,,,,0,1158,Valid,noise,-45,1,1.8393416999897454,0,3.0,3.1469649000064237,True,1,20,A,2023-09-16_10h20.57.725,exp3,2022.2.2,
,,,,,,,,,,,,,,,,,,,,,,,,0,-1158,Invalid,noise,-45,2,1.354329299996607,1,3.0,2.662151199998334,True,1,20,A,2023-09-16_10h20.57.725,exp3,2022.2.2,
,,,,,,,,,,,,,,,,,,,,,,,,0,2274,Invalid,signal,45,2,2.689441500013345,0,1.0,3.9969956999993883,True,1,20,A,2023-09-16_10h20.57.725,exp3,2022.2.2,
,,,,,,,,,,,,,,,,,,,,,,,,0,-557,Valid,noise,-45,2,1.2384864000050584,1,1.0,2.5462790000019595,True,1,20,A,2023-09-16_10h20.57.725,exp3,2022.2.2,
,,,,,,,,,,,,,,,,,,,,,,,,0,-1716,Valid,signal,-45,1,1.3375645000051009,1,2.0,2.6454602999874623,True,1,20,A,2023-09-16_10h20.57.725,exp3,2022.2.2,
,,,,,,,,,,,,,,,,,,,,,,,,0,1158,Valid,noise,-45,2,0.9550237999937963,1,2.0,2.2625799999950686,True,1,20,A,2023-09-16_10h20.57.725,exp3,2022.2.2,
,,,,,,,,,,,,,,,,,,,,,,,,0,-2274,Valid,noise,-45,2,2.895859799988102,1,3.0,6.280684100012877,True,2,20,A,2023-09-16_10h20.57.725,exp3,2022.2.2,
,,,,,,,,,,,,,,,,,,,,,,,,0,-2274,Invalid,signal,-45,2,1.871168800003943,0,2.0,3.1790909999981523,True,1,20,A,2023-09-16_10h20.57.725,exp3,2022.2.2,
,,,,,,,,,,,,,,,,,,,,,,,,0,-557,Invalid,noise,45,2,2.1387599000008777,1,1.0,3.446707900002366,True,1,20,A,2023-09-16_10h20.57.725,exp3,2022.2.2,
,,,,,,,,,,,,,,,,,,,,,,,,0,-1716,Valid,noise,-45,2,2.5718990999885136,1,2.0,3.879855699997279,True,1,20,A,2023-09-16_10h20.57.725,exp3,2022.2.2,
,,,,,,,,,,,,,,,,,,,,,,,,0,-2274,Valid,signal,45,2,1.08840130000317,0,2.0,2.396118700009538,True,1,20,A,2023-09-16_10h20.57.725,exp3,2022.2.2,
,,,,,,,,,,,,,,,,,,,,,,,,0,-557,Valid,signal,45,2,1.825061999988975,0,2.0,5.096652799998992,True,2,20,A,2023-09-16_10h20.57.725,exp3,2022.2.2,
,,,,,,,,,,,,,,,,,,,,,,,,0,-1716,Valid,signal,-45,1,1.8553071999922395,1,3.0,3.1633211000007577,True,1,20,A,2023-09-16_10h20.57.725,exp3,2022.2.2,
,,,,,,,,,,,,,,,,,,,,,,,,0,557,Valid,noise,45,2,1.3379328000009991,1,2.0,2.645744699999341,True,1,20,A,2023-09-16_10h20.57.725,exp3,2022.2.2,
,,,,,,,,,,,,,,,,,,,,,,,,0,1158,Valid,signal,-45,1,0.9884818000136875,1,3.0,2.2962857999955304,True,1,20,A,2023-09-16_10h20.57.725,exp3,2022.2.2,
,,,,,,,,,,,,,,,,,,,,,,,,0,1716,Valid,signal,45,1,1.104368300002534,1,4.0,2.4124339999980293,True,1,20,A,2023-09-16_10h20.57.725,exp3,2022.2.2,
,,,,,,,,,,,,,,,,,,,,,,,,0,-1158,Valid,signal,-45,1,1.0217088999925181,1,3.0,2.3293568000080995,True,1,20,A,2023-09-16_10h20.57.725,exp3,2022.2.2,
,,,,,,,,,,,,,,,,,,,,,,,,1,-1158,Valid,noise,45,2,3.865437499989639,1,1.0,52.245455999989645,True,17,20,A,2023-09-16_10h20.57.725,exp3,2022.2.2,
,,,,,,,,,,,,,,,,,,,,,,,,2,2274,Valid,noise,-45,2,1.3206802000058815,1,2.0,2.6289473999931943,True,1,20,A,2023-09-16_10h20.57.725,exp3,2022.2.2,
,,,,,,,,,,,,,,,,,,,,,,,,3,-1158,Valid,noise,-45,2,1.3580691000097431,1,2.0,4.564217499995721,True,2,20,A,2023-09-16_10h20.57.725,exp3,2022.2.2,
,,,,,,,,,,,,,,,,,,,,,,,,4,-2274,Valid,noise,45,1,2.0707283999945503,0,2.0,3.3791794999997364,True,1,20,A,2023-09-16_10h20.57.725,exp3,2022.2.2,
,,,,,,,,,,,,,,,,,,,,,,,,5,1158,Invalid,signal,-45,1,1.6211489999986952,1,3.0,2.9291628999926616,True,1,20,A,2023-09-16_10h20.57.725,exp3,2022.2.2,
,,,,,,,,,,,,,,,,,,,,,,,,6,-1716,Valid,signal,-45,1,0.9044084000051953,1,3.0,2.2127285999886226,True,1,20,A,2023-09-16_10h20.57.725,exp3,2022.2.2,
,,,,,,,,,,,,,,,,,,,,,,,,7,-1158,Valid,noise,45,2,2.605407600000035,1,1.0,3.913363700004993,True,1,20,A,2023-09-16_10h20.57.725,exp3,2022.2.2,
,,,,,,,,,,,,,,,,,,,,,,,,8,557,Valid,signal,45,2,2.872313599989866,0,4.0,4.180364100000588,True,1,20,A,2023-09-16_10h20.57.725,exp3,2022.2.2,
,,,,,,,,,,,,,,,,,,,,,,,,9,1158,Valid,signal,45,1,1.5041294999973616,1,4.0,2.8124015999928815,True,1,20,A,2023-09-16_10h20.57.725,exp3,2022.2.2,
,,,,,,,,,,,,,,,,,,,,,,,,10,2274,Valid,signal,45,1,2.842183400003705,1,4.0,6.364037899998948,True,2,20,A,2023-09-16_10h20.57.725,exp3,2022.2.2,
,,,,,,,,,,,,,,,,,,,,,,,,11,557,Invalid,signal,-45,1,1.487941300001694,1,4.0,2.7961413000011817,True,1,20,A,2023-09-16_10h20.57.725,exp3,2022.2.2,
,,,,,,,,,,,,,,,,,,,,,,,,12,2274,Invalid,signal,45,2,9.407663799996953,0,1.0,10.7159030999901,True,1,20,A,2023-09-16_10h20.57.725,exp3,2022.2.2,
,,,,,,,,,,,,,,,,,,,,,,,,13,-2274,Valid,noise,-45,2,1.8218407000094885,1,2.0,3.130035599999246,True,1,20,A,2023-09-16_10h20.57.725,exp3,2022.2.2,
,,,,,,,,,,,,,,,,,,,,,,,,14,-2274,Invalid,signal,-45,2,2.204878699994879,0,3.0,3.5129020999884233,True,1,20,A,2023-09-16_10h20.57.725,exp3,2022.2.2,
,,,,,,,,,,,,,,,,,,,,,,,,15,1716,Valid,signal,45,1,0.9204371999949217,1,4.0,2.2286422999895876,True,1,20,A,2023-09-16_10h20.57.725,exp3,2022.2.2,
,,,,,,,,,,,,,,,,,,,,,,,,16,-1158,Invalid,signal,-45,1,0.9879883999965386,1,4.0,2.2960119000053965,True,1,20,A,2023-09-16_10h20.57.725,exp3,2022.2.2,
,,,,,,,,,,,,,,,,,,,,,,,,17,2274,Invalid,noise,-45,2,2.35445690000779,1,2.0,3.6626023999997415,True,1,20,A,2023-09-16_10h20.57.725,exp3,2022.2.2,
,,,,,,,,,,,,,,,,,,,,,,,,18,1716,Valid,noise,45,2,1.4208870000002207,1,3.0,2.7291861999983666,True,1,20,A,2023-09-16_10h20.57.725,exp3,2022.2.2,
,,,,,,,,,,,,,,,,,,,,,,,,19,-1158,Valid,noise,45,2,2.621864700005972,1,2.0,3.930173399989144,True,1,20,A,2023-09-16_10h20.57.725,exp3,2022.2.2,
,,,,,,,,,,,,,,,,,,,,,,,,20,-1158,Valid,signal,45,1,1.3719545000058133,1,4.0,2.679860899996129,True,1,20,A,2023-09-16_10h20.57.725,exp3,2022.2.2,
,,,,,,,,,,,,,,,,,,,,,,,,21,-2274,Valid,signal,-45,1,1.753682700000354,1,3.0,5.129707700005383,True,2,20,A,2023-09-16_10h20.57.725,exp3,2022.2.2,
,,,,,,,,,,,,,,,,,,,,,,,,22,1716,Valid,signal,-45,1,1.6201181000069482,1,3.0,5.197535999992397,True,2,20,A,2023-09-16_10h20.57.725,exp3,2022.2.2,
,,,,,,,,,,,,,,,,,,,,,,,,23,-557,Invalid,noise,-45,2,1.170489500000258,1,3.0,2.478664700000081,True,1,20,A,2023-09-16_10h20.57.725,exp3,2022.2.2,
,,,,,,,,,,,,,,,,,,,,,,,,24,2274,Valid,noise,45,1,1.77228560000367,0,2.0,3.0801253000099678,True,1,20,A,2023-09-16_10h20.57.725,exp3,2022.2.2,
,,,,,,,,,,,,,,,,,,,,,,,,25,-557,Invalid,noise,45,2,1.7126688999996986,1,2.0,5.596735099999933,True,2,20,A,2023-09-16_10h20.57.725,exp3,2022.2.2,
,,,,,,,,,,,,,,,,,,,,,,,,26,-2274,Valid,noise,45,1,1.1373200999951223,0,3.0,2.445598100006464,True,1,20,A,2023-09-16_10h20.57.725,exp3,2022.2.2,
,,,,,,,,,,,,,,,,,,,,,,,,27,2274,Valid,signal,45,1,1.8382166999945184,1,3.0,3.146380999998655,True,1,20,A,2023-09-16_10h20.57.725,exp3,2022.2.2,
,,,,,,,,,,,,,,,,,,,,,,,,28,-2274,Valid,signal,45,1,1.9544864000054076,1,2.0,3.2626759999984642,True,1,20,A,2023-09-16_10h20.57.725,exp3,2022.2.2,
,,,,,,,,,,,,,,,,,,,,,,,,29,1716,Invalid,signal,45,1,1.0377650000009453,1,3.0,2.3460074000031454,True,1,20,A,2023-09-16_10h20.57.725,exp3,2022.2.2,
,,,,,,,,,,,,,,,,,,,,,,,,30,-2274,Valid,signal,45,1,1.0884098000096856,1,3.0,7.547751600010088,True,3,20,A,2023-09-16_10h20.57.725,exp3,2022.2.2,
,,,,,,,,,,,,,,,,,,,,,,,,31,-1716,Valid,signal,-45,1,0.9383293999999296,1,3.0,2.2463315000059083,True,1,20,A,2023-09-16_10h20.57.725,exp3,2022.2.2,
,,,,,,,,,,,,,,,,,,,,,,,,32,-557,Valid,noise,-45,2,1.503731400007382,1,1.0,2.812112400002661,True,1,20,A,2023-09-16_10h20.57.725,exp3,2022.2.2,
,,,,,,,,,,,,,,,,,,,,,,,,33,2274,Valid,signal,45,2,1.9220226000034017,0,2.0,3.229899199999636,True,1,20,A,2023-09-16_10h20.57.725,exp3,2022.2.2,
,,,,,,,,,,,,,,,,,,,,,,,,34,2274,Valid,noise,45,2,1.1213321999966865,1,3.0,2.4292850000056205,True,1,20,A,2023-09-16_10h20.57.725,exp3,2022.2.2,
,,,,,,,,,,,,,,,,,,,,,,,,35,2274,Valid,noise,45,2,1.554992699995637,1,2.0,2.863149999990128,True,1,20,A,2023-09-16_10h20.57.725,exp3,2022.2.2,
,,,,,,,,,,,,,,,,,,,,,,,,36,-557,Valid,signal,45,1,1.5375973000045633,1,4.0,2.8458440999966115,True,1,20,A,2023-09-16_10h20.57.725,exp3,2022.2.2,
,,,,,,,,,,,,,,,,,,,,,,,,37,557,Valid,noise,45,2,1.3706406999990577,1,2.0,2.678859800013015,True,1,20,A,2023-09-16_10h20.57.725,exp3,2022.2.2,
,,,,,,,,,,,,,,,,,,,,,,,,38,557,Valid,noise,-45,2,0.8044234000117285,1,3.0,2.1127161999902455,True,1,20,A,2023-09-16_10h20.57.725,exp3,2022.2.2,
,,,,,,,,,,,,,,,,,,,,,,,,39,-1158,Valid,noise,45,2,0.9379560999950627,1,3.0,2.246189700003015,True,1,20,A,2023-09-16_10h20.57.725,exp3,2022.2.2,
,,,,,,,,,,,,,,,,,,,,,,,,40,2274,Valid,signal,-45,1,1.7046193999995012,1,4.0,3.012800500000594,True,1,20,A,2023-09-16_10h20.57.725,exp3,2022.2.2,
,,,,,,,,,,,,,,,,,,,,,,,,41,1158,Valid,noise,-45,2,1.0041982999973698,1,3.0,2.3123419000039576,True,1,20,A,2023-09-16_10h20.57.725,exp3,2022.2.2,
,,,,,,,,,,,,,,,,,,,,,,,,42,1158,Valid,signal,-45,1,0.7376461000094423,1,4.0,2.045813899996574,True,1,20,A,2023-09-16_10h20.57.725,exp3,2022.2.2,
,,,,,,,,,,,,,,,,,,,,,,,,43,-2274,Valid,noise,-45,1,1.4374734000011813,0,2.0,2.745583500000066,True,1,20,A,2023-09-16_10h20.57.725,exp3,2022.2.2,
,,,,,,,,,,,,,,,,,,,,,,,,44,-2274,Invalid,noise,45,2,2.0881890000018757,1,2.0,3.3964662000071257,True,1,20,A,2023-09-16_10h20.57.725,exp3,2022.2.2,
,,,,,,,,,,,,,,,,,,,,,,,,45,557,Valid,noise,45,2,1.1881821999995736,1,3.0,2.4963197999895783,True,1,20,A,2023-09-16_10h20.57.725,exp3,2022.2.2,
,,,,,,,,,,,,,,,,,,,,,,,,46,-1716,Invalid,noise,-45,2,2.4881586999981664,1,2.0,3.796384900007979,True,1,20,A,2023-09-16_10h20.57.725,exp3,2022.2.2,
,,,,,,,,,,,,,,,,,,,,,,,,47,-1158,Valid,signal,-45,1,0.737614500001655,1,3.0,2.0457267000019783,True,1,20,A,2023-09-16_10h20.57.725,exp3,2022.2.2,
,,,,,,,,,,,,,,,,,,,,,,,,48,1716,Valid,noise,-45,2,1.338161300009233,1,2.0,2.646299700005329,True,1,20,A,2023-09-16_10h20.57.725,exp3,2022.2.2,
,,,,,,,,,,,,,,,,,,,,,,,,49,2274,Valid,signal,-45,1,1.4210324000014225,1,4.0,2.7290214000095148,True,1,20,A,2023-09-16_10h20.57.725,exp3,2022.2.2,
,,,,,,,,,,,,,,,,,,,,,,,,50,-1716,Invalid,noise,45,2,2.571085400006268,1,2.0,3.879425100007211,True,1,20,A,2023-09-16_10h20.57.725,exp3,2022.2.2,
,,,,,,,,,,,,,,,,,,,,,,,,51,-557,Valid,signal,45,1,1.0810169000033056,1,4.0,4.180301100001088,True,2,20,A,2023-09-16_10h20.57.725,exp3,2022.2.2,
,,,,,,,,,,,,,,,,,,,,,,,,52,557,Invalid,noise,-45,2,1.0377328000031412,1,3.0,2.346123199997237,True,1,20,A,2023-09-16_10h20.57.725,exp3,2022.2.2,
,,,,,,,,,,,,,,,,,,,,,,,,53,2274,Valid,noise,-45,2,1.453817200002959,1,4.0,2.7623325000022305,True,1,20,A,2023-09-16_10h20.57.725,exp3,2022.2.2,
,,,,,,,,,,,,,,,,,,,,,,,,54,1158,Valid,noise,45,2,1.1544498000002932,1,3.0,2.4627306000038516,True,1,20,A,2023-09-16_10h20.57.725,exp3,2022.2.2,
,,,,,,,,,,,,,,,,,,,,,,,,55,1716,Valid,noise,45,2,0.9562961000046926,1,3.0,6.347779800009448,True,3,20,A,2023-09-16_10h20.57.725,exp3,2022.2.2,
,,,,,,,,,,,,,,,,,,,,,,,,56,-1158,Valid,noise,45,2,1.1878660999936983,1,3.0,2.495849200000521,True,1,20,A,2023-09-16_10h20.57.725,exp3,2022.2.2,
,,,,,,,,,,,,,,,,,,,,,,,,57,-1158,Valid,signal,-45,1,1.437552900009905,1,2.0,2.745579300011741,True,1,20,A,2023-09-16_10h20.57.725,exp3,2022.2.2,
,,,,,,,,,,,,,,,,,,,,,,,,58,1158,Invalid,noise,-45,1,1.1079848999943351,0,3.0,4.213112400000682,True,2,20,A,2023-09-16_10h20.57.725,exp3,2022.2.2,
,,,,,,,,,,,,,,,,,,,,,,,,59,-557,Valid,noise,45,2,1.471334800007753,1,2.0,2.7795799000014085,True,1,20,A,2023-09-16_10h20.57.725,exp3,2022.2.2,
,,,,,,,,,,,,,,,,,,,,,,,,60,-557,Valid,noise,-45,2,1.4777234999928623,1,4.0,4.7635613000020385,True,2,20,A,2023-09-16_10h20.57.725,exp3,2022.2.2,
,,,,,,,,,,,,,,,,,,,,,,,,61,-1716,Valid,noise,45,2,3.1721125000040047,1,1.0,4.4803644999919925,True,1,20,A,2023-09-16_10h20.57.725,exp3,2022.2.2,
,,,,,,,,,,,,,,,,,,,,,,,,62,557,Valid,signal,-45,1,0.7427908999961801,1,3.0,4.663174299988896,True,2,20,A,2023-09-16_10h20.57.725,exp3,2022.2.2,
,,,,,,,,,,,,,,,,,,,,,,,,63,-557,Invalid,signal,-45,1,0.971543899999233,1,3.0,2.279765799990855,True,1,20,A,2023-09-16_10h20.57.725,exp3,2022.2.2,
,,,,,,,,,,,,,,,,,,,,,,,,64,-1716,Valid,signal,-45,1,0.7709033999999519,1,4.0,2.0791518000041833,True,1,20,A,2023-09-16_10h20.57.725,exp3,2022.2.2,
,,,,,,,,,,,,,,,,,,,,,,,,65,557,Valid,signal,45,1,1.0043495999998413,1,4.0,2.312583100007032,True,1,20,A,2023-09-16_10h20.57.725,exp3,2022.2.2,
,,,,,,,,,,,,,,,,,,,,,,,,66,-1716,Valid,noise,45,1,1.5879461000004085,0,2.0,2.896215500004473,True,1,20,A,2023-09-16_10h20.57.725,exp3,2022.2.2,
,,,,,,,,,,,,,,,,,,,,,,,,67,1158,Valid,noise,45,1,1.1545309000066482,0,3.0,2.462686600003508,True,1,20,A,2023-09-16_10h20.57.725,exp3,2022.2.2,
,,,,,,,,,,,,,,,,,,,,,,,,68,557,Valid,signal,45,1,0.8374910999991698,1,3.0,2.1455084000044735,True,1,20,A,2023-09-16_10h20.57.725,exp3,2022.2.2,
,,,,,,,,,,,,,,,,,,,,,,,,69,1158,Valid,noise,45,2,1.221308100008173,1,3.0,2.529711800001678,True,1,20,A,2023-09-16_10h20.57.725,exp3,2022.2.2,
,,,,,,,,,,,,,,,,,,,,,,,,70,1158,Valid,signal,-45,1,1.0048621000023559,1,4.0,2.312931499996921,True,1,20,A,2023-09-16_10h20.57.725,exp3,2022.2.2,
,,,,,,,,,,,,,,,,,,,,,,,,71,-1716,Valid,noise,45,2,2.188320700006443,1,3.0,3.4962527999887243,True,1,20,A,2023-09-16_10h20.57.725,exp3,2022.2.2,
,,,,,,,,,,,,,,,,,,,,,,,,72,1716,Valid,signal,45,1,1.5782852999982424,1,4.0,8.69792380000581,True,4,20,A,2023-09-16_10h20.57.725,exp3,2022.2.2,
,,,,,,,,,,,,,,,,,,,,,,,,73,-2274,Invalid,noise,-45,2,2.0720556000014767,1,3.0,3.3801740999915637,True,1,20,A,2023-09-16_10h20.57.725,exp3,2022.2.2,
,,,,,,,,,,,,,,,,,,,,,,,,74,557,Invalid,signal,45,2,2.9876633000094444,0,1.0,4.296063799993135,True,1,20,A,2023-09-16_10h20.57.725,exp3,2022.2.2,
,,,,,,,,,,,,,,,,,,,,,,,,75,1716,Invalid,noise,45,2,2.251027999998769,1,3.0,8.732264500009478,True,3,20,A,2023-09-16_10h20.57.725,exp3,2022.2.2,
,,,,,,,,,,,,,,,,,,,,,,,,76,1158,Valid,signal,45,1,0.803401400000439,1,4.0,2.111695300001884,True,1,20,A,2023-09-16_10h20.57.725,exp3,2022.2.2,
,,,,,,,,,,,,,,,,,,,,,,,,77,2274,Invalid,noise,-45,2,1.454945300007239,1,2.0,2.7631440999975894,True,1,20,A,2023-09-16_10h20.57.725,exp3,2022.2.2,
,,,,,,,,,,,,,,,,,,,,,,,,78,557,Valid,signal,-45,1,1.0380306000006385,1,3.0,2.3462131999986013,True,1,20,A,2023-09-16_10h20.57.725,exp3,2022.2.2,
,,,,,,,,,,,,,,,,,,,,,,,,79,2274,Valid,noise,-45,2,1.45441090001259,1,1.0,2.7625823999987915,True,1,20,A,2023-09-16_10h20.57.725,exp3,2022.2.2,
,,,,,,,,,,,,,,,,,,,,,,,,80,-2274,Valid,signal,-45,1,1.4880554999981541,1,2.0,2.7961529000021983,True,1,20,A,2023-09-16_10h20.57.725,exp3,2022.2.2,
,,,,,,,,,,,,,,,,,,,,,,,,81,-2274,Valid,noise,45,2,1.2700614000059431,1,3.0,2.5783794000017224,True,1,20,A,2023-09-16_10h20.57.725,exp3,2022.2.2,
,,,,,,,,,,,,,,,,,,,,,,,,82,1716,Valid,noise,45,2,1.5719406000134768,1,2.0,2.8799799000116764,True,1,20,A,2023-09-16_10h20.57.725,exp3,2022.2.2,
,,,,,,,,,,,,,,,,,,,,,,,,83,557,Valid,noise,-45,2,0.7545185000053607,1,2.0,2.062659800008987,True,1,20,A,2023-09-16_10h20.57.725,exp3,2022.2.2,
,,,,,,,,,,,,,,,,,,,,,,,,84,1158,Invalid,noise,-45,2,2.1382325000013225,1,1.0,3.4461498000018764,True,1,20,A,2023-09-16_10h20.57.725,exp3,2022.2.2,
,,,,,,,,,,,,,,,,,,,,,,,,85,-557,Valid,noise,45,2,1.4168270000081975,1,4.0,4.612897500002873,True,2,20,A,2023-09-16_10h20.57.725,exp3,2022.2.2,
,,,,,,,,,,,,,,,,,,,,,,,,86,-1716,Valid,noise,-45,2,1.8149180000036722,1,3.0,4.8803853999997955,True,2,20,A,2023-09-16_10h20.57.725,exp3,2022.2.2,
,,,,,,,,,,,,,,,,,,,,,,,,87,-557,Valid,signal,45,2,1.0380573000002187,0,3.0,2.3462334999931045,True,1,20,A,2023-09-16_10h20.57.725,exp3,2022.2.2,
,,,,,,,,,,,,,,,,,,,,,,,,88,1716,Invalid,signal,45,1,0.9536866999987978,1,4.0,2.262078300002031,True,1,20,A,2023-09-16_10h20.57.725,exp3,2022.2.2,
,,,,,,,,,,,,,,,,,,,,,,,,89,1716,Valid,signal,-45,1,0.871390699991025,1,4.0,2.1794415999902412,True,1,20,A,2023-09-16_10h20.57.725,exp3,2022.2.2,
,,,,,,,,,,,,,,,,,,,,,,,,90,-1716,Valid,noise,-45,2,1.1214008000097238,1,3.0,2.4294361999927787,True,1,20,A,2023-09-16_10h20.57.725,exp3,2022.2.2,
,,,,,,,,,,,,,,,,,,,,,,,,91,1158,Valid,signal,-45,1,0.7540547000098741,1,4.0,2.0620749999943655,True,1,20,A,2023-09-16_10h20.57.725,exp3,2022.2.2,
,,,,,,,,,,,,,,,,,,,,,,,,92,1716,Valid,signal,-45,1,0.8548823000019183,1,4.0,2.1628306999919005,True,1,20,A,2023-09-16_10h20.57.725,exp3,2022.2.2,
,,,,,,,,,,,,,,,,,,,,,,,,93,2274,Valid,noise,45,1,1.8710300000093412,0,2.0,3.179053500003647,True,1,20,A,2023-09-16_10h20.57.725,exp3,2022.2.2,
,,,,,,,,,,,,,,,,,,,,,,,,94,1158,Valid,noise,-45,1,1.588191300004837,0,2.0,2.896111399997608,True,1,20,A,2023-09-16_10h20.57.725,exp3,2022.2.2,
,,,,,,,,,,,,,,,,,,,,,,,,95,1158,Valid,noise,45,2,1.0038788999954704,1,3.0,2.312076899994281,True,1,20,A,2023-09-16_10h20.57.725,exp3,2022.2.2,
,,,,,,,,,,,,,,,,,,,,,,,,96,1158,Valid,noise,-45,2,0.720891600009054,1,3.0,2.0291402000002563,True,1,20,A,2023-09-16_10h20.57.725,exp3,2022.2.2,
,,,,,,,,,,,,,,,,,,,,,,,,97,1716,Valid,noise,-45,2,0.7715549999993527,1,3.0,2.079385100005311,True,1,20,A,2023-09-16_10h20.57.725,exp3,2022.2.2,
,,,,,,,,,,,,,,,,,,,,,,,,98,1716,Valid,signal,45,1,1.5711900000023888,1,4.0,2.8791888000123436,True,1,20,A,2023-09-16_10h20.57.725,exp3,2022.2.2,
,,,,,,,,,,,,,,,,,,,,,,,,99,-1716,Valid,signal,45,1,1.3051259000058053,1,2.0,2.613098000001628,True,1,20,A,2023-09-16_10h20.57.725,exp3,2022.2.2,
,,,,,,,,,,,,,,,,,,,,,,,,100,-2274,Valid,signal,-45,2,2.320783399991342,0,2.0,3.6291404000076,True,1,20,A,2023-09-16_10h20.57.725,exp3,2022.2.2,
,,,,,,,,,,,,,,,,,,,,,,,,101,2274,Valid,signal,45,1,1.1704511999996612,1,4.0,4.863553100003628,True,2,20,A,2023-09-16_10h20.57.725,exp3,2022.2.2,
,,,,,,,,,,,,,,,,,,,,,,,,102,1158,Valid,signal,45,1,1.0721291999943787,1,3.0,2.3800999999948544,True,1,20,A,2023-09-16_10h20.57.725,exp3,2022.2.2,
,,,,,,,,,,,,,,,,,,,,,,,,103,-557,Valid,signal,45,2,1.220737800002098,0,3.0,2.5288396999967517,True,1,20,A,2023-09-16_10h20.57.725,exp3,2022.2.2,
,,,,,,,,,,,,,,,,,,,,,,,,104,-1158,Valid,noise,-45,2,1.4543533999967622,1,3.0,2.7625722999946447,True,1,20,A,2023-09-16_10h20.57.725,exp3,2022.2.2,
,,,,,,,,,,,,,,,,,,,,,,,,105,-2274,Valid,signal,45,2,7.340439500010689,0,1.0,8.648797900008503,True,1,20,A,2023-09-16_10h20.57.725,exp3,2022.2.2,
,,,,,,,,,,,,,,,,,,,,,,,,106,-557,Valid,signal,45,1,1.0205514999979641,1,3.0,2.3286779999907594,True,1,20,A,2023-09-16_10h20.57.725,exp3,2022.2.2,
,,,,,,,,,,,,,,,,,,,,,,,,107,1716,Valid,signal,-45,1,1.1209401999949478,1,3.0,2.429204000000027,True,1,20,A,2023-09-16_10h20.57.725,exp3,2022.2.2,
,,,,,,,,,,,,,,,,,,,,,,,,108,-2274,Valid,signal,-45,1,1.7103528000006918,1,4.0,7.464120899996487,True,3,20,A,2023-09-16_10h20.57.725,exp3,2022.2.2,
,,,,,,,,,,,,,,,,,,,,,,,,109,2274,Valid,signal,-45,1,1.9215242999925977,1,2.0,3.229944099992281,True,1,20,A,2023-09-16_10h20.57.725,exp3,2022.2.2,
,,,,,,,,,,,,,,,,,,,,,,,,110,-1158,Invalid,noise,45,2,1.420740699992166,1,2.0,2.7291188999952283,True,1,20,A,2023-09-16_10h20.57.725,exp3,2022.2.2,
,,,,,,,,,,,,,,,,,,,,,,,,111,-1716,Valid,noise,45,1,2.189029400004074,0,2.0,3.497025999997277,True,1,20,A,2023-09-16_10h20.57.725,exp3,2022.2.2,
,,,,,,,,,,,,,,,,,,,,,,,,112,-557,Valid,signal,45,1,0.9036693000089144,1,3.0,2.2121136999921873,True,1,20,A,2023-09-16_10h20.57.725,exp3,2022.2.2,
,,,,,,,,,,,,,,,,,,,,,,,,113,-557,Valid,signal,45,1,0.9211603000003379,1,3.0,2.2293697999994038,True,1,20,A,2023-09-16_10h20.57.725,exp3,2022.2.2,
,,,,,,,,,,,,,,,,,,,,,,,,114,-2274,Valid,noise,45,2,1.1707958999904804,1,3.0,2.479087799991248,True,1,20,A,2023-09-16_10h20.57.725,exp3,2022.2.2,
,,,,,,,,,,,,,,,,,,,,,,,,115,557,Valid,noise,-45,2,0.7216936999902828,1,3.0,2.0296696000004886,True,1,20,A,2023-09-16_10h20.57.725,exp3,2022.2.2,
,,,,,,,,,,,,,,,,,,,,,,,,116,557,Valid,signal,45,1,0.770590899992385,1,3.0,2.0787100000015926,True,1,20,A,2023-09-16_10h20.57.725,exp3,2022.2.2,
,,,,,,,,,,,,,,,,,,,,,,,,117,1158,Valid,noise,-45,2,0.887740299993311,1,2.0,2.1958465999923646,True,1,20,A,2023-09-16_10h20.57.725,exp3,2022.2.2,
,,,,,,,,,,,,,,,,,,,,,,,,118,1716,Valid,noise,45,1,2.771725600003265,0,1.0,4.079750499993679,True,1,20,A,2023-09-16_10h20.57.725,exp3,2022.2.2,
,,,,,,,,,,,,,,,,,,,,,,,,119,-1158,Valid,signal,-45,1,1.5047569000016665,1,3.0,2.81301519999397,True,1,20,A,2023-09-16_10h20.57.725,exp3,2022.2.2,
,,,,,,,,,,,,,,,,,,,,,,,,120,-1158,Invalid,signal,-45,1,0.8044038999942131,1,3.0,2.1125046000088332,True,1,20,A,2023-09-16_10h20.57.725,exp3,2022.2.2,
,,,,,,,,,,,,,,,,,,,,,,,,121,1158,Valid,noise,45,1,1.3214654000039445,0,3.0,2.629665800006478,True,1,20,A,2023-09-16_10h20.57.725,exp3,2022.2.2,
,,,,,,,,,,,,,,,,,,,,,,,,122,-557,Valid,signal,-45,1,0.6050035000080243,1,3.0,1.9129449000029126,True,1,20,A,2023-09-16_10h20.57.725,exp3,2022.2.2,
,,,,,,,,,,,,,,,,,,,,,,,,123,-1716,Valid,signal,45,1,0.653626900006202,1,3.0,1.9620866000041133,True,1,20,A,2023-09-16_10h20.57.725,exp3,2022.2.2,
,,,,,,,,,,,,,,,,,,,,,,,,124,1716,Valid,noise,45,2,1.8787735999940196,1,3.0,9.315350899996702,True,4,20,A,2023-09-16_10h20.57.725,exp3,2022.2.2,
,,,,,,,,,,,,,,,,,,,,,,,,125,1158,Valid,signal,-45,1,0.7713954000064405,1,3.0,2.079432700003963,True,1,20,A,2023-09-16_10h20.57.725,exp3,2022.2.2,
,,,,,,,,,,,,,,,,,,,,,,,,126,-557,Valid,noise,-45,2,1.9376306000049226,1,2.0,3.245809600004577,True,1,20,A,2023-09-16_10h20.57.725,exp3,2022.2.2,
,,,,,,,,,,,,,,,,,,,,,,,,127,-1158,Valid,noise,-45,2,1.7549362999998266,1,3.0,3.0631359000108205,True,1,20,A,2023-09-16_10h20.57.725,exp3,2022.2.2,
,,,,,,,,,,,,,,,,,,,,,,,,128,-1158,Valid,signal,-45,1,2.0213187000044854,1,3.0,3.32958370000415,True,1,20,A,2023-09-16_10h20.57.725,exp3,2022.2.2,
,,,,,,,,,,,,,,,,,,,,,,,,129,-2274,Invalid,signal,-45,2,1.6908016000088537,0,3.0,7.514905400006683,True,3,20,A,2023-09-16_10h20.57.725,exp3,2022.2.2,
,,,,,,,,,,,,,,,,,,,,,,,,130,-2274,Valid,noise,-45,2,0.8877407999971183,1,3.0,2.196006500002113,True,1,20,A,2023-09-16_10h20.57.725,exp3,2022.2.2,
,,,,,,,,,,,,,,,,,,,,,,,,131,2274,Valid,signal,-45,2,0.7872793999995338,0,3.0,2.095688000001246,True,1,20,A,2023-09-16_10h20.57.725,exp3,2022.2.2,
,,,,,,,,,,,,,,,,,,,,,,,,132,-1716,Valid,signal,-45,1,1.288010399992345,1,3.0,2.5959656999912113,True,1,20,A,2023-09-16_10h20.57.725,exp3,2022.2.2,
,,,,,,,,,,,,,,,,,,,,,,,,133,-1716,Valid,noise,-45,2,1.5638604999985546,1,2.0,4.996984900004463,True,2,20,A,2023-09-16_10h20.57.725,exp3,2022.2.2,
,,,,,,,,,,,,,,,,,,,,,,,,134,557,Valid,signal,-45,1,1.1843045999994501,1,4.0,4.230133499993826,True,2,20,A,2023-09-16_10h20.57.725,exp3,2022.2.2,
,,,,,,,,,,,,,,,,,,,,,,,,135,1158,Valid,signal,-45,1,2.905327500004205,1,4.0,4.213475500000641,True,1,20,A,2023-09-16_10h20.57.725,exp3,2022.2.2,
,,,,,,,,,,,,,,,,,,,,,,,,136,-1716,Valid,signal,45,1,1.3716764999990119,1,3.0,2.6798236000031466,True,1,20,A,2023-09-16_10h20.57.725,exp3,2022.2.2,
,,,,,,,,,,,,,,,,,,,,,,,,137,-557,Valid,noise,45,2,1.137317400003667,1,3.0,2.4457423999992898,True,1,20,A,2023-09-16_10h20.57.725,exp3,2022.2.2,
,,,,,,,,,,,,,,,,,,,,,,,,138,-557,Valid,noise,45,2,0.9380265999934636,1,3.0,2.246167700010119,True,1,20,A,2023-09-16_10h20.57.725,exp3,2022.2.2,
,,,,,,,,,,,,,,,,,,,,,,,,139,2274,Invalid,signal,-45,2,2.567840499992599,0,1.0,6.180551900004502,True,2,20,A,2023-09-16_10h20.57.725,exp3,2022.2.2,
,,,,,,,,,,,,,,,,,,,,,,,,140,-557,Invalid,signal,-45,1,1.383788099992671,1,4.0,4.54706690000603,True,2,20,A,2023-09-16_10h20.57.725,exp3,2022.2.2,
,,,,,,,,,,,,,,,,,,,,,,,,141,-557,Valid,noise,-45,2,1.2876299000054132,1,3.0,2.5957579000096302,True,1,20,A,2023-09-16_10h20.57.725,exp3,2022.2.2,
,,,,,,,,,,,,,,,,,,,,,,,,142,-557,Valid,signal,45,1,2.121454199994332,1,3.0,3.429572900000494,True,1,20,A,2023-09-16_10h20.57.725,exp3,2022.2.2,
,,,,,,,,,,,,,,,,,,,,,,,,143,-1716,Valid,signal,45,1,0.7544426000094973,1,3.0,2.062609999993583,True,1,20,A,2023-09-16_10h20.57.725,exp3,2022.2.2,
,,,,,,,,,,,,,,,,,,,,,,,,144,2274,Valid,noise,-45,2,1.2707721000042511,1,2.0,2.5791872999980114,True,1,20,A,2023-09-16_10h20.57.725,exp3,2022.2.2,
,,,,,,,,,,,,,,,,,,,,,,,,145,-2274,Valid,signal,45,2,3.8893529000051785,0,1.0,5.197259499997017,True,1,20,A,2023-09-16_10h20.57.725,exp3,2022.2.2,
,,,,,,,,,,,,,,,,,,,,,,,,146,-1716,Invalid,signal,45,1,1.187612399997306,1,3.0,2.495801900004153,True,1,20,A,2023-09-16_10h20.57.725,exp3,2022.2.2,
,,,,,,,,,,,,,,,,,,,,,,,,147,-1716,Invalid,signal,45,1,0.8373707999999169,1,3.0,2.1457617999985814,True,1,20,A,2023-09-16_10h20.57.725,exp3,2022.2.2,
,,,,,,,,,,,,,,,,,,,,,,,,148,557,Invalid,noise,-45,1,2.62177129999327,0,2.0,3.929786199994851,True,1,20,A,2023-09-16_10h20.57.725,exp3,2022.2.2,
,,,,,,,,,,,,,,,,,,,,,,,,149,-2274,Valid,noise,-45,2,5.309934799995972,1,2.0,11.03287999999884,True,3,20,A,2023-09-16_10h20.57.725,exp3,2022.2.2,
,,,,,,,,,,,,,,,,,,,,,,,,150,-557,Valid,noise,45,2,1.320877999998629,1,2.0,2.6292393000039738,True,1,20,A,2023-09-16_10h20.57.725,exp3,2022.2.2,
,,,,,,,,,,,,,,,,,,,,,,,,151,-1716,Valid,noise,-45,2,1.4625513999926625,1,3.0,8.248028900008649,True,3,20,A,2023-09-16_10h20.57.725,exp3,2022.2.2,
,,,,,,,,,,,,,,,,,,,,,,,,152,557,Valid,noise,45,2,0.970610200005467,1,3.0,2.279141900013201,True,1,20,A,2023-09-16_10h20.57.725,exp3,2022.2.2,
,,,,,,,,,,,,,,,,,,,,,,,,153,-1716,Valid,noise,45,2,2.3379000999993877,1,2.0,3.646320100000594,True,1,20,A,2023-09-16_10h20.57.725,exp3,2022.2.2,
,,,,,,,,,,,,,,,,,,,,,,,,154,557,Valid,signal,45,1,0.9212229999975534,1,4.0,2.22945179999806,True,1,20,A,2023-09-16_10h20.57.725,exp3,2022.2.2,
,,,,,,,,,,,,,,,,,,,,,,,,155,1158,Valid,signal,45,1,2.388433799991617,1,4.0,3.6967361999995774,True,1,20,A,2023-09-16_10h20.57.725,exp3,2022.2.2,
,,,,,,,,,,,,,,,,,,,,,,,,156,1716,Valid,noise,45,2,1.337582799998927,1,3.0,2.6458305999985896,True,1,20,A,2023-09-16_10h20.57.725,exp3,2022.2.2,
,,,,,,,,,,,,,,,,,,,,,,,,157,-1158,Valid,signal,-45,1,0.9212820000102511,1,3.0,2.229525400005514,True,1,20,A,2023-09-16_10h20.57.725,exp3,2022.2.2,
,,,,,,,,,,,,,,,,,,,,,,,,158,1716,Valid,signal,-45,1,1.2884924999962095,1,2.0,2.596648799997638,True,1,20,A,2023-09-16_10h20.57.725,exp3,2022.2.2,
,,,,,,,,,,,,,,,,,,,,,,,,159,-2274,Valid,noise,45,2,1.5211592999985442,1,2.0,2.8293223999935435,True,1,20,A,2023-09-16_10h20.57.725,exp3,2022.2.2,
,,,,,,,,,,,,,,,,,,,,,,,,160,-1158,Valid,signal,45,1,0.8205966999958036,1,3.0,2.1289672999992035,True,1,20,A,2023-09-16_10h20.57.725,exp3,2022.2.2,
,,,,,,,,,,,,,,,,,,,,,,,,161,1158,Invalid,signal,-45,1,0.9711524000013014,1,3.0,2.2793199999869103,True,1,20,A,2023-09-16_10h20.57.725,exp3,2022.2.2,
,,,,,,,,,,,,,,,,,,,,,,,,162,-1158,Invalid,noise,-45,2,1.2378490999981295,1,2.0,2.5457944000081625,True,1,20,A,2023-09-16_10h20.57.725,exp3,2022.2.2,
,,,,,,,,,,,,,,,,,,,,,,,,163,1716,Invalid,noise,-45,2,1.4548107999871718,1,2.0,2.762980100000277,True,1,20,A,2023-09-16_10h20.57.725,exp3,2022.2.2,
,,,,,,,,,,,,,,,,,,,,,,,,164,557,Valid,noise,-45,2,0.5867252000025474,1,2.0,1.8950036000023829,True,1,20,A,2023-09-16_10h20.57.725,exp3,2022.2.2,
,,,,,,,,,,,,,,,,,,,,,,,,165,557,Valid,noise,-45,2,0.4881030999968061,1,2.0,1.7961531999899307,True,1,20,A,2023-09-16_10h20.57.725,exp3,2022.2.2,
,,,,,,,,,,,,,,,,,,,,,,,,166,-1716,Valid,signal,45,1,0.9878294999944046,1,3.0,2.295839399987017,True,1,20,A,2023-09-16_10h20.57.725,exp3,2022.2.2,
,,,,,,,,,,,,,,,,,,,,,,,,167,-1158,Valid,noise,-45,2,0.8208155000029365,1,2.0,2.1289776000048732,True,1,20,A,2023-09-16_10h20.57.725,exp3,2022.2.2,
,,,,,,,,,,,,,,,,,,,,,,,,168,1716,Valid,noise,45,2,1.1042259999958333,1,2.0,2.4124429000075907,True,1,20,A,2023-09-16_10h20.57.725,exp3,2022.2.2,
,,,,,,,,,,,,,,,,,,,,,,,,169,-2274,Valid,signal,45,1,1.666560900004697,1,3.0,5.214587700000266,True,2,20,A,2023-09-16_10h20.57.725,exp3,2022.2.2,
,,,,,,,,,,,,,,,,,,,,,,,,170,557,Valid,noise,-45,2,1.204169800010277,1,2.0,2.512359700005618,True,1,20,A,2023-09-16_10h20.57.725,exp3,2022.2.2,
,,,,,,,,,,,,,,,,,,,,,,,,171,-1158,Valid,signal,45,1,4.00495509999746,1,2.0,5.313283900002716,True,1,20,A,2023-09-16_10h20.57.725,exp3,2022.2.2,
,,,,,,,,,,,,,,,,,,,,,,,,172,557,Valid,signal,-45,1,0.6546416000055615,1,3.0,1.9627941999933682,True,1,20,A,2023-09-16_10h20.57.725,exp3,2022.2.2,
,,,,,,,,,,,,,,,,,,,,,,,,173,1716,Valid,signal,45,1,1.2172280000086175,1,3.0,4.7631838000088464,True,2,20,A,2023-09-16_10h20.57.725,exp3,2022.2.2,
,,,,,,,,,,,,,,,,,,,,,,,,174,2274,Valid,noise,45,1,5.92318250000244,0,3.0,7.231249400007073,True,1,20,A,2023-09-16_10h20.57.725,exp3,2022.2.2,
,,,,,,,,,,,,,,,,,,,,,,,,175,-1158,Valid,signal,-45,1,1.1878604000085033,1,4.0,2.4961442000058014,True,1,20,A,2023-09-16_10h20.57.725,exp3,2022.2.2,
,,,,,,,,,,,,,,,,,,,,,,,,176,2274,Valid,signal,45,1,0.9214506999996956,1,3.0,2.2294693000003463,True,1,20,A,2023-09-16_10h20.57.725,exp3,2022.2.2,
,,,,,,,,,,,,,,,,,,,,,,,,2,557,Valid,signal,-45,1,4.154762699996354,1,3.0,67.41499849999673,True,16,20,A,2023-09-16_10h20.57.725,exp3,2022.2.2,
,,,,,,,,,,,,,,,,,,,,,,,,4,-1716,Invalid,signal,45,1,1.8181629000027897,1,3.0,3.129640200000722,True,1,20,A,2023-09-16_10h20.57.725,exp3,2022.2.2,
,,,,,,,,,,,,,,,,,,,,,,,,6,1716,Invalid,signal,45,1,4.129900500003714,1,3.0,14.850705400007428,True,5,20,A,2023-09-16_10h20.57.725,exp3,2022.2.2,
,,,,,,,,,,,,,,,,,,,,,,,,8,-557,Valid,signal,-45,1,0.887396499994793,1,3.0,2.195903799991356,True,1,20,A,2023-09-16_10h20.57.725,exp3,2022.2.2,
,,,,,,,,,,,,,,,,,,,,,,,,10,1158,Valid,signal,45,1,0.4871815000078641,1,3.0,1.7957300999987638,True,1,20,A,2023-09-16_10h20.57.725,exp3,2022.2.2,
,,,,,,,,,,,,,,,,,,,,,,,,12,-2274,Valid,noise,45,1,1.72176230000332,0,2.0,3.0301117000053637,True,1,20,A,2023-09-16_10h20.57.725,exp3,2022.2.2,
,,,,,,,,,,,,,,,,,,,,,,,,14,-557,Valid,noise,45,2,0.88655270000163,1,3.0,2.1953001000074437,True,1,20,A,2023-09-16_10h20.57.725,exp3,2022.2.2,
,,,,,,,,,,,,,,,,,,,,,,,,16,-557,Valid,noise,45,2,0.9207885000068927,1,3.0,2.229160300004878,True,1,20,A,2023-09-16_10h20.57.725,exp3,2022.2.2,
,,,,,,,,,,,,,,,,,,,,,,,,18,-1716,Valid,noise,45,2,1.6211929999990389,1,2.0,2.9297484000126133,True,1,20,A,2023-09-16_10h20.57.725,exp3,2022.2.2,
,,,,,,,,,,,,,,,,,,,,,,,,20,-1716,Valid,signal,-45,1,0.7204574999923352,1,3.0,2.0290256000007503,True,1,20,A,2023-09-16_10h20.57.725,exp3,2022.2.2,
,,,,,,,,,,,,,,,,,,,,,,,,22,1716,Valid,signal,-45,1,0.7375259999971604,1,3.0,2.046098199993139,True,1,20,A,2023-09-16_10h20.57.725,exp3,2022.2.2,
,,,,,,,,,,,,,,,,,,,,,,,,24,1716,Valid,signal,-45,1,0.9870227000064915,1,4.0,2.2957005000062054,True,1,20,A,2023-09-16_10h20.57.725,exp3,2022.2.2,
,,,,,,,,,,,,,,,,,,,,,,,,26,-2274,Valid,noise,45,2,2.4052121999993687,1,2.0,3.713544099999126,True,1,20,A,2023-09-16_10h20.57.725,exp3,2022.2.2,
,,,,,,,,,,,,,,,,,,,,,,,,28,-2274,Valid,signal,45,1,1.7207290000078501,1,2.0,3.0293505000008736,True,1,20,A,2023-09-16_10h20.57.725,exp3,2022.2.2,
,,,,,,,,,,,,,,,,,,,,,,,,30,-1158,Valid,noise,-45,2,1.3823410000040894,1,2.0,4.563682300009532,True,2,20,A,2023-09-16_10h20.57.725,exp3,2022.2.2,
,,,,,,,,,,,,,,,,,,,,,,,,32,-1158,Valid,signal,-45,1,0.8377164999983506,1,3.0,2.1461080000008224,True,1,20,A,2023-09-16_10h20.57.725,exp3,2022.2.2,
,,,,,,,,,,,,,,,,,,,,,,,,34,557,Valid,noise,45,2,0.7613727999996627,1,3.0,3.830092899996089,True,2,20,A,2023-09-16_10h20.57.725,exp3,2022.2.2,
,,,,,,,,,,,,,,,,,,,,,,,,36,-1158,Valid,signal,45,1,1.0688043999980437,1,3.0,6.596764200003236,True,3,20,A,2023-09-16_10h20.57.725,exp3,2022.2.2,
,,,,,,,,,,,,,,,,,,,,,,,,38,-1158,Valid,signal,45,1,0.8037570000014966,1,3.0,2.1126647999917623,True,1,20,A,2023-09-16_10h20.57.725,exp3,2022.2.2,
,,,,,,,,,,,,,,,,,,,,,,,,40,1158,Valid,noise,45,2,0.6201993999857223,1,3.0,1.9289700999943307,True,1,20,A,2023-09-16_10h20.57.725,exp3,2022.2.2,
,,,,,,,,,,,,,,,,,,,,,,,,42,-1158,Valid,signal,-45,1,1.3547701000061352,1,4.0,4.38019009999698,True,2,20,A,2023-09-16_10h20.57.725,exp3,2022.2.2,
,,,,,,,,,,,,,,,,,,,,,,,,44,-1158,Invalid,noise,-45,2,1.7982579999952577,1,3.0,5.630483100001584,True,2,20,A,2023-09-16_10h20.57.725,exp3,2022.2.2,
,,,,,,,,,,,,,,,,,,,,,,,,46,1716,Valid,noise,45,2,0.8271471000043675,1,2.0,4.28019810000842,True,2,20,A,2023-09-16_10h20.57.725,exp3,2022.2.2,
,,,,,,,,,,,,,,,,,,,,,,,,48,1716,Valid,signal,-45,1,1.7375830999953905,1,4.0,3.0460504999937257,True,1,20,A,2023-09-16_10h20.57.725,exp3,2022.2.2,
,,,,,,,,,,,,,,,,,,,,,,,,50,1716,Valid,noise,-45,2,0.9211346999945818,1,3.0,2.2295809000061126,True,1,20,A,2023-09-16_10h20.57.725,exp3,2022.2.2,
,,,,,,,,,,,,,,,,,,,,,,,,52,1158,Valid,signal,45,1,0.8872179000027245,1,4.0,2.1955669000017224,True,1,20,A,2023-09-16_10h20.57.725,exp3,2022.2.2,
,,,,,,,,,,,,,,,,,,,,,,,,54,1158,Valid,noise,-45,2,1.3421694000135176,1,3.0,11.5497747999907,True,5,20,A,2023-09-16_10h20.57.725,exp3,2022.2.2,
,,,,,,,,,,,,,,,,,,,,,,,,56,-1158,Valid,signal,45,2,1.5371044999919832,0,2.0,2.845788499995251,True,1,20,A,2023-09-16_10h20.57.725,exp3,2022.2.2,
,,,,,,,,,,,,,,,,,,,,,,,,58,1716,Valid,noise,45,2,3.221566599997459,1,2.0,4.530004699990968,True,1,20,A,2023-09-16_10h20.57.725,exp3,2022.2.2,
,,,,,,,,,,,,,,,,,,,,,,,,60,2274,Valid,noise,45,2,1.2298432999959914,1,2.0,4.3131955999997444,True,2,20,A,2023-09-16_10h20.57.725,exp3,2022.2.2,
,,,,,,,,,,,,,,,,,,,,,,,,62,557,Valid,signal,-45,1,0.7205964000022504,1,3.0,2.0293888000014704,True,1,20,A,2023-09-16_10h20.57.725,exp3,2022.2.2,
,,,,,,,,,,,,,,,,,,,,,,,,64,-1158,Valid,noise,45,2,1.6212212999962503,1,3.0,2.92965049999475,True,1,20,A,2023-09-16_10h20.57.725,exp3,2022.2.2,
,,,,,,,,,,,,,,,,,,,,,,,,66,1158,Valid,noise,45,2,1.8712219999870285,1,3.0,3.1797392000007676,True,1,20,A,2023-09-16_10h20.57.725,exp3,2022.2.2,
,,,,,,,,,,,,,,,,,,,,,,,,68,1716,Valid,noise,-45,2,0.8371790000092005,1,3.0,2.145551500012516,True,1,20,A,2023-09-16_10h20.57.725,exp3,2022.2.2,
,,,,,,,,,,,,,,,,,,,,,,,,70,1716,Valid,signal,-45,1,1.1873648000037065,1,1.0,2.4960796000086702,True,1,20,A,2023-09-16_10h20.57.725,exp3,2022.2.2,
,,,,,,,,,,,,,,,,,,,,,,,,72,2274,Invalid,noise,45,2,2.0664618000009796,1,1.0,13.383832799998345,True,5,20,A,2023-09-16_10h20.57.725,exp3,2022.2.2,
,,,,,,,,,,,,,,,,,,,,,,,,74,557,Valid,noise,45,2,2.004229599988321,1,2.0,3.3127168999926653,True,1,20,A,2023-09-16_10h20.57.725,exp3,2022.2.2,
,,,,,,,,,,,,,,,,,,,,,,,,76,-557,Valid,noise,-45,2,1.204750699995202,1,2.0,2.5129929999966407,True,1,20,A,2023-09-16_10h20.57.725,exp3,2022.2.2,
,,,,,,,,,,,,,,,,,,,,,,,,78,-557,Valid,noise,45,1,2.5559473000030266,0,1.0,5.646654899988789,True,2,20,A,2023-09-16_10h20.57.725,exp3,2022.2.2,
,,,,,,,,,,,,,,,,,,,,,,,,80,557,Valid,signal,-45,1,0.8878082999872277,1,3.0,2.1964746000012383,True,1,20,A,2023-09-16_10h20.57.725,exp3,2022.2.2,
,,,,,,,,,,,,,,,,,,,,,,,,82,1158,Valid,noise,-45,2,1.5729793000064092,1,1.0,4.746381699995254,True,2,20,A,2023-09-16_10h20.57.725,exp3,2022.2.2,
,,,,,,,,,,,,,,,,,,,,,,,,84,-1716,Valid,noise,-45,2,1.5195254999998724,1,1.0,7.18144939999911,True,3,20,A,2023-09-16_10h20.57.725,exp3,2022.2.2,
,,,,,,,,,,,,,,,,,,,,,,,,86,557,Invalid,signal,45,1,1.3951814000029117,1,3.0,4.646318700004485,True,2,20,A,2023-09-16_10h20.57.725,exp3,2022.2.2,
,,,,,,,,,,,,,,,,,,,,,,,,88,-1716,Valid,signal,-45,1,1.237661700011813,1,3.0,2.5461342000053264,True,1,20,A,2023-09-16_10h20.57.725,exp3,2022.2.2,
