trials.label,trials.startVal,trials.maxVal,trials.minVal,trials.startValSd,trials.pthreshold,trials.beta,trials.delta,trials.gamma,trials.grain,trials.stepSize,trials.range,trials.cue,trials.thisIndex,trials.thisRepN,trials.thisN,trials.direction,trials.stepType,trials.intensity,signalOpacity,stair_response_correct,level,trials.response,stair_eye_ok,nTrial,position,validity,Stimulus,orientation,response_key,response_rt,response_correct,confidence,confidence_rt,eye_ok,trial_rep,participant,session,date,expName,psychopyVersion
low_opac_i,0.4,1,0.01,3,0.82,3.5,0.01,0,0.01,4,5,Invalid,2,1,0,start,lin,0.4,0,1,0.4,1,TRUE,,,,,,,,,,,,,19,A,2023-09-15_10h27.49.687,exp3,2022.2.2
high_opac_v,0.01,1,0.01,3,0.82,3.5,0.01,0,0.01,4,5,Valid,1,1,1,start,lin,0.01,0,1,0.01,1,TRUE,,,,,,,,,,,,,19,A,2023-09-15_10h27.49.687,exp3,2022.2.2
low_opac_v,0.4,1,0.01,3,0.82,3.5,0.01,0,0.01,4,5,Valid,0,1,2,start,lin,0.4,0,1,0.4,1,TRUE,,,,,,,,,,,,,19,A,2023-09-15_10h27.49.687,exp3,2022.2.2
low_opac_v,0.4,1,0.01,3,0.82,3.5,0.01,0,0.01,4,5,Valid,0,2,3,start,lin,0.01,0.01,0,0.01,0,TRUE,,,,,,,,,,,,,19,A,2023-09-15_10h27.49.687,exp3,2022.2.2
low_opac_i,0.4,1,0.01,3,0.82,3.5,0.01,0,0.01,4,5,Invalid,2,2,4,start,lin,0.01,0,1,0.01,1,TRUE,,,,,,,,,,,,,19,A,2023-09-15_10h27.49.687,exp3,2022.2.2
high_opac_v,0.01,1,0.01,3,0.82,3.5,0.01,0,0.01,4,5,Valid,1,2,5,start,lin,0.01,0,1,0.01,1,TRUE,,,,,,,,,,,,,19,A,2023-09-15_10h27.49.687,exp3,2022.2.2
high_opac_v,0.01,1,0.01,3,0.82,3.5,0.01,0,0.01,4,5,Valid,1,3,6,start,lin,0.01,0.01,0,0.01,0,TRUE,,,,,,,,,,,,,19,A,2023-09-15_10h27.49.687,exp3,2022.2.2
low_opac_v,0.4,1,0.01,3,0.82,3.5,0.01,0,0.01,4,5,Valid,0,3,7,start,lin,0.314409869,0,0,0.314409869,0,TRUE,,,,,,,,,,,,,19,A,2023-09-15_10h27.49.687,exp3,2022.2.2
low_opac_i,0.4,1,0.01,3,0.82,3.5,0.01,0,0.01,4,5,Invalid,2,3,8,start,lin,0.01,0,1,0.01,1,TRUE,,,,,,,,,,,,,19,A,2023-09-15_10h27.49.687,exp3,2022.2.2
low_opac_i,0.4,1,0.01,3,0.82,3.5,0.01,0,0.01,4,5,Invalid,2,4,9,start,lin,0.01,0,1,0.01,1,TRUE,,,,,,,,,,,,,19,A,2023-09-15_10h27.49.687,exp3,2022.2.2
high_opac_v,0.01,1,0.01,3,0.82,3.5,0.01,0,0.01,4,5,Valid,1,4,10,start,lin,0.01,0,1,0.01,1,TRUE,,,,,,,,,,,,,19,A,2023-09-15_10h27.49.687,exp3,2022.2.2
low_opac_v,0.4,1,0.01,3,0.82,3.5,0.01,0,0.01,4,5,Valid,0,4,11,start,lin,0.491605766,0,1,0.491605766,1,TRUE,,,,,,,,,,,,,19,A,2023-09-15_10h27.49.687,exp3,2022.2.2
low_opac_v,0.4,1,0.01,3,0.82,3.5,0.01,0,0.01,4,5,Valid,0,5,12,start,lin,0.441384623,0.441384623,1,0.441384623,1,TRUE,,,,,,,,,,,,,19,A,2023-09-15_10h27.49.687,exp3,2022.2.2
high_opac_v,0.01,1,0.01,3,0.82,3.5,0.01,0,0.01,4,5,Valid,1,5,13,start,lin,0.01,0,1,0.01,1,TRUE,,,,,,,,,,,,,19,A,2023-09-15_10h27.49.687,exp3,2022.2.2
low_opac_i,0.4,1,0.01,3,0.82,3.5,0.01,0,0.01,4,5,Invalid,2,5,14,start,lin,0.01,0.01,0,0.01,0,TRUE,,,,,,,,,,,,,19,A,2023-09-15_10h27.49.687,exp3,2022.2.2
high_opac_v,0.01,1,0.01,3,0.82,3.5,0.01,0,0.01,4,5,Valid,1,6,15,start,lin,0.01,0,1,0.01,1,TRUE,,,,,,,,,,,,,19,A,2023-09-15_10h27.49.687,exp3,2022.2.2
low_opac_v,0.4,1,0.01,3,0.82,3.5,0.01,0,0.01,4,5,Valid,0,6,16,start,lin,0.410491415,0.410491415,1,0.410491415,1,TRUE,,,,,,,,,,,,,19,A,2023-09-15_10h27.49.687,exp3,2022.2.2
low_opac_i,0.4,1,0.01,3,0.82,3.5,0.01,0,0.01,4,5,Invalid,2,6,17,start,lin,0.01,0.01,0,0.01,0,TRUE,,,,,,,,,,,,,19,A,2023-09-15_10h27.49.687,exp3,2022.2.2
low_opac_v,0.4,1,0.01,3,0.82,3.5,0.01,0,0.01,4,5,Valid,0,7,18,start,lin,0.387286182,0,1,0.387286182,1,TRUE,,,,,,,,,,,,,19,A,2023-09-15_10h27.49.687,exp3,2022.2.2
low_opac_i,0.4,1,0.01,3,0.82,3.5,0.01,0,0.01,4,5,Invalid,2,7,19,start,lin,0.092117228,0.092117228,0,0.092117228,0,TRUE,,,,,,,,,,,,,19,A,2023-09-15_10h27.49.687,exp3,2022.2.2
high_opac_v,0.01,1,0.01,3,0.82,3.5,0.01,0,0.01,4,5,Valid,1,7,20,start,lin,0.01,0.01,1,0.01,1,TRUE,,,,,,,,,,,,,19,A,2023-09-15_10h27.49.687,exp3,2022.2.2
high_opac_v,0.01,1,0.01,3,0.82,3.5,0.01,0,0.01,4,5,Valid,1,8,21,start,lin,0.01,0.01,0,0.01,0,TRUE,,,,,,,,,,,,,19,A,2023-09-15_10h27.49.687,exp3,2022.2.2
low_opac_v,0.4,1,0.01,3,0.82,3.5,0.01,0,0.01,4,5,Valid,0,8,22,start,lin,0.368591735,0,1,0.368591735,1,TRUE,,,,,,,,,,,,,19,A,2023-09-15_10h27.49.687,exp3,2022.2.2
low_opac_i,0.4,1,0.01,3,0.82,3.5,0.01,0,0.01,4,5,Invalid,2,8,23,start,lin,0.153610176,0.153610176,0,0.153610176,0,TRUE,,,,,,,,,,,,,19,A,2023-09-15_10h27.49.687,exp3,2022.2.2
low_opac_v,0.4,1,0.01,3,0.82,3.5,0.01,0,0.01,4,5,Valid,0,9,24,start,lin,0.352229942,0.352229942,1,0.352229942,1,TRUE,,,,,,,,,,,,,19,A,2023-09-15_10h27.49.687,exp3,2022.2.2
low_opac_i,0.4,1,0.01,3,0.82,3.5,0.01,0,0.01,4,5,Invalid,2,9,25,start,lin,0.210767163,0.210767163,0,0.210767163,0,TRUE,,,,,,,,,,,,,19,A,2023-09-15_10h27.49.687,exp3,2022.2.2
high_opac_v,0.01,1,0.01,3,0.82,3.5,0.01,0,0.01,4,5,Valid,1,9,26,start,lin,0.025852116,0.025852116,1,0.025852116,1,TRUE,,,,,,,,,,,,,19,A,2023-09-15_10h27.49.687,exp3,2022.2.2
low_opac_i,0.4,1,0.01,3,0.82,3.5,0.01,0,0.01,4,5,Invalid,2,10,27,start,lin,0.266458728,0,1,0.266458728,1,TRUE,,,,,,,,,,,,,19,A,2023-09-15_10h27.49.687,exp3,2022.2.2
low_opac_v,0.4,1,0.01,3,0.82,3.5,0.01,0,0.01,4,5,Valid,0,10,28,start,lin,0.337127475,0.337127475,1,0.337127475,1,TRUE,,,,,,,,,,,,,19,A,2023-09-15_10h27.49.687,exp3,2022.2.2
high_opac_v,0.01,1,0.01,3,0.82,3.5,0.01,0,0.01,4,5,Valid,1,10,29,start,lin,0.013845491,0,1,0.013845491,1,TRUE,,,,,,,,,,,,,19,A,2023-09-15_10h27.49.687,exp3,2022.2.2
low_opac_i,0.4,1,0.01,3,0.82,3.5,0.01,0,0.01,4,5,Invalid,2,11,30,start,lin,0.252165419,0,1,0.252165419,1,TRUE,,,,,,,,,,,,,19,A,2023-09-15_10h27.49.687,exp3,2022.2.2
low_opac_v,0.4,1,0.01,3,0.82,3.5,0.01,0,0.01,4,5,Valid,0,11,31,start,lin,0.323801701,0,1,0.323801701,1,TRUE,,,,,,,,,,,,,19,A,2023-09-15_10h27.49.687,exp3,2022.2.2
high_opac_v,0.01,1,0.01,3,0.82,3.5,0.01,0,0.01,4,5,Valid,1,11,32,start,lin,0.01,0,0,0.01,0,TRUE,,,,,,,,,,,,,19,A,2023-09-15_10h27.49.687,exp3,2022.2.2
low_opac_i,0.4,1,0.01,3,0.82,3.5,0.01,0,0.01,4,5,Invalid,2,12,33,start,lin,0.239756508,0.239756508,0,0.239756508,0,TRUE,,,,,,,,,,,,,19,A,2023-09-15_10h27.49.687,exp3,2022.2.2
low_opac_v,0.4,1,0.01,3,0.82,3.5,0.01,0,0.01,4,5,Valid,0,12,34,start,lin,0.310620705,0,0,0.310620705,0,TRUE,,,,,,,,,,,,,19,A,2023-09-15_10h27.49.687,exp3,2022.2.2
high_opac_v,0.01,1,0.01,3,0.82,3.5,0.01,0,0.01,4,5,Valid,1,12,35,start,lin,0.04331994,0,1,0.04331994,1,TRUE,,,,,,,,,,,,,19,A,2023-09-15_10h27.49.687,exp3,2022.2.2
low_opac_v,0.4,1,0.01,3,0.82,3.5,0.01,0,0.01,4,5,Valid,0,13,36,start,lin,0.351911905,0.351911905,1,0.351911905,1,TRUE,,,,,,,,,,,,,19,A,2023-09-15_10h27.49.687,exp3,2022.2.2
low_opac_i,0.4,1,0.01,3,0.82,3.5,0.01,0,0.01,4,5,Invalid,2,13,37,start,lin,0.278763343,0.278763343,0,0.278763343,0,TRUE,,,,,,,,,,,,,19,A,2023-09-15_10h27.49.687,exp3,2022.2.2
high_opac_v,0.01,1,0.01,3,0.82,3.5,0.01,0,0.01,4,5,Valid,1,13,38,start,lin,0.035916902,0,1,0.035916902,1,TRUE,,,,,,,,,,,,,19,A,2023-09-15_10h27.49.687,exp3,2022.2.2
low_opac_v,0.4,1,0.01,3,0.82,3.5,0.01,0,0.01,4,5,Valid,0,14,39,start,lin,0.34339185,0,1,0.34339185,1,TRUE,,,,,,,,,,,,,19,A,2023-09-15_10h27.49.687,exp3,2022.2.2
high_opac_v,0.01,1,0.01,3,0.82,3.5,0.01,0,0.01,4,5,Valid,1,14,40,start,lin,0.029493522,0,1,0.029493522,1,TRUE,,,,,,,,,,,,,19,A,2023-09-15_10h27.49.687,exp3,2022.2.2
low_opac_i,0.4,1,0.01,3,0.82,3.5,0.01,0,0.01,4,5,Invalid,2,14,41,start,lin,0.315506548,0,1,0.315506548,1,TRUE,,,,,,,,,,,,,19,A,2023-09-15_10h27.49.687,exp3,2022.2.2
high_opac_v,0.01,1,0.01,3,0.82,3.5,0.01,0,0.01,4,5,Valid,1,15,42,start,lin,0.023333375,0.023333375,0,0.023333375,0,TRUE,,,,,,,,,,,,,19,A,2023-09-15_10h27.49.687,exp3,2022.2.2
low_opac_v,0.4,1,0.01,3,0.82,3.5,0.01,0,0.01,4,5,Valid,0,15,43,start,lin,0.335385705,0,1,0.335385705,1,TRUE,,,,,,,,,,,,,19,A,2023-09-15_10h27.49.687,exp3,2022.2.2
low_opac_i,0.4,1,0.01,3,0.82,3.5,0.01,0,0.01,4,5,Invalid,2,15,44,start,lin,0.306650834,0.306650834,0,0.306650834,0,TRUE,,,,,,,,,,,,,19,A,2023-09-15_10h27.49.687,exp3,2022.2.2
low_opac_v,0.4,1,0.01,3,0.82,3.5,0.01,0,0.01,4,5,Valid,0,16,45,start,lin,0.32836905,0,0,0.32836905,0,TRUE,,,,,,,,,,,,,19,A,2023-09-15_10h27.49.687,exp3,2022.2.2
low_opac_i,0.4,1,0.01,3,0.82,3.5,0.01,0,0.01,4,5,Invalid,2,16,46,start,lin,0.338309571,0,1,0.338309571,1,TRUE,,,,,,,,,,,,,19,A,2023-09-15_10h27.49.687,exp3,2022.2.2
high_opac_v,0.01,1,0.01,3,0.82,3.5,0.01,0,0.01,4,5,Valid,1,16,47,start,lin,0.045361779,0,1,0.045361779,1,TRUE,,,,,,,,,,,,,19,A,2023-09-15_10h27.49.687,exp3,2022.2.2
high_opac_v,0.01,1,0.01,3,0.82,3.5,0.01,0,0.01,4,5,Valid,1,17,48,start,lin,0.040355669,0,1,0.040355669,1,TRUE,,,,,,,,,,,,,19,A,2023-09-15_10h27.49.687,exp3,2022.2.2
low_opac_i,0.4,1,0.01,3,0.82,3.5,0.01,0,0.01,4,5,Invalid,2,17,49,start,lin,0.330688497,0,1,0.330688497,1,TRUE,,,,,,,,,,,,,19,A,2023-09-15_10h27.49.687,exp3,2022.2.2
low_opac_v,0.4,1,0.01,3,0.82,3.5,0.01,0,0.01,4,5,Valid,0,17,50,start,lin,0.354473229,0,1,0.354473229,1,TRUE,,,,,,,,,,,,,19,A,2023-09-15_10h27.49.687,exp3,2022.2.2
low_opac_i,0.4,1,0.01,3,0.82,3.5,0.01,0,0.01,4,5,Invalid,2,18,51,start,lin,0.323697016,0.323697016,1,0.323697016,1,TRUE,,,,,,,,,,,,,19,A,2023-09-15_10h27.49.687,exp3,2022.2.2
high_opac_v,0.01,1,0.01,3,0.82,3.5,0.01,0,0.01,4,5,Valid,1,18,52,start,lin,0.035468922,0,1,0.035468922,1,TRUE,,,,,,,,,,,,,19,A,2023-09-15_10h27.49.687,exp3,2022.2.2
low_opac_v,0.4,1,0.01,3,0.82,3.5,0.01,0,0.01,4,5,Valid,0,18,53,start,lin,0.348407155,0.348407155,1,0.348407155,1,TRUE,,,,,,,,,,,,,19,A,2023-09-15_10h27.49.687,exp3,2022.2.2
low_opac_v,0.4,1,0.01,3,0.82,3.5,0.01,0,0.01,4,5,Valid,0,19,54,start,lin,0.342992072,0.342992072,1,0.342992072,1,TRUE,,,,,,,,,,,,,19,A,2023-09-15_10h27.49.687,exp3,2022.2.2
low_opac_i,0.4,1,0.01,3,0.82,3.5,0.01,0,0.01,4,5,Invalid,2,19,55,start,lin,0.317141183,0.317141183,0,0.317141183,0,TRUE,,,,,,,,,,,,,19,A,2023-09-15_10h27.49.687,exp3,2022.2.2
high_opac_v,0.01,1,0.01,3,0.82,3.5,0.01,0,0.01,4,5,Valid,1,19,56,start,lin,0.031049976,0,1,0.031049976,1,TRUE,,,,,,,,,,,,,19,A,2023-09-15_10h27.49.687,exp3,2022.2.2
high_opac_v,0.01,1,0.01,3,0.82,3.5,0.01,0,0.01,4,5,Valid,1,20,57,start,lin,0.026638774,0.026638774,1,0.026638774,1,TRUE,,,,,,,,,,,,,19,A,2023-09-15_10h27.49.687,exp3,2022.2.2
low_opac_v,0.4,1,0.01,3,0.82,3.5,0.01,0,0.01,4,5,Valid,0,20,58,start,lin,0.33763395,0.33763395,1,0.33763395,1,TRUE,,,,,,,,,,,,,19,A,2023-09-15_10h27.49.687,exp3,2022.2.2
low_opac_i,0.4,1,0.01,3,0.82,3.5,0.01,0,0.01,4,5,Invalid,2,20,59,start,lin,0.340370839,0.340370839,0,0.340370839,0,TRUE,,,,,,,,,,,,,19,A,2023-09-15_10h27.49.687,exp3,2022.2.2
low_opac_i,0.4,1,0.01,3,0.82,3.5,0.01,0,0.01,4,5,Invalid,2,21,60,start,lin,0.362104588,0,1,0.362104588,1,TRUE,,,,,,,,,,,,,19,A,2023-09-15_10h27.49.687,exp3,2022.2.2
high_opac_v,0.01,1,0.01,3,0.82,3.5,0.01,0,0.01,4,5,Valid,1,21,61,start,lin,0.022624439,0,0,0.022624439,0,TRUE,,,,,,,,,,,,,19,A,2023-09-15_10h27.49.687,exp3,2022.2.2
low_opac_v,0.4,1,0.01,3,0.82,3.5,0.01,0,0.01,4,5,Valid,0,21,62,start,lin,0.332791881,0,1,0.332791881,1,TRUE,,,,,,,,,,,,,19,A,2023-09-15_10h27.49.687,exp3,2022.2.2
low_opac_i,0.4,1,0.01,3,0.82,3.5,0.01,0,0.01,4,5,Invalid,2,22,63,start,lin,0.356644583,0,0,0.356644583,0,TRUE,,,,,,,,,,,,,19,A,2023-09-15_10h27.49.687,exp3,2022.2.2
high_opac_v,0.01,1,0.01,3,0.82,3.5,0.01,0,0.01,4,5,Valid,1,22,64,start,lin,0.038023899,0,1,0.038023899,1,TRUE,,,,,,,,,,,,,19,A,2023-09-15_10h27.49.687,exp3,2022.2.2
low_opac_v,0.4,1,0.01,3,0.82,3.5,0.01,0,0.01,4,5,Valid,0,22,65,start,lin,0.327927151,0.327927151,1,0.327927151,1,TRUE,,,,,,,,,,,,,19,A,2023-09-15_10h27.49.687,exp3,2022.2.2
high_opac_v,0.01,1,0.01,3,0.82,3.5,0.01,0,0.01,4,5,Valid,1,23,66,start,lin,0.03439633,0.03439633,1,0.03439633,1,TRUE,,,,,,,,,,,,,19,A,2023-09-15_10h27.49.687,exp3,2022.2.2
low_opac_i,0.4,1,0.01,3,0.82,3.5,0.01,0,0.01,4,5,Invalid,2,23,67,start,lin,0.376721554,0.376721554,0,0.376721554,0,TRUE,,,,,,,,,,,,,19,A,2023-09-15_10h27.49.687,exp3,2022.2.2
low_opac_v,0.4,1,0.01,3,0.82,3.5,0.01,0,0.01,4,5,Valid,0,23,68,start,lin,0.323483615,0,1,0.323483615,1,TRUE,,,,,,,,,,,,,19,A,2023-09-15_10h27.49.687,exp3,2022.2.2
low_opac_v,0.4,1,0.01,3,0.82,3.5,0.01,0,0.01,4,5,Valid,0,24,69,start,lin,0.318978663,0.318978663,1,0.318978663,1,TRUE,,,,,,,,,,,,,19,A,2023-09-15_10h27.49.687,exp3,2022.2.2
high_opac_v,0.01,1,0.01,3,0.82,3.5,0.01,0,0.01,4,5,Valid,1,24,70,start,lin,0.030721971,0,1,0.030721971,1,TRUE,,,,,,,,,,,,,19,A,2023-09-15_10h27.49.687,exp3,2022.2.2
low_opac_i,0.4,1,0.01,3,0.82,3.5,0.01,0,0.01,4,5,Invalid,2,24,71,start,lin,0.396265965,0,0,0.396265965,0,TRUE,,,,,,,,,,,,,19,A,2023-09-15_10h27.49.687,exp3,2022.2.2
low_opac_i,0.4,1,0.01,3,0.82,3.5,0.01,0,0.01,4,5,Invalid,2,25,72,start,lin,0.41549639,0.41549639,0,0.41549639,0,TRUE,,,,,,,,,,,,,19,A,2023-09-15_10h27.49.687,exp3,2022.2.2
low_opac_v,0.4,1,0.01,3,0.82,3.5,0.01,0,0.01,4,5,Valid,0,25,73,start,lin,0.314807521,0,0,0.314807521,0,TRUE,,,,,,,,,,,,,19,A,2023-09-15_10h27.49.687,exp3,2022.2.2
high_opac_v,0.01,1,0.01,3,0.82,3.5,0.01,0,0.01,4,5,Valid,1,25,74,start,lin,0.027282722,0.027282722,1,0.027282722,1,TRUE,,,,,,,,,,,,,19,A,2023-09-15_10h27.49.687,exp3,2022.2.2
high_opac_v,0.01,1,0.01,3,0.82,3.5,0.01,0,0.01,4,5,Valid,1,26,75,start,lin,0.024110459,0,1,0.024110459,1,TRUE,,,,,,,,,,,,,19,A,2023-09-15_10h27.49.687,exp3,2022.2.2
low_opac_i,0.4,1,0.01,3,0.82,3.5,0.01,0,0.01,4,5,Invalid,2,26,76,start,lin,0.434555072,0.434555072,1,0.434555072,1,TRUE,,,,,,,,,,,,,19,A,2023-09-15_10h27.49.687,exp3,2022.2.2
low_opac_v,0.4,1,0.01,3,0.82,3.5,0.01,0,0.01,4,5,Valid,0,26,77,start,lin,0.330257199,0.330257199,0,0.330257199,0,TRUE,,,,,,,,,,,,,19,A,2023-09-15_10h27.49.687,exp3,2022.2.2
low_opac_i,0.4,1,0.01,3,0.82,3.5,0.01,0,0.01,4,5,Invalid,2,27,78,start,lin,0.429772112,0,1,0.429772112,1,TRUE,,,,,,,,,,,,,19,A,2023-09-15_10h27.49.687,exp3,2022.2.2
high_opac_v,0.01,1,0.01,3,0.82,3.5,0.01,0,0.01,4,5,Valid,1,27,79,start,lin,0.020855362,0.020855362,0,0.020855362,0,TRUE,,,,,,,,,,,,,19,A,2023-09-15_10h27.49.687,exp3,2022.2.2
low_opac_v,0.4,1,0.01,3,0.82,3.5,0.01,0,0.01,4,5,Valid,0,27,80,start,lin,0.344682697,0.344682697,1,0.344682697,1,TRUE,,,,,,,,,,,,,19,A,2023-09-15_10h27.49.687,exp3,2022.2.2
high_opac_v,0.01,1,0.01,3,0.82,3.5,0.01,0,0.01,4,5,Valid,1,28,81,start,lin,0.032974797,0.032974797,0,0.032974797,0,TRUE,,,,,,,,,,,,,19,A,2023-09-15_10h27.49.687,exp3,2022.2.2
low_opac_v,0.4,1,0.01,3,0.82,3.5,0.01,0,0.01,4,5,Valid,0,28,82,start,lin,0.34117504,0.34117504,1,0.34117504,1,TRUE,,,,,,,,,,,,,19,A,2023-09-15_10h27.49.687,exp3,2022.2.2
low_opac_i,0.4,1,0.01,3,0.82,3.5,0.01,0,0.01,4,5,Invalid,2,28,83,start,lin,0.425508162,0.425508162,0,0.425508162,0,TRUE,,,,,,,,,,,,,19,A,2023-09-15_10h27.49.687,exp3,2022.2.2
low_opac_v,0.4,1,0.01,3,0.82,3.5,0.01,0,0.01,4,5,Valid,0,29,84,start,lin,0.337853308,0,1,0.337853308,1,TRUE,,,,,,,,,,,,,19,A,2023-09-15_10h27.49.687,exp3,2022.2.2
high_opac_v,0.01,1,0.01,3,0.82,3.5,0.01,0,0.01,4,5,Valid,1,29,85,start,lin,0.044342773,0,1,0.044342773,1,TRUE,,,,,,,,,,,,,19,A,2023-09-15_10h27.49.687,exp3,2022.2.2
low_opac_i,0.4,1,0.01,3,0.82,3.5,0.01,0,0.01,4,5,Invalid,2,29,86,start,lin,0.442123438,0,1,0.442123438,1,TRUE,,,,,,,,,,,,,19,A,2023-09-15_10h27.49.687,exp3,2022.2.2
low_opac_i,0.4,1,0.01,3,0.82,3.5,0.01,0,0.01,4,5,Invalid,2,30,87,start,lin,0.438065402,0.438065402,1,0.438065402,1,TRUE,,,,,,,,,,,,,19,A,2023-09-15_10h27.49.687,exp3,2022.2.2
low_opac_v,0.4,1,0.01,3,0.82,3.5,0.01,0,0.01,4,5,Valid,0,30,88,start,lin,0.334776104,0.334776104,1,0.334776104,1,TRUE,,,,,,,,,,,,,19,A,2023-09-15_10h27.49.687,exp3,2022.2.2
high_opac_v,0.01,1,0.01,3,0.82,3.5,0.01,0,0.01,4,5,Valid,1,30,89,start,lin,0.041473734,0.041473734,0,0.041473734,0,TRUE,,,,,,,,,,,,,19,A,2023-09-15_10h27.49.687,exp3,2022.2.2
high_opac_v,0.01,1,0.01,3,0.82,3.5,0.01,0,0.01,4,5,Valid,1,31,90,start,lin,0.05219089,0,1,0.05219089,1,TRUE,,,,,,,,,,,,,19,A,2023-09-15_10h27.49.687,exp3,2022.2.2
low_opac_v,0.4,1,0.01,3,0.82,3.5,0.01,0,0.01,4,5,Valid,0,31,91,start,lin,0.331619975,0,1,0.331619975,1,TRUE,,,,,,,,,,,,,19,A,2023-09-15_10h27.49.687,exp3,2022.2.2
low_opac_i,0.4,1,0.01,3,0.82,3.5,0.01,0,0.01,4,5,Invalid,2,31,92,start,lin,0.434406524,0.434406524,1,0.434406524,1,TRUE,,,,,,,,,,,,,19,A,2023-09-15_10h27.49.687,exp3,2022.2.2
low_opac_v,0.4,1,0.01,3,0.82,3.5,0.01,0,0.01,4,5,Valid,0,32,93,start,lin,0.328594266,0,1,0.328594266,1,TRUE,,,,,,,,,,,,,19,A,2023-09-15_10h27.49.687,exp3,2022.2.2
high_opac_v,0.01,1,0.01,3,0.82,3.5,0.01,0,0.01,4,5,Valid,1,32,94,start,lin,0.049515759,0.049515759,0,0.049515759,0,TRUE,,,,,,,,,,,,,19,A,2023-09-15_10h27.49.687,exp3,2022.2.2
low_opac_i,0.4,1,0.01,3,0.82,3.5,0.01,0,0.01,4,5,Invalid,2,32,95,start,lin,0.430725115,0.430725115,1,0.430725115,1,TRUE,,,,,,,,,,,,,19,A,2023-09-15_10h27.49.687,exp3,2022.2.2
low_opac_v,0.4,1,0.01,3,0.82,3.5,0.01,0,0.01,4,5,Valid,0,33,96,start,lin,0.325766516,0,1,0.325766516,1,TRUE,,,,,,,,,,,,,19,A,2023-09-15_10h27.49.687,exp3,2022.2.2
low_opac_i,0.4,1,0.01,3,0.82,3.5,0.01,0,0.01,4,5,Invalid,2,33,97,start,lin,0.427317021,0,1,0.427317021,1,TRUE,,,,,,,,,,,,,19,A,2023-09-15_10h27.49.687,exp3,2022.2.2
high_opac_v,0.01,1,0.01,3,0.82,3.5,0.01,0,0.01,4,5,Valid,1,33,98,start,lin,0.059718331,0,1,0.059718331,1,TRUE,,,,,,,,,,,,,19,A,2023-09-15_10h27.49.687,exp3,2022.2.2
low_opac_i,0.4,1,0.01,3,0.82,3.5,0.01,0,0.01,4,5,Invalid,2,34,99,start,lin,0.424192881,0.424192881,1,0.424192881,1,TRUE,,,,,,,,,,,,,19,A,2023-09-15_10h27.49.687,exp3,2022.2.2
high_opac_v,0.01,1,0.01,3,0.82,3.5,0.01,0,0.01,4,5,Valid,1,34,100,start,lin,0.057272391,0,0,0.057272391,0,TRUE,,,,,,,,,,,,,19,A,2023-09-15_10h27.49.687,exp3,2022.2.2
low_opac_v,0.4,1,0.01,3,0.82,3.5,0.01,0,0.01,4,5,Valid,0,34,101,start,lin,0.3231005,0,0,0.3231005,0,TRUE,,,,,,,,,,,,,19,A,2023-09-15_10h27.49.687,exp3,2022.2.2
low_opac_i,0.4,1,0.01,3,0.82,3.5,0.01,0,0.01,4,5,Invalid,2,35,102,start,lin,0.42100348,0.42100348,1,0.42100348,1,TRUE,,,,,,,,,,,,,19,A,2023-09-15_10h27.49.687,exp3,2022.2.2
low_opac_v,0.4,1,0.01,3,0.82,3.5,0.01,0,0.01,4,5,Valid,0,35,103,start,lin,0.333757354,0.333757354,1,0.333757354,1,TRUE,,,,,,,,,,,,,19,A,2023-09-15_10h27.49.687,exp3,2022.2.2
high_opac_v,0.01,1,0.01,3,0.82,3.5,0.01,0,0.01,4,5,Valid,1,35,104,start,lin,0.067066619,0.067066619,0,0.067066619,0,TRUE,,,,,,,,,,,,,19,A,2023-09-15_10h27.49.687,exp3,2022.2.2
low_opac_i,0.4,1,0.01,3,0.82,3.5,0.01,0,0.01,4,5,Invalid,2,36,105,start,lin,0.417997106,0.417997106,0,0.417997106,0,TRUE,,,,,,,,,,,,,19,A,2023-09-15_10h27.49.687,exp3,2022.2.2
high_opac_v,0.01,1,0.01,3,0.82,3.5,0.01,0,0.01,4,5,Valid,1,36,106,start,lin,0.076671244,0.076671244,1,0.076671244,1,TRUE,,,,,,,,,,,,,19,A,2023-09-15_10h27.49.687,exp3,2022.2.2
low_opac_v,0.4,1,0.01,3,0.82,3.5,0.01,0,0.01,4,5,Valid,0,36,107,start,lin,0.331127675,0,0,0.331127675,0,TRUE,,,,,,,,,,,,,19,A,2023-09-15_10h27.49.687,exp3,2022.2.2
low_opac_v,0.4,1,0.01,3,0.82,3.5,0.01,0,0.01,4,5,Valid,0,37,108,start,lin,0.341075278,0.341075278,1,0.341075278,1,TRUE,,,,,,,,,,,,,19,A,2023-09-15_10h27.49.687,exp3,2022.2.2
high_opac_v,0.01,1,0.01,3,0.82,3.5,0.01,0,0.01,4,5,Valid,1,37,109,start,lin,0.0744882,0,1,0.0744882,1,TRUE,,,,,,,,,,,,,19,A,2023-09-15_10h27.49.687,exp3,2022.2.2
low_opac_i,0.4,1,0.01,3,0.82,3.5,0.01,0,0.01,4,5,Invalid,2,37,110,start,lin,0.429633039,0,1,0.429633039,1,TRUE,,,,,,,,,,,,,19,A,2023-09-15_10h27.49.687,exp3,2022.2.2
low_opac_v,0.4,1,0.01,3,0.82,3.5,0.01,0,0.01,4,5,Valid,0,38,111,start,lin,0.33865183,0.33865183,1,0.33865183,1,TRUE,,,,,,,,,,,,,19,A,2023-09-15_10h27.49.687,exp3,2022.2.2
high_opac_v,0.01,1,0.01,3,0.82,3.5,0.01,0,0.01,4,5,Valid,1,38,112,start,lin,0.072218981,0.072218981,1,0.072218981,1,TRUE,,,,,,,,,,,,,19,A,2023-09-15_10h27.49.687,exp3,2022.2.2
low_opac_i,0.4,1,0.01,3,0.82,3.5,0.01,0,0.01,4,5,Invalid,2,38,113,start,lin,0.426874042,0.426874042,0,0.426874042,0,TRUE,,,,,,,,,,,,,19,A,2023-09-15_10h27.49.687,exp3,2022.2.2
high_opac_v,0.01,1,0.01,3,0.82,3.5,0.01,0,0.01,4,5,Valid,1,39,114,start,lin,0.070015734,0,1,0.070015734,1,TRUE,,,,,,,,,,,,,19,A,2023-09-15_10h27.49.687,exp3,2022.2.2
low_opac_i,0.4,1,0.01,3,0.82,3.5,0.01,0,0.01,4,5,Invalid,2,39,115,start,lin,0.437891924,0.437891924,1,0.437891924,1,TRUE,,,,,,,,,,,,,19,A,2023-09-15_10h27.49.687,exp3,2022.2.2
low_opac_v,0.4,1,0.01,3,0.82,3.5,0.01,0,0.01,4,5,Valid,0,39,116,start,lin,0.336376267,0.336376267,1,0.336376267,1,TRUE,,,,,,,,,,,,,19,A,2023-09-15_10h27.49.687,exp3,2022.2.2
low_opac_i,0.4,1,0.01,3,0.82,3.5,0.01,0,0.01,4,5,Invalid,2,40,117,start,lin,0.435351862,0,1,0.435351862,1,TRUE,,,,,,,,,,,,,19,A,2023-09-15_10h27.49.687,exp3,2022.2.2
low_opac_v,0.4,1,0.01,3,0.82,3.5,0.01,0,0.01,4,5,Valid,0,40,118,start,lin,0.334220164,0,1,0.334220164,1,TRUE,,,,,,,,,,,,,19,A,2023-09-15_10h27.49.687,exp3,2022.2.2
high_opac_v,0.01,1,0.01,3,0.82,3.5,0.01,0,0.01,4,5,Valid,1,40,119,start,lin,0.06792327,0.06792327,0,0.06792327,0,TRUE,,,,,,,,,,,,,19,A,2023-09-15_10h27.49.687,exp3,2022.2.2
low_opac_i,0.4,1,0.01,3,0.82,3.5,0.01,0,0.01,4,5,Invalid,2,41,120,start,lin,0.432954902,0.432954902,0,0.432954902,0,TRUE,,,,,,,,,,,,,19,A,2023-09-15_10h27.49.687,exp3,2022.2.2
low_opac_v,0.4,1,0.01,3,0.82,3.5,0.01,0,0.01,4,5,Valid,0,41,121,start,lin,0.331962405,0,1,0.331962405,1,TRUE,,,,,,,,,,,,,19,A,2023-09-15_10h27.49.687,exp3,2022.2.2
high_opac_v,0.01,1,0.01,3,0.82,3.5,0.01,0,0.01,4,5,Valid,1,41,122,start,lin,0.076282745,0.076282745,0,0.076282745,0,TRUE,,,,,,,,,,,,,19,A,2023-09-15_10h27.49.687,exp3,2022.2.2
high_opac_v,0.01,1,0.01,3,0.82,3.5,0.01,0,0.01,4,5,Valid,1,42,123,start,lin,0.084599998,0,1,0.084599998,1,TRUE,,,,,,,,,,,,,19,A,2023-09-15_10h27.49.687,exp3,2022.2.2
low_opac_i,0.4,1,0.01,3,0.82,3.5,0.01,0,0.01,4,5,Invalid,2,42,124,start,lin,0.442622519,0,1,0.442622519,1,TRUE,,,,,,,,,,,,,19,A,2023-09-15_10h27.49.687,exp3,2022.2.2
low_opac_v,0.4,1,0.01,3,0.82,3.5,0.01,0,0.01,4,5,Valid,0,42,125,start,lin,0.329756971,0.329756971,1,0.329756971,1,TRUE,,,,,,,,,,,,,19,A,2023-09-15_10h27.49.687,exp3,2022.2.2
low_opac_v,0.4,1,0.01,3,0.82,3.5,0.01,0,0.01,4,5,Valid,0,43,126,start,lin,0.327645457,0,1,0.327645457,1,TRUE,,,,,,,,,,,,,19,A,2023-09-15_10h27.49.687,exp3,2022.2.2
high_opac_v,0.01,1,0.01,3,0.82,3.5,0.01,0,0.01,4,5,Valid,1,43,127,start,lin,0.082595251,0,1,0.082595251,1,TRUE,,,,,,,,,,,,,19,A,2023-09-15_10h27.49.687,exp3,2022.2.2
low_opac_i,0.4,1,0.01,3,0.82,3.5,0.01,0,0.01,4,5,Invalid,2,43,128,start,lin,0.440165358,0.440165358,1,0.440165358,1,TRUE,,,,,,,,,,,,,19,A,2023-09-15_10h27.49.687,exp3,2022.2.2
low_opac_v,0.4,1,0.01,3,0.82,3.5,0.01,0,0.01,4,5,Valid,0,44,129,start,lin,0.325650294,0.325650294,1,0.325650294,1,TRUE,,,,,,,,,,,,,19,A,2023-09-15_10h27.49.687,exp3,2022.2.2
low_opac_i,0.4,1,0.01,3,0.82,3.5,0.01,0,0.01,4,5,Invalid,2,44,130,start,lin,0.437839629,0,1,0.437839629,1,TRUE,,,,,,,,,,,,,19,A,2023-09-15_10h27.49.687,exp3,2022.2.2
high_opac_v,0.01,1,0.01,3,0.82,3.5,0.01,0,0.01,4,5,Valid,1,44,131,start,lin,0.080643625,0,1,0.080643625,1,TRUE,,,,,,,,,,,,,19,A,2023-09-15_10h27.49.687,exp3,2022.2.2
low_opac_v,0.4,1,0.01,3,0.82,3.5,0.01,0,0.01,4,5,Valid,0,45,132,start,lin,0.323740501,0,0,0.323740501,0,TRUE,,,,,,,,,,,,,19,A,2023-09-15_10h27.49.687,exp3,2022.2.2
high_opac_v,0.01,1,0.01,3,0.82,3.5,0.01,0,0.01,4,5,Valid,1,45,133,start,lin,0.078752462,0.078752462,0,0.078752462,0,TRUE,,,,,,,,,,,,,19,A,2023-09-15_10h27.49.687,exp3,2022.2.2
low_opac_i,0.4,1,0.01,3,0.82,3.5,0.01,0,0.01,4,5,Invalid,2,45,134,start,lin,0.435664483,0,1,0.435664483,1,TRUE,,,,,,,,,,,,,19,A,2023-09-15_10h27.49.687,exp3,2022.2.2
high_opac_v,0.01,1,0.01,3,0.82,3.5,0.01,0,0.01,4,5,Valid,1,46,135,start,lin,0.086194247,0.086194247,0,0.086194247,0,TRUE,,,,,,,,,,,,,19,A,2023-09-15_10h27.49.687,exp3,2022.2.2
low_opac_i,0.4,1,0.01,3,0.82,3.5,0.01,0,0.01,4,5,Invalid,2,46,136,start,lin,0.433599046,0.433599046,1,0.433599046,1,TRUE,,,,,,,,,,,,,19,A,2023-09-15_10h27.49.687,exp3,2022.2.2
low_opac_v,0.4,1,0.01,3,0.82,3.5,0.01,0,0.01,4,5,Valid,0,46,137,start,lin,0.331535124,0.331535124,1,0.331535124,1,TRUE,,,,,,,,,,,,,19,A,2023-09-15_10h27.49.687,exp3,2022.2.2
high_opac_v,0.01,1,0.01,3,0.82,3.5,0.01,0,0.01,4,5,Valid,1,47,138,start,lin,0.093683003,0.093683003,0,0.093683003,0,TRUE,,,,,,,,,,,,,19,A,2023-09-15_10h27.49.687,exp3,2022.2.2
low_opac_i,0.4,1,0.01,3,0.82,3.5,0.01,0,0.01,4,5,Invalid,2,47,139,start,lin,0.431431629,0,1,0.431431629,1,TRUE,,,,,,,,,,,,,19,A,2023-09-15_10h27.49.687,exp3,2022.2.2
low_opac_v,0.4,1,0.01,3,0.82,3.5,0.01,0,0.01,4,5,Valid,0,47,140,start,lin,0.329592247,0,1,0.329592247,1,TRUE,,,,,,,,,,,,,19,A,2023-09-15_10h27.49.687,exp3,2022.2.2
high_opac_v,0.01,1,0.01,3,0.82,3.5,0.01,0,0.01,4,5,Valid,1,48,141,start,lin,0.10064899,0.10064899,0,0.10064899,0,TRUE,,,,,,,,,,,,,19,A,2023-09-15_10h27.49.687,exp3,2022.2.2
low_opac_v,0.4,1,0.01,3,0.82,3.5,0.01,0,0.01,4,5,Valid,0,48,142,start,lin,0.327731594,0.327731594,1,0.327731594,1,TRUE,,,,,,,,,,,,,19,A,2023-09-15_10h27.49.687,exp3,2022.2.2
low_opac_i,0.4,1,0.01,3,0.82,3.5,0.01,0,0.01,4,5,Invalid,2,48,143,start,lin,0.429321366,0,1,0.429321366,1,TRUE,,,,,,,,,,,,,19,A,2023-09-15_10h27.49.687,exp3,2022.2.2
high_opac_v,0.01,1,0.01,3,0.82,3.5,0.01,0,0.01,4,5,Valid,1,49,144,start,lin,0.107659319,0.107659319,0,0.107659319,0,TRUE,,,,,,,,,,,,,19,A,2023-09-15_10h27.49.687,exp3,2022.2.2
low_opac_i,0.4,1,0.01,3,0.82,3.5,0.01,0,0.01,4,5,Invalid,2,49,145,start,lin,0.427331386,0,1,0.427331386,1,TRUE,,,,,,,,,,,,,19,A,2023-09-15_10h27.49.687,exp3,2022.2.2
low_opac_v,0.4,1,0.01,3,0.82,3.5,0.01,0,0.01,4,5,Valid,0,49,146,start,lin,0.325966607,0.325966607,1,0.325966607,1,TRUE,,,,,,,,,,,,,19,A,2023-09-15_10h27.49.687,exp3,2022.2.2
low_opac_i,0.4,1,0.01,3,0.82,3.5,0.01,0,0.01,4,5,Invalid,2,50,147,start,lin,0.425449983,0.425449983,0,0.425449983,0,TRUE,,,,,,,,,,,,,19,A,2023-09-15_10h27.49.687,exp3,2022.2.2
high_opac_v,0.01,1,0.01,3,0.82,3.5,0.01,0,0.01,4,5,Valid,1,50,148,start,lin,0.114822825,0,1,0.114822825,1,TRUE,,,,,,,,,,,,,19,A,2023-09-15_10h27.49.687,exp3,2022.2.2
low_opac_v,0.4,1,0.01,3,0.82,3.5,0.01,0,0.01,4,5,Valid,0,50,149,start,lin,0.324273248,0,1,0.324273248,1,TRUE,,,,,,,,,,,,,19,A,2023-09-15_10h27.49.687,exp3,2022.2.2
high_opac_v,0.01,1,0.01,3,0.82,3.5,0.01,0,0.01,4,5,Valid,1,51,150,start,lin,0.113081592,0.113081592,0,0.113081592,0,TRUE,,,,,,,,,,,,,19,A,2023-09-15_10h27.49.687,exp3,2022.2.2
low_opac_v,0.4,1,0.01,3,0.82,3.5,0.01,0,0.01,4,5,Valid,0,51,151,start,lin,0.322482888,0,1,0.322482888,1,TRUE,,,,,,,,,,,,,19,A,2023-09-15_10h27.49.687,exp3,2022.2.2
low_opac_i,0.4,1,0.01,3,0.82,3.5,0.01,0,0.01,4,5,Invalid,2,51,152,start,lin,0.43347063,0.43347063,1,0.43347063,1,TRUE,,,,,,,,,,,,,19,A,2023-09-15_10h27.49.687,exp3,2022.2.2
high_opac_v,0.01,1,0.01,3,0.82,3.5,0.01,0,0.01,4,5,Valid,1,52,153,start,lin,0.119671664,0.119671664,1,0.119671664,1,TRUE,,,,,,,,,,,,,19,A,2023-09-15_10h27.49.687,exp3,2022.2.2
low_opac_i,0.4,1,0.01,3,0.82,3.5,0.01,0,0.01,4,5,Invalid,2,52,154,start,lin,0.431566842,0,1,0.431566842,1,TRUE,,,,,,,,,,,,,19,A,2023-09-15_10h27.49.687,exp3,2022.2.2
low_opac_v,0.4,1,0.01,3,0.82,3.5,0.01,0,0.01,4,5,Valid,0,52,155,start,lin,0.320723602,0.320723602,0,0.320723602,0,TRUE,,,,,,,,,,,,,19,A,2023-09-15_10h27.49.687,exp3,2022.2.2
high_opac_v,0.01,1,0.01,3,0.82,3.5,0.01,0,0.01,4,5,Valid,1,53,156,start,lin,0.118023402,0.118023402,0,0.118023402,0,TRUE,,,,,,,,,,,,,19,A,2023-09-15_10h27.49.687,exp3,2022.2.2
low_opac_v,0.4,1,0.01,3,0.82,3.5,0.01,0,0.01,4,5,Valid,0,53,157,start,lin,0.327515568,0,1,0.327515568,1,TRUE,,,,,,,,,,,,,19,A,2023-09-15_10h27.49.687,exp3,2022.2.2
low_opac_i,0.4,1,0.01,3,0.82,3.5,0.01,0,0.01,4,5,Invalid,2,53,158,start,lin,0.429698199,0,1,0.429698199,1,TRUE,,,,,,,,,,,,,19,A,2023-09-15_10h27.49.687,exp3,2022.2.2
high_opac_v,0.01,1,0.01,3,0.82,3.5,0.01,0,0.01,4,5,Valid,1,54,159,start,lin,0.124725227,0.124725227,0,0.124725227,0,TRUE,,,,,,,,,,,,,19,A,2023-09-15_10h27.49.687,exp3,2022.2.2
low_opac_i,0.4,1,0.01,3,0.82,3.5,0.01,0,0.01,4,5,Invalid,2,54,160,start,lin,0.427917312,0,1,0.427917312,1,TRUE,,,,,,,,,,,,,19,A,2023-09-15_10h27.49.687,exp3,2022.2.2
low_opac_v,0.4,1,0.01,3,0.82,3.5,0.01,0,0.01,4,5,Valid,0,54,161,start,lin,0.325940581,0,1,0.325940581,1,TRUE,,,,,,,,,,,,,19,A,2023-09-15_10h27.49.687,exp3,2022.2.2
low_opac_i,0.4,1,0.01,3,0.82,3.5,0.01,0,0.01,4,5,Invalid,2,55,162,start,lin,0.426231467,0,1,0.426231467,1,TRUE,,,,,,,,,,,,,19,A,2023-09-15_10h27.49.687,exp3,2022.2.2
low_opac_v,0.4,1,0.01,3,0.82,3.5,0.01,0,0.01,4,5,Valid,0,55,163,start,lin,0.324424155,0.324424155,0,0.324424155,0,TRUE,,,,,,,,,,,,,19,A,2023-09-15_10h27.49.687,exp3,2022.2.2
high_opac_v,0.01,1,0.01,3,0.82,3.5,0.01,0,0.01,4,5,Valid,1,55,164,start,lin,0.131036428,0,1,0.131036428,1,TRUE,,,,,,,,,,,,,19,A,2023-09-15_10h27.49.687,exp3,2022.2.2
low_opac_v,0.4,1,0.01,3,0.82,3.5,0.01,0,0.01,4,5,Valid,0,56,165,start,lin,0.330652597,0.330652597,0,0.330652597,0,TRUE,,,,,,,,,,,,,19,A,2023-09-15_10h27.49.687,exp3,2022.2.2
high_opac_v,0.01,1,0.01,3,0.82,3.5,0.01,0,0.01,4,5,Valid,1,56,166,start,lin,0.129406744,0.129406744,0,0.129406744,0,TRUE,,,,,,,,,,,,,19,A,2023-09-15_10h27.49.687,exp3,2022.2.2
low_opac_i,0.4,1,0.01,3,0.82,3.5,0.01,0,0.01,4,5,Invalid,2,56,167,start,lin,0.424617945,0,1,0.424617945,1,TRUE,,,,,,,,,,,,,19,A,2023-09-15_10h27.49.687,exp3,2022.2.2
high_opac_v,0.01,1,0.01,3,0.82,3.5,0.01,0,0.01,4,5,Valid,1,57,168,start,lin,0.1357718,0,1,0.1357718,1,TRUE,,,,,,,,,,,,,19,A,2023-09-15_10h27.49.687,exp3,2022.2.2
low_opac_i,0.4,1,0.01,3,0.82,3.5,0.01,0,0.01,4,5,Invalid,2,57,169,start,lin,0.422917925,0,1,0.422917925,1,TRUE,,,,,,,,,,,,,19,A,2023-09-15_10h27.49.687,exp3,2022.2.2
low_opac_v,0.4,1,0.01,3,0.82,3.5,0.01,0,0.01,4,5,Valid,0,57,170,start,lin,0.3367966,0.3367966,1,0.3367966,1,TRUE,,,,,,,,,,,,,19,A,2023-09-15_10h27.49.687,exp3,2022.2.2
low_opac_v,0.4,1,0.01,3,0.82,3.5,0.01,0,0.01,4,5,Valid,0,58,171,start,lin,0.33538127,0,1,0.33538127,1,TRUE,,,,,,,,,,,,,19,A,2023-09-15_10h27.49.687,exp3,2022.2.2
low_opac_i,0.4,1,0.01,3,0.82,3.5,0.01,0,0.01,4,5,Invalid,2,58,172,start,lin,0.421253332,0,1,0.421253332,1,TRUE,,,,,,,,,,,,,19,A,2023-09-15_10h27.49.687,exp3,2022.2.2
high_opac_v,0.01,1,0.01,3,0.82,3.5,0.01,0,0.01,4,5,Valid,1,58,173,start,lin,0.134323284,0,1,0.134323284,1,TRUE,,,,,,,,,,,,,19,A,2023-09-15_10h27.49.687,exp3,2022.2.2
low_opac_v,0.4,1,0.01,3,0.82,3.5,0.01,0,0.01,4,5,Valid,0,59,174,start,lin,0.33401118,0.33401118,1,0.33401118,1,TRUE,,,,,,,,,,,,,19,A,2023-09-15_10h27.49.687,exp3,2022.2.2
low_opac_i,0.4,1,0.01,3,0.82,3.5,0.01,0,0.01,4,5,Invalid,2,59,175,start,lin,0.419607836,0,1,0.419607836,1,TRUE,,,,,,,,,,,,,19,A,2023-09-15_10h27.49.687,exp3,2022.2.2
high_opac_v,0.01,1,0.01,3,0.82,3.5,0.01,0,0.01,4,5,Valid,1,59,176,start,lin,0.132792609,0,1,0.132792609,1,TRUE,,,,,,,,,,,,,19,A,2023-09-15_10h27.49.687,exp3,2022.2.2
low_opac_i,0.4,1,0.01,3,0.82,3.5,0.01,0,0.01,4,5,Invalid,2,60,177,start,lin,0.41803211,0,1,0.41803211,1,TRUE,,,,,,,,,,,,,19,A,2023-09-15_10h27.49.687,exp3,2022.2.2
high_opac_v,0.01,1,0.01,3,0.82,3.5,0.01,0,0.01,4,5,Valid,1,60,178,start,lin,0.131291178,0.131291178,0,0.131291178,0,TRUE,,,,,,,,,,,,,19,A,2023-09-15_10h27.49.687,exp3,2022.2.2
low_opac_v,0.4,1,0.01,3,0.82,3.5,0.01,0,0.01,4,5,Valid,0,60,179,start,lin,0.332552159,0,1,0.332552159,1,TRUE,,,,,,,,,,,,,19,A,2023-09-15_10h27.49.687,exp3,2022.2.2
high_opac_v,0.01,1,0.01,3,0.82,3.5,0.01,0,0.01,4,5,Valid,1,61,180,start,lin,0.13706914,0,1,0.13706914,1,TRUE,,,,,,,,,,,,,19,A,2023-09-15_10h27.49.687,exp3,2022.2.2
low_opac_v,0.4,1,0.01,3,0.82,3.5,0.01,0,0.01,4,5,Valid,0,61,181,start,lin,0.331111886,0.331111886,1,0.331111886,1,TRUE,,,,,,,,,,,,,19,A,2023-09-15_10h27.49.687,exp3,2022.2.2
low_opac_i,0.4,1,0.01,3,0.82,3.5,0.01,0,0.01,4,5,Invalid,2,61,182,start,lin,0.416534101,0.416534101,1,0.416534101,1,TRUE,,,,,,,,,,,,,19,A,2023-09-15_10h27.49.687,exp3,2022.2.2
high_opac_v,0.01,1,0.01,3,0.82,3.5,0.01,0,0.01,4,5,Valid,1,62,183,start,lin,0.135705144,0,1,0.135705144,1,TRUE,,,,,,,,,,,,,19,A,2023-09-15_10h27.49.687,exp3,2022.2.2
low_opac_i,0.4,1,0.01,3,0.82,3.5,0.01,0,0.01,4,5,Invalid,2,62,184,start,lin,0.415096245,0,1,0.415096245,1,TRUE,,,,,,,,,,,,,19,A,2023-09-15_10h27.49.687,exp3,2022.2.2
low_opac_v,0.4,1,0.01,3,0.82,3.5,0.01,0,0.01,4,5,Valid,0,62,185,start,lin,0.329677396,0,1,0.329677396,1,TRUE,,,,,,,,,,,,,19,A,2023-09-15_10h27.49.687,exp3,2022.2.2
low_opac_i,0.4,1,0.01,3,0.82,3.5,0.01,0,0.01,4,5,Invalid,2,63,186,start,lin,0.413703094,0.413703094,0,0.413703094,0,TRUE,,,,,,,,,,,,,19,A,2023-09-15_10h27.49.687,exp3,2022.2.2
low_opac_v,0.4,1,0.01,3,0.82,3.5,0.01,0,0.01,4,5,Valid,0,63,187,start,lin,0.328291734,0.328291734,1,0.328291734,1,TRUE,,,,,,,,,,,,,19,A,2023-09-15_10h27.49.687,exp3,2022.2.2
high_opac_v,0.01,1,0.01,3,0.82,3.5,0.01,0,0.01,4,5,Valid,1,63,188,start,lin,0.134389738,0.134389738,1,0.134389738,1,TRUE,,,,,,,,,,,,,19,A,2023-09-15_10h27.49.687,exp3,2022.2.2
high_opac_v,0.01,1,0.01,3,0.82,3.5,0.01,0,0.01,4,5,Valid,1,64,189,start,lin,0.132995661,0.132995661,0,0.132995661,0,TRUE,,,,,,,,,,,,,19,A,2023-09-15_10h27.49.687,exp3,2022.2.2
low_opac_v,0.4,1,0.01,3,0.82,3.5,0.01,0,0.01,4,5,Valid,0,64,190,start,lin,0.326970054,0.326970054,1,0.326970054,1,TRUE,,,,,,,,,,,,,19,A,2023-09-15_10h27.49.687,exp3,2022.2.2
low_opac_i,0.4,1,0.01,3,0.82,3.5,0.01,0,0.01,4,5,Invalid,2,64,191,start,lin,0.419470589,0,1,0.419470589,1,TRUE,,,,,,,,,,,,,19,A,2023-09-15_10h27.49.687,exp3,2022.2.2
high_opac_v,0.01,1,0.01,3,0.82,3.5,0.01,0,0.01,4,5,Valid,1,65,192,start,lin,0.138313793,0.138313793,1,0.138313793,1,TRUE,,,,,,,,,,,,,19,A,2023-09-15_10h27.49.687,exp3,2022.2.2
low_opac_i,0.4,1,0.01,3,0.82,3.5,0.01,0,0.01,4,5,Invalid,2,65,193,start,lin,0.418039147,0,1,0.418039147,1,TRUE,,,,,,,,,,,,,19,A,2023-09-15_10h27.49.687,exp3,2022.2.2
low_opac_v,0.4,1,0.01,3,0.82,3.5,0.01,0,0.01,4,5,Valid,0,65,194,start,lin,0.325698955,0.325698955,1,0.325698955,1,TRUE,,,,,,,,,,,,,19,A,2023-09-15_10h27.49.687,exp3,2022.2.2
high_opac_v,0.01,1,0.01,3,0.82,3.5,0.01,0,0.01,4,5,Valid,1,66,195,start,lin,0.13701228,0,0,0.13701228,0,TRUE,,,,,,,,,,,,,19,A,2023-09-15_10h27.49.687,exp3,2022.2.2
low_opac_v,0.4,1,0.01,3,0.82,3.5,0.01,0,0.01,4,5,Valid,0,66,196,start,lin,0.324466498,0,1,0.324466498,1,TRUE,,,,,,,,,,,,,19,A,2023-09-15_10h27.49.687,exp3,2022.2.2
low_opac_i,0.4,1,0.01,3,0.82,3.5,0.01,0,0.01,4,5,Invalid,2,66,197,start,lin,0.416674557,0.416674557,0,0.416674557,0,TRUE,,,,,,,,,,,,,19,A,2023-09-15_10h27.49.687,exp3,2022.2.2
low_opac_v,0.4,1,0.01,3,0.82,3.5,0.01,0,0.01,4,5,Valid,0,67,198,start,lin,0.323153551,0,1,0.323153551,1,TRUE,,,,,,,,,,,,,19,A,2023-09-15_10h27.49.687,exp3,2022.2.2
low_opac_i,0.4,1,0.01,3,0.82,3.5,0.01,0,0.01,4,5,Invalid,2,67,199,start,lin,0.422508062,0.422508062,0,0.422508062,0,TRUE,,,,,,,,,,,,,19,A,2023-09-15_10h27.49.687,exp3,2022.2.2
high_opac_v,0.01,1,0.01,3,0.82,3.5,0.01,0,0.01,4,5,Valid,1,67,200,start,lin,0.142560352,0.142560352,1,0.142560352,1,TRUE,,,,,,,,,,,,,19,A,2023-09-15_10h27.49.687,exp3,2022.2.2
low_opac_v,0.4,1,0.01,3,0.82,3.5,0.01,0,0.01,4,5,Valid,0,68,201,start,lin,0.321858186,0,1,0.321858186,1,TRUE,,,,,,,,,,,,,19,A,2023-09-15_10h27.49.687,exp3,2022.2.2
low_opac_i,0.4,1,0.01,3,0.82,3.5,0.01,0,0.01,4,5,Invalid,2,68,202,start,lin,0.427852319,0,1,0.427852319,1,TRUE,,,,,,,,,,,,,19,A,2023-09-15_10h27.49.687,exp3,2022.2.2
high_opac_v,0.01,1,0.01,3,0.82,3.5,0.01,0,0.01,4,5,Valid,1,68,203,start,lin,0.141233594,0.141233594,0,0.141233594,0,TRUE,,,,,,,,,,,,,19,A,2023-09-15_10h27.49.687,exp3,2022.2.2
high_opac_v,0.01,1,0.01,3,0.82,3.5,0.01,0,0.01,4,5,Valid,1,69,204,start,lin,0.146360671,0,1,0.146360671,1,TRUE,,,,,,,,,,,,,19,A,2023-09-15_10h27.49.687,exp3,2022.2.2
low_opac_i,0.4,1,0.01,3,0.82,3.5,0.01,0,0.01,4,5,Invalid,2,69,205,start,lin,0.426569711,0,1,0.426569711,1,TRUE,,,,,,,,,,,,,19,A,2023-09-15_10h27.49.687,exp3,2022.2.2
low_opac_v,0.4,1,0.01,3,0.82,3.5,0.01,0,0.01,4,5,Valid,0,69,206,start,lin,0.320568803,0.320568803,1,0.320568803,1,TRUE,,,,,,,,,,,,,19,A,2023-09-15_10h27.49.687,exp3,2022.2.2
high_opac_v,0.01,1,0.01,3,0.82,3.5,0.01,0,0.01,4,5,Valid,1,70,207,start,lin,0.14516524,0.14516524,0,0.14516524,0,TRUE,,,,,,,,,,,,,19,A,2023-09-15_10h27.49.687,exp3,2022.2.2
low_opac_v,0.4,1,0.01,3,0.82,3.5,0.01,0,0.01,4,5,Valid,0,70,208,start,lin,0.319282344,0,1,0.319282344,1,TRUE,,,,,,,,,,,,,19,A,2023-09-15_10h27.49.687,exp3,2022.2.2
low_opac_i,0.4,1,0.01,3,0.82,3.5,0.01,0,0.01,4,5,Invalid,2,70,209,start,lin,0.425334397,0,1,0.425334397,1,TRUE,,,,,,,,,,,,,19,A,2023-09-15_10h27.49.687,exp3,2022.2.2
high_opac_v,0.01,1,0.01,3,0.82,3.5,0.01,0,0.01,4,5,Valid,1,71,210,start,lin,0.150452558,0,1,0.150452558,1,TRUE,,,,,,,,,,,,,19,A,2023-09-15_10h27.49.687,exp3,2022.2.2
low_opac_i,0.4,1,0.01,3,0.82,3.5,0.01,0,0.01,4,5,Invalid,2,71,211,start,lin,0.424135012,0.424135012,1,0.424135012,1,TRUE,,,,,,,,,,,,,19,A,2023-09-15_10h27.49.687,exp3,2022.2.2
low_opac_v,0.4,1,0.01,3,0.82,3.5,0.01,0,0.01,4,5,Valid,0,71,212,start,lin,0.318047725,0,1,0.318047725,1,TRUE,,,,,,,,,,,,,19,A,2023-09-15_10h27.49.687,exp3,2022.2.2
high_opac_v,0.01,1,0.01,3,0.82,3.5,0.01,0,0.01,4,5,Valid,1,72,213,start,lin,0.149179632,0,1,0.149179632,1,TRUE,,,,,,,,,,,,,19,A,2023-09-15_10h27.49.687,exp3,2022.2.2
low_opac_v,0.4,1,0.01,3,0.82,3.5,0.01,0,0.01,4,5,Valid,0,72,214,start,lin,0.316864544,0,1,0.316864544,1,TRUE,,,,,,,,,,,,,19,A,2023-09-15_10h27.49.687,exp3,2022.2.2
low_opac_i,0.4,1,0.01,3,0.82,3.5,0.01,0,0.01,4,5,Invalid,2,72,215,start,lin,0.422855525,0.422855525,1,0.422855525,1,TRUE,,,,,,,,,,,,,19,A,2023-09-15_10h27.49.687,exp3,2022.2.2
high_opac_v,0.01,1,0.01,3,0.82,3.5,0.01,0,0.01,4,5,Valid,1,73,216,start,lin,0.147970737,0.147970737,0,0.147970737,0,TRUE,,,,,,,,,,,,,19,A,2023-09-15_10h27.49.687,exp3,2022.2.2
low_opac_i,0.4,1,0.01,3,0.82,3.5,0.01,0,0.01,4,5,Invalid,2,73,217,start,lin,0.421591746,0,1,0.421591746,1,TRUE,,,,,,,,,,,,,19,A,2023-09-15_10h27.49.687,exp3,2022.2.2
low_opac_v,0.4,1,0.01,3,0.82,3.5,0.01,0,0.01,4,5,Valid,0,73,218,start,lin,0.315722288,0.315722288,1,0.315722288,1,TRUE,,,,,,,,,,,,,19,A,2023-09-15_10h27.49.687,exp3,2022.2.2
high_opac_v,0.01,1,0.01,3,0.82,3.5,0.01,0,0.01,4,5,Valid,1,74,219,start,lin,0.15301378,0.15301378,1,0.15301378,1,TRUE,,,,,,,,,,,,,19,A,2023-09-15_10h27.49.687,exp3,2022.2.2
low_opac_v,0.4,1,0.01,3,0.82,3.5,0.01,0,0.01,4,5,Valid,0,74,220,start,lin,0.314611485,0.314611485,1,0.314611485,1,TRUE,,,,,,,,,,,,,19,A,2023-09-15_10h27.49.687,exp3,2022.2.2
low_opac_i,0.4,1,0.01,3,0.82,3.5,0.01,0,0.01,4,5,Invalid,2,74,221,start,lin,0.420332624,0,1,0.420332624,1,TRUE,,,,,,,,,,,,,19,A,2023-09-15_10h27.49.687,exp3,2022.2.2
low_opac_i,0.4,1,0.01,3,0.82,3.5,0.01,0,0.01,4,5,Invalid,2,75,222,start,lin,0.419087811,0.419087811,1,0.419087811,1,TRUE,,,,,,,,,,,,,19,A,2023-09-15_10h27.49.687,exp3,2022.2.2
low_opac_v,0.4,1,0.01,3,0.82,3.5,0.01,0,0.01,4,5,Valid,0,75,223,start,lin,0.313425572,0.313425572,1,0.313425572,1,TRUE,,,,,,,,,,,,,19,A,2023-09-15_10h27.49.687,exp3,2022.2.2
high_opac_v,0.01,1,0.01,3,0.82,3.5,0.01,0,0.01,4,5,Valid,1,75,224,start,lin,0.151810021,0,1,0.151810021,1,TRUE,,,,,,,,,,,,,19,A,2023-09-15_10h27.49.687,exp3,2022.2.2
,,,,,,,,,,,,,,,,,,,,,,,,0,-557,Valid,signal,45,1,6.3424122,1,1,15.4243535,TRUE,2,19,A,2023-09-15_10h27.49.687,exp3,2022.2.2
,,,,,,,,,,,,,,,,,,,,,,,,0,-1716,Valid,signal,45,1,2.1889098,1,3,3.4969009,TRUE,1,19,A,2023-09-15_10h27.49.687,exp3,2022.2.2
,,,,,,,,,,,,,,,,,,,,,,,,0,-2274,Valid,noise,45,2,3.5049837,1,3,4.8130264,TRUE,1,19,A,2023-09-15_10h27.49.687,exp3,2022.2.2
,,,,,,,,,,,,,,,,,,,,,,,,0,-557,Valid,noise,-45,2,1.5714849,1,4,2.8794857,TRUE,1,19,A,2023-09-15_10h27.49.687,exp3,2022.2.2
,,,,,,,,,,,,,,,,,,,,,,,,0,-2274,Valid,signal,45,2,1.2211392,0,4,2.5289911,TRUE,1,19,A,2023-09-15_10h27.49.687,exp3,2022.2.2
,,,,,,,,,,,,,,,,,,,,,,,,0,-557,Valid,noise,45,2,1.1379939,1,4,2.4456727,TRUE,1,19,A,2023-09-15_10h27.49.687,exp3,2022.2.2
,,,,,,,,,,,,,,,,,,,,,,,,0,1716,Valid,signal,-45,1,1.5712512,1,4,2.879301,TRUE,1,19,A,2023-09-15_10h27.49.687,exp3,2022.2.2
,,,,,,,,,,,,,,,,,,,,,,,,0,1158,Valid,signal,-45,1,1.1381479,1,4,2.4461326,TRUE,1,19,A,2023-09-15_10h27.49.687,exp3,2022.2.2
,,,,,,,,,,,,,,,,,,,,,,,,0,1716,Valid,noise,45,2,1.2709496,1,3,2.5790787,TRUE,1,19,A,2023-09-15_10h27.49.687,exp3,2022.2.2
,,,,,,,,,,,,,,,,,,,,,,,,0,557,Valid,noise,45,2,1.338637,1,3,2.6463046,TRUE,1,19,A,2023-09-15_10h27.49.687,exp3,2022.2.2
,,,,,,,,,,,,,,,,,,,,,,,,0,-557,Valid,noise,-45,2,1.171606,1,3,2.4794785,TRUE,1,19,A,2023-09-15_10h27.49.687,exp3,2022.2.2
,,,,,,,,,,,,,,,,,,,,,,,,0,-2274,Valid,noise,-45,2,2.3380129,1,4,3.6460162,TRUE,1,19,A,2023-09-15_10h27.49.687,exp3,2022.2.2
,,,,,,,,,,,,,,,,,,,,,,,,0,-557,Valid,signal,-45,1,2.7887538,1,3,4.0963965,TRUE,1,19,A,2023-09-15_10h27.49.687,exp3,2022.2.2
,,,,,,,,,,,,,,,,,,,,,,,,0,-1158,Invalid,noise,45,2,1.1884927,1,3,2.4962242,TRUE,1,19,A,2023-09-15_10h27.49.687,exp3,2022.2.2
,,,,,,,,,,,,,,,,,,,,,,,,0,-1716,Valid,noise,-45,2,0.8711269,1,3,2.1790181,TRUE,1,19,A,2023-09-15_10h27.49.687,exp3,2022.2.2
,,,,,,,,,,,,,,,,,,,,,,,,0,-1158,Invalid,signal,-45,1,2.80531,1,3,4.113454,TRUE,1,19,A,2023-09-15_10h27.49.687,exp3,2022.2.2
,,,,,,,,,,,,,,,,,,,,,,,,0,2274,Valid,signal,45,1,2.738349,1,2,4.046379,TRUE,1,19,A,2023-09-15_10h27.49.687,exp3,2022.2.2
,,,,,,,,,,,,,,,,,,,,,,,,0,557,Invalid,signal,45,2,2.2889866,0,4,3.5968953,TRUE,1,19,A,2023-09-15_10h27.49.687,exp3,2022.2.2
,,,,,,,,,,,,,,,,,,,,,,,,0,1158,Valid,noise,45,2,0.9540336,1,4,2.2624352,TRUE,1,19,A,2023-09-15_10h27.49.687,exp3,2022.2.2
,,,,,,,,,,,,,,,,,,,,,,,,0,-1158,Valid,noise,45,2,1.4224742,1,4,2.7306693,TRUE,1,19,A,2023-09-15_10h27.49.687,exp3,2022.2.2
,,,,,,,,,,,,,,,,,,,,,,,,0,1716,Valid,signal,-45,1,1.7202413,1,4,3.028211,TRUE,1,19,A,2023-09-15_10h27.49.687,exp3,2022.2.2
,,,,,,,,,,,,,,,,,,,,,,,,0,2274,Valid,signal,-45,1,2.2553918,1,2,3.5634206,TRUE,1,19,A,2023-09-15_10h27.49.687,exp3,2022.2.2
,,,,,,,,,,,,,,,,,,,,,,,,0,-1158,Valid,signal,45,1,2.0216806,1,4,3.3297148,TRUE,1,19,A,2023-09-15_10h27.49.687,exp3,2022.2.2
,,,,,,,,,,,,,,,,,,,,,,,,0,1716,Invalid,noise,45,2,1.3043954,1,4,2.6124682,TRUE,1,19,A,2023-09-15_10h27.49.687,exp3,2022.2.2
,,,,,,,,,,,,,,,,,,,,,,,,0,-1158,Valid,noise,45,2,1.3380506,1,4,2.6462728,TRUE,1,19,A,2023-09-15_10h27.49.687,exp3,2022.2.2
,,,,,,,,,,,,,,,,,,,,,,,,0,-2274,Valid,signal,-45,2,1.088148,0,4,2.3958622,TRUE,1,19,A,2023-09-15_10h27.49.687,exp3,2022.2.2
,,,,,,,,,,,,,,,,,,,,,,,,0,-1716,Valid,noise,45,2,1.0212264,1,4,2.3289105,TRUE,1,19,A,2023-09-15_10h27.49.687,exp3,2022.2.2
,,,,,,,,,,,,,,,,,,,,,,,,0,-2274,Valid,signal,-45,2,0.8541529,0,4,2.1622918,TRUE,1,19,A,2023-09-15_10h27.49.687,exp3,2022.2.2
,,,,,,,,,,,,,,,,,,,,,,,,0,1716,Valid,signal,45,1,0.9879327,1,4,2.2956119,TRUE,1,19,A,2023-09-15_10h27.49.687,exp3,2022.2.2
,,,,,,,,,,,,,,,,,,,,,,,,0,-1158,Valid,signal,-45,1,1.0882969,1,4,2.3967042,TRUE,1,19,A,2023-09-15_10h27.49.687,exp3,2022.2.2
,,,,,,,,,,,,,,,,,,,,,,,,0,557,Invalid,noise,45,2,0.8208615,1,4,2.1286582,TRUE,1,19,A,2023-09-15_10h27.49.687,exp3,2022.2.2
,,,,,,,,,,,,,,,,,,,,,,,,0,557,Valid,signal,45,1,0.92079,1,4,2.2290553,TRUE,1,19,A,2023-09-15_10h27.49.687,exp3,2022.2.2
,,,,,,,,,,,,,,,,,,,,,,,,0,-1158,Invalid,noise,45,2,0.9376538,1,4,2.2456207,TRUE,1,19,A,2023-09-15_10h27.49.687,exp3,2022.2.2
,,,,,,,,,,,,,,,,,,,,,,,,0,2274,Valid,noise,-45,2,1.8045109,1,3,3.1129143,TRUE,1,19,A,2023-09-15_10h27.49.687,exp3,2022.2.2
,,,,,,,,,,,,,,,,,,,,,,,,0,-1158,Valid,signal,-45,1,3.2054361,1,4,4.5133514,TRUE,1,19,A,2023-09-15_10h27.49.687,exp3,2022.2.2
,,,,,,,,,,,,,,,,,,,,,,,,0,-557,Valid,signal,-45,1,0.9876678,1,4,2.2963296,TRUE,1,19,A,2023-09-15_10h27.49.687,exp3,2022.2.2
,,,,,,,,,,,,,,,,,,,,,,,,0,557,Valid,noise,45,2,0.8541704,1,4,2.1621204,TRUE,1,19,A,2023-09-15_10h27.49.687,exp3,2022.2.2
,,,,,,,,,,,,,,,,,,,,,,,,0,-1158,Valid,noise,45,2,0.803673,1,4,2.1127431,TRUE,1,19,A,2023-09-15_10h27.49.687,exp3,2022.2.2
,,,,,,,,,,,,,,,,,,,,,,,,0,-1716,Valid,signal,-45,1,0.8207955,1,4,2.1289952,TRUE,1,19,A,2023-09-15_10h27.49.687,exp3,2022.2.2
,,,,,,,,,,,,,,,,,,,,,,,,0,-1716,Valid,signal,45,1,1.9215947,1,4,3.2298032,TRUE,1,19,A,2023-09-15_10h27.49.687,exp3,2022.2.2
,,,,,,,,,,,,,,,,,,,,,,,,0,1716,Valid,noise,45,2,2.4378027,1,4,3.7460166,TRUE,1,19,A,2023-09-15_10h27.49.687,exp3,2022.2.2
,,,,,,,,,,,,,,,,,,,,,,,,0,1716,Invalid,signal,-45,1,1.1044862,1,4,2.4126592,TRUE,1,19,A,2023-09-15_10h27.49.687,exp3,2022.2.2
,,,,,,,,,,,,,,,,,,,,,,,,0,557,Valid,noise,45,2,1.2724169,1,4,2.5801701,TRUE,1,19,A,2023-09-15_10h27.49.687,exp3,2022.2.2
,,,,,,,,,,,,,,,,,,,,,,,,0,557,Valid,signal,-45,1,0.8202098,1,4,2.1282688,TRUE,1,19,A,2023-09-15_10h27.49.687,exp3,2022.2.2
,,,,,,,,,,,,,,,,,,,,,,,,0,-1716,Valid,noise,-45,2,1.0543225,1,4,2.3625058,TRUE,1,19,A,2023-09-15_10h27.49.687,exp3,2022.2.2
,,,,,,,,,,,,,,,,,,,,,,,,0,-557,Valid,signal,-45,1,0.8710223,1,4,2.1793694,TRUE,1,19,A,2023-09-15_10h27.49.687,exp3,2022.2.2
,,,,,,,,,,,,,,,,,,,,,,,,0,557,Valid,noise,45,2,5.2563376,1,4,6.5642277,TRUE,1,19,A,2023-09-15_10h27.49.687,exp3,2022.2.2
,,,,,,,,,,,,,,,,,,,,,,,,0,1716,Valid,signal,45,1,0.9707338,1,4,2.2788109,TRUE,1,19,A,2023-09-15_10h27.49.687,exp3,2022.2.2
,,,,,,,,,,,,,,,,,,,,,,,,0,-1716,Valid,signal,-45,2,2.1579095,0,4,3.4658672,TRUE,1,19,A,2023-09-15_10h27.49.687,exp3,2022.2.2
,,,,,,,,,,,,,,,,,,,,,,,,0,-1716,Valid,noise,-45,2,0.9010918,1,4,2.2088175,TRUE,1,19,A,2023-09-15_10h27.49.687,exp3,2022.2.2
,,,,,,,,,,,,,,,,,,,,,,,,0,1716,Valid,noise,-45,2,2.2564046,1,3,3.5640601,TRUE,1,19,A,2023-09-15_10h27.49.687,exp3,2022.2.2
,,,,,,,,,,,,,,,,,,,,,,,,0,-557,Valid,noise,-45,2,1.2375026,1,3,2.5451657,TRUE,1,19,A,2023-09-15_10h27.49.687,exp3,2022.2.2
,,,,,,,,,,,,,,,,,,,,,,,,0,557,Valid,signal,45,1,1.2369966,1,4,2.5454414,TRUE,1,19,A,2023-09-15_10h27.49.687,exp3,2022.2.2
,,,,,,,,,,,,,,,,,,,,,,,,0,-557,Invalid,noise,45,2,1.2373869,1,3,2.5461421,TRUE,1,19,A,2023-09-15_10h27.49.687,exp3,2022.2.2
,,,,,,,,,,,,,,,,,,,,,,,,0,-1716,Invalid,signal,45,2,2.8216467,0,3,4.1294981,TRUE,1,19,A,2023-09-15_10h27.49.687,exp3,2022.2.2
,,,,,,,,,,,,,,,,,,,,,,,,0,-1158,Valid,noise,45,2,1.3560899,1,4,2.6638601,TRUE,1,19,A,2023-09-15_10h27.49.687,exp3,2022.2.2
,,,,,,,,,,,,,,,,,,,,,,,,0,-2274,Invalid,signal,-45,2,1.4367277,0,4,2.744475,TRUE,1,19,A,2023-09-15_10h27.49.687,exp3,2022.2.2
,,,,,,,,,,,,,,,,,,,,,,,,0,-1716,Invalid,signal,-45,1,2.3382375,1,4,3.6462917,TRUE,1,19,A,2023-09-15_10h27.49.687,exp3,2022.2.2
,,,,,,,,,,,,,,,,,,,,,,,,0,1716,Valid,signal,-45,1,1.2878418,1,4,2.5957243,TRUE,1,19,A,2023-09-15_10h27.49.687,exp3,2022.2.2
,,,,,,,,,,,,,,,,,,,,,,,,0,-2274,Valid,noise,45,2,1.0382721,1,4,2.346127,TRUE,1,19,A,2023-09-15_10h27.49.687,exp3,2022.2.2
,,,,,,,,,,,,,,,,,,,,,,,,0,1716,Valid,signal,45,1,0.838357,1,4,2.1459959,TRUE,1,19,A,2023-09-15_10h27.49.687,exp3,2022.2.2
,,,,,,,,,,,,,,,,,,,,,,,,0,1158,Valid,noise,-45,1,2.1711441,0,4,3.4791759,TRUE,1,19,A,2023-09-15_10h27.49.687,exp3,2022.2.2
,,,,,,,,,,,,,,,,,,,,,,,,0,2274,Valid,signal,45,1,2.3215922,1,2,3.6296083,TRUE,1,19,A,2023-09-15_10h27.49.687,exp3,2022.2.2
,,,,,,,,,,,,,,,,,,,,,,,,0,-1158,Valid,noise,-45,2,1.5554101,1,4,2.8629566,TRUE,1,19,A,2023-09-15_10h27.49.687,exp3,2022.2.2
,,,,,,,,,,,,,,,,,,,,,,,,0,1158,Invalid,signal,45,1,2.1213121,1,2,3.4293388,TRUE,1,19,A,2023-09-15_10h27.49.687,exp3,2022.2.2
,,,,,,,,,,,,,,,,,,,,,,,,0,1158,Valid,noise,-45,2,1.0217346,1,4,2.3295538,TRUE,1,19,A,2023-09-15_10h27.49.687,exp3,2022.2.2
,,,,,,,,,,,,,,,,,,,,,,,,0,-1158,Valid,noise,-45,2,0.8708897,1,4,2.1786507,TRUE,1,19,A,2023-09-15_10h27.49.687,exp3,2022.2.2
,,,,,,,,,,,,,,,,,,,,,,,,0,557,Valid,signal,45,1,2.2046736,1,3,3.5127461,TRUE,1,19,A,2023-09-15_10h27.49.687,exp3,2022.2.2
,,,,,,,,,,,,,,,,,,,,,,,,0,557,Valid,noise,45,2,2.9551586,1,4,4.2633585,TRUE,1,19,A,2023-09-15_10h27.49.687,exp3,2022.2.2
,,,,,,,,,,,,,,,,,,,,,,,,0,-2274,Valid,noise,45,2,1.0541621,1,4,2.3624806,TRUE,1,19,A,2023-09-15_10h27.49.687,exp3,2022.2.2
,,,,,,,,,,,,,,,,,,,,,,,,0,-1716,Valid,noise,-45,2,2.3716649,1,4,3.6796697,TRUE,1,19,A,2023-09-15_10h27.49.687,exp3,2022.2.2
,,,,,,,,,,,,,,,,,,,,,,,,0,2274,Invalid,noise,-45,2,0.8874422,1,4,2.1958698,TRUE,1,19,A,2023-09-15_10h27.49.687,exp3,2022.2.2
,,,,,,,,,,,,,,,,,,,,,,,,0,1716,Valid,signal,-45,1,2.4501043,1,4,5.4804975,TRUE,2,19,A,2023-09-15_10h27.49.687,exp3,2022.2.2
,,,,,,,,,,,,,,,,,,,,,,,,0,2274,Valid,signal,45,2,2.7878663,0,2,4.0960643,TRUE,1,19,A,2023-09-15_10h27.49.687,exp3,2022.2.2
,,,,,,,,,,,,,,,,,,,,,,,,0,557,Valid,signal,45,1,1.805495,1,4,3.113296,TRUE,1,19,A,2023-09-15_10h27.49.687,exp3,2022.2.2
,,,,,,,,,,,,,,,,,,,,,,,,0,-1158,Valid,signal,45,1,0.9041431,1,4,2.211841,TRUE,1,19,A,2023-09-15_10h27.49.687,exp3,2022.2.2
,,,,,,,,,,,,,,,,,,,,,,,,0,557,Valid,noise,45,2,0.7380513,1,4,2.0461772,TRUE,1,19,A,2023-09-15_10h27.49.687,exp3,2022.2.2
,,,,,,,,,,,,,,,,,,,,,,,,0,1716,Valid,noise,-45,2,0.821303,1,4,2.1290667,TRUE,1,19,A,2023-09-15_10h27.49.687,exp3,2022.2.2
,,,,,,,,,,,,,,,,,,,,,,,,0,-2274,Valid,noise,-45,2,0.7873934,1,4,2.0947272,TRUE,1,19,A,2023-09-15_10h27.49.687,exp3,2022.2.2
,,,,,,,,,,,,,,,,,,,,,,,,0,2274,Valid,signal,-45,2,0.7045876,0,4,2.0125237,TRUE,1,19,A,2023-09-15_10h27.49.687,exp3,2022.2.2
,,,,,,,,,,,,,,,,,,,,,,,,0,-1716,Valid,signal,45,1,0.8211731,1,4,2.1288934,TRUE,1,19,A,2023-09-15_10h27.49.687,exp3,2022.2.2
,,,,,,,,,,,,,,,,,,,,,,,,0,-557,Invalid,signal,-45,1,0.9546244,1,4,2.2624729,TRUE,1,19,A,2023-09-15_10h27.49.687,exp3,2022.2.2
,,,,,,,,,,,,,,,,,,,,,,,,0,-557,Valid,noise,45,2,0.7868404,1,4,2.0952292,TRUE,1,19,A,2023-09-15_10h27.49.687,exp3,2022.2.2
,,,,,,,,,,,,,,,,,,,,,,,,0,557,Invalid,signal,-45,2,3.5725908,0,2,4.8802905,TRUE,1,19,A,2023-09-15_10h27.49.687,exp3,2022.2.2
,,,,,,,,,,,,,,,,,,,,,,,,0,-1716,Valid,noise,45,2,1.1878478,1,4,2.4956637,TRUE,1,19,A,2023-09-15_10h27.49.687,exp3,2022.2.2
,,,,,,,,,,,,,,,,,,,,,,,,0,2274,Valid,noise,-45,2,1.1373603,1,4,2.4459051,TRUE,1,19,A,2023-09-15_10h27.49.687,exp3,2022.2.2
,,,,,,,,,,,,,,,,,,,,,,,,0,-1158,Valid,noise,45,2,0.8877059,1,4,2.1955119,TRUE,1,19,A,2023-09-15_10h27.49.687,exp3,2022.2.2
,,,,,,,,,,,,,,,,,,,,,,,,0,-557,Valid,noise,-45,2,0.8874424,1,4,2.1956848,TRUE,1,19,A,2023-09-15_10h27.49.687,exp3,2022.2.2
,,,,,,,,,,,,,,,,,,,,,,,,0,1158,Valid,signal,-45,1,1.2048701,1,4,2.5125933,TRUE,1,19,A,2023-09-15_10h27.49.687,exp3,2022.2.2
,,,,,,,,,,,,,,,,,,,,,,,,0,1716,Valid,noise,45,2,0.7873101,1,4,2.0955892,TRUE,1,19,A,2023-09-15_10h27.49.687,exp3,2022.2.2
,,,,,,,,,,,,,,,,,,,,,,,,0,1158,Valid,signal,-45,1,0.8208699,1,4,2.128532,TRUE,1,19,A,2023-09-15_10h27.49.687,exp3,2022.2.2
,,,,,,,,,,,,,,,,,,,,,,,,0,-1716,Valid,signal,45,1,1.9545669,1,3,3.2624868,TRUE,1,19,A,2023-09-15_10h27.49.687,exp3,2022.2.2
,,,,,,,,,,,,,,,,,,,,,,,,0,1158,Valid,noise,45,2,0.8888746,1,4,2.1966018,TRUE,1,19,A,2023-09-15_10h27.49.687,exp3,2022.2.2
,,,,,,,,,,,,,,,,,,,,,,,,0,1158,Valid,noise,45,2,0.8204056,1,4,2.12852,TRUE,1,19,A,2023-09-15_10h27.49.687,exp3,2022.2.2
,,,,,,,,,,,,,,,,,,,,,,,,0,-2274,Valid,noise,-45,2,1.0701163,1,4,2.3782701,TRUE,1,19,A,2023-09-15_10h27.49.687,exp3,2022.2.2
,,,,,,,,,,,,,,,,,,,,,,,,0,-2274,Valid,signal,45,2,2.0057832,0,2,3.3132087,TRUE,1,19,A,2023-09-15_10h27.49.687,exp3,2022.2.2
,,,,,,,,,,,,,,,,,,,,,,,,0,2274,Valid,noise,45,2,1.2700228,1,4,2.5783126,TRUE,1,19,A,2023-09-15_10h27.49.687,exp3,2022.2.2
,,,,,,,,,,,,,,,,,,,,,,,,0,1158,Valid,noise,45,2,1.0055448,1,4,2.3128743,TRUE,1,19,A,2023-09-15_10h27.49.687,exp3,2022.2.2
,,,,,,,,,,,,,,,,,,,,,,,,0,1716,Valid,noise,45,2,0.7053304,1,4,2.01277,TRUE,1,19,A,2023-09-15_10h27.49.687,exp3,2022.2.2
,,,,,,,,,,,,,,,,,,,,,,,,0,-557,Valid,signal,45,1,1.087119,1,4,2.3952887,TRUE,1,19,A,2023-09-15_10h27.49.687,exp3,2022.2.2
,,,,,,,,,,,,,,,,,,,,,,,,0,-2274,Valid,signal,-45,1,1.6552161,1,2,2.9632373,TRUE,1,19,A,2023-09-15_10h27.49.687,exp3,2022.2.2
,,,,,,,,,,,,,,,,,,,,,,,,0,-1716,Invalid,noise,45,2,0.9873049,1,4,2.2952576,TRUE,1,19,A,2023-09-15_10h27.49.687,exp3,2022.2.2
,,,,,,,,,,,,,,,,,,,,,,,,0,-557,Valid,noise,-45,2,2.1379521,1,4,5.1814401,TRUE,2,19,A,2023-09-15_10h27.49.687,exp3,2022.2.2
,,,,,,,,,,,,,,,,,,,,,,,,0,-557,Valid,signal,-45,1,1.7205707,1,4,3.0284627,TRUE,1,19,A,2023-09-15_10h27.49.687,exp3,2022.2.2
,,,,,,,,,,,,,,,,,,,,,,,,0,2274,Valid,noise,-45,2,0.9706207,1,4,2.2791613,TRUE,1,19,A,2023-09-15_10h27.49.687,exp3,2022.2.2
,,,,,,,,,,,,,,,,,,,,,,,,0,1158,Valid,signal,-45,1,0.9542699,1,4,2.262104,TRUE,1,19,A,2023-09-15_10h27.49.687,exp3,2022.2.2
,,,,,,,,,,,,,,,,,,,,,,,,0,1158,Valid,signal,45,1,1.0714173,1,4,2.379217,TRUE,1,19,A,2023-09-15_10h27.49.687,exp3,2022.2.2
,,,,,,,,,,,,,,,,,,,,,,,,0,1158,Valid,noise,45,2,2.1882076,1,4,3.4960893,TRUE,1,19,A,2023-09-15_10h27.49.687,exp3,2022.2.2
,,,,,,,,,,,,,,,,,,,,,,,,0,1716,Valid,noise,45,2,0.8713596,1,4,2.178985,TRUE,1,19,A,2023-09-15_10h27.49.687,exp3,2022.2.2
,,,,,,,,,,,,,,,,,,,,,,,,0,-2274,Valid,signal,-45,2,0.8045356,0,4,2.1121242,TRUE,1,19,A,2023-09-15_10h27.49.687,exp3,2022.2.2
,,,,,,,,,,,,,,,,,,,,,,,,0,2274,Valid,signal,45,2,0.8044469,0,4,2.1124878,TRUE,1,19,A,2023-09-15_10h27.49.687,exp3,2022.2.2
,,,,,,,,,,,,,,,,,,,,,,,,0,1158,Valid,signal,45,1,0.7375021,1,4,2.0455201,TRUE,1,19,A,2023-09-15_10h27.49.687,exp3,2022.2.2
,,,,,,,,,,,,,,,,,,,,,,,,0,-2274,Valid,signal,45,2,0.8379549,0,4,2.145888,TRUE,1,19,A,2023-09-15_10h27.49.687,exp3,2022.2.2
,,,,,,,,,,,,,,,,,,,,,,,,0,2274,Valid,signal,-45,2,1.1047789,0,4,2.4127294,TRUE,1,19,A,2023-09-15_10h27.49.687,exp3,2022.2.2
,,,,,,,,,,,,,,,,,,,,,,,,0,-2274,Invalid,noise,45,2,0.8376461,1,4,2.1460406,TRUE,1,19,A,2023-09-15_10h27.49.687,exp3,2022.2.2
,,,,,,,,,,,,,,,,,,,,,,,,0,1716,Invalid,signal,45,2,1.2044919,0,4,2.5123514,TRUE,1,19,A,2023-09-15_10h27.49.687,exp3,2022.2.2
,,,,,,,,,,,,,,,,,,,,,,,,0,-2274,Valid,noise,-45,2,1.4383496,1,4,2.7462245,TRUE,1,19,A,2023-09-15_10h27.49.687,exp3,2022.2.2
,,,,,,,,,,,,,,,,,,,,,,,,0,2274,Valid,noise,-45,2,0.8207672,1,4,2.1285533,TRUE,1,19,A,2023-09-15_10h27.49.687,exp3,2022.2.2
,,,,,,,,,,,,,,,,,,,,,,,,0,-1158,Valid,noise,-45,2,1.0878025,1,4,2.3959208,TRUE,1,19,A,2023-09-15_10h27.49.687,exp3,2022.2.2
,,,,,,,,,,,,,,,,,,,,,,,,0,557,Valid,signal,-45,2,2.1047849,0,2,3.41281,TRUE,1,19,A,2023-09-15_10h27.49.687,exp3,2022.2.2
,,,,,,,,,,,,,,,,,,,,,,,,0,2274,Valid,signal,-45,2,1.3877445,0,4,2.6959782,TRUE,1,19,A,2023-09-15_10h27.49.687,exp3,2022.2.2
,,,,,,,,,,,,,,,,,,,,,,,,0,2274,Valid,signal,45,2,1.3218707,0,4,2.6297379,TRUE,1,19,A,2023-09-15_10h27.49.687,exp3,2022.2.2
,,,,,,,,,,,,,,,,,,,,,,,,0,557,Valid,noise,45,2,0.9376837,1,4,2.2458995,TRUE,1,19,A,2023-09-15_10h27.49.687,exp3,2022.2.2
,,,,,,,,,,,,,,,,,,,,,,,,0,557,Valid,signal,-45,1,0.8378381,1,4,2.1460213,TRUE,1,19,A,2023-09-15_10h27.49.687,exp3,2022.2.2
,,,,,,,,,,,,,,,,,,,,,,,,0,1158,Valid,signal,-45,1,1.0710288,1,4,2.3792348,TRUE,1,19,A,2023-09-15_10h27.49.687,exp3,2022.2.2
,,,,,,,,,,,,,,,,,,,,,,,,0,1716,Invalid,noise,-45,2,1.5554849,1,4,2.8632617,TRUE,1,19,A,2023-09-15_10h27.49.687,exp3,2022.2.2
,,,,,,,,,,,,,,,,,,,,,,,,0,-1158,Valid,signal,-45,1,1.6872705,1,4,2.9952828,TRUE,1,19,A,2023-09-15_10h27.49.687,exp3,2022.2.2
,,,,,,,,,,,,,,,,,,,,,,,,0,-557,Valid,signal,-45,1,0.8879734,1,4,2.1960029,TRUE,1,19,A,2023-09-15_10h27.49.687,exp3,2022.2.2
,,,,,,,,,,,,,,,,,,,,,,,,0,1158,Invalid,noise,45,2,1.2377413,1,4,2.5455942,TRUE,1,19,A,2023-09-15_10h27.49.687,exp3,2022.2.2
,,,,,,,,,,,,,,,,,,,,,,,,0,-1158,Valid,signal,-45,1,1.2051382,1,4,2.5130319,TRUE,1,19,A,2023-09-15_10h27.49.687,exp3,2022.2.2
,,,,,,,,,,,,,,,,,,,,,,,,0,2274,Valid,noise,-45,2,1.7211606,1,3,3.0291758,TRUE,1,19,A,2023-09-15_10h27.49.687,exp3,2022.2.2
,,,,,,,,,,,,,,,,,,,,,,,,0,557,Valid,noise,-45,2,1.4884373,1,4,2.7964539,TRUE,1,19,A,2023-09-15_10h27.49.687,exp3,2022.2.2
,,,,,,,,,,,,,,,,,,,,,,,,0,-1158,Invalid,signal,45,1,1.6606081,1,4,6.5138543,TRUE,2,19,A,2023-09-15_10h27.49.687,exp3,2022.2.2
,,,,,,,,,,,,,,,,,,,,,,,,0,557,Valid,signal,45,2,2.2886775,0,2,3.5969405,TRUE,1,19,A,2023-09-15_10h27.49.687,exp3,2022.2.2
,,,,,,,,,,,,,,,,,,,,,,,,0,-1716,Valid,signal,45,1,4.6387979,1,4,5.9469178,TRUE,1,19,A,2023-09-15_10h27.49.687,exp3,2022.2.2
,,,,,,,,,,,,,,,,,,,,,,,,0,-557,Valid,signal,45,1,2.1551324,1,4,3.4631193,TRUE,1,19,A,2023-09-15_10h27.49.687,exp3,2022.2.2
,,,,,,,,,,,,,,,,,,,,,,,,0,-2274,Valid,signal,-45,1,2.3384887,1,2,3.6464564,TRUE,1,19,A,2023-09-15_10h27.49.687,exp3,2022.2.2
,,,,,,,,,,,,,,,,,,,,,,,,0,-1716,Valid,signal,-45,1,1.6055415,1,3,2.9134463,TRUE,1,19,A,2023-09-15_10h27.49.687,exp3,2022.2.2
,,,,,,,,,,,,,,,,,,,,,,,,0,1158,Valid,signal,45,1,0.9368986,1,3,2.2448622,TRUE,1,19,A,2023-09-15_10h27.49.687,exp3,2022.2.2
,,,,,,,,,,,,,,,,,,,,,,,,0,2274,Valid,noise,45,2,2.5890416,1,4,3.8971558,TRUE,1,19,A,2023-09-15_10h27.49.687,exp3,2022.2.2
,,,,,,,,,,,,,,,,,,,,,,,,0,1158,Invalid,signal,-45,2,1.0373045,0,4,2.3454489,TRUE,1,19,A,2023-09-15_10h27.49.687,exp3,2022.2.2
,,,,,,,,,,,,,,,,,,,,,,,,0,-557,Invalid,signal,-45,2,1.2050407,0,4,2.5129779,TRUE,1,19,A,2023-09-15_10h27.49.687,exp3,2022.2.2
,,,,,,,,,,,,,,,,,,,,,,,,0,-1158,Valid,signal,-45,1,1.3546458,1,4,2.6625606,TRUE,1,19,A,2023-09-15_10h27.49.687,exp3,2022.2.2
,,,,,,,,,,,,,,,,,,,,,,,,0,557,Invalid,noise,-45,2,0.9208712,1,4,2.2287662,TRUE,1,19,A,2023-09-15_10h27.49.687,exp3,2022.2.2
,,,,,,,,,,,,,,,,,,,,,,,,0,-2274,Valid,signal,45,2,0.9713122,0,4,2.2792276,TRUE,1,19,A,2023-09-15_10h27.49.687,exp3,2022.2.2
,,,,,,,,,,,,,,,,,,,,,,,,0,-2274,Invalid,noise,-45,2,1.0883951,1,4,2.3963675,TRUE,1,19,A,2023-09-15_10h27.49.687,exp3,2022.2.2
,,,,,,,,,,,,,,,,,,,,,,,,0,1716,Valid,signal,-45,1,0.9050917,1,4,2.2125952,TRUE,1,19,A,2023-09-15_10h27.49.687,exp3,2022.2.2
,,,,,,,,,,,,,,,,,,,,,,,,0,1158,Valid,noise,45,2,1.3375636,1,4,2.6454918,TRUE,1,19,A,2023-09-15_10h27.49.687,exp3,2022.2.2
,,,,,,,,,,,,,,,,,,,,,,,,0,-1716,Invalid,noise,-45,2,0.8205778,1,4,2.1285815,TRUE,1,19,A,2023-09-15_10h27.49.687,exp3,2022.2.2
,,,,,,,,,,,,,,,,,,,,,,,,0,-1716,Valid,noise,45,2,1.1713912,1,4,2.4792836,TRUE,1,19,A,2023-09-15_10h27.49.687,exp3,2022.2.2
,,,,,,,,,,,,,,,,,,,,,,,,0,1716,Valid,signal,-45,2,1.8054223,0,2,3.1135063,TRUE,1,19,A,2023-09-15_10h27.49.687,exp3,2022.2.2
,,,,,,,,,,,,,,,,,,,,,,,,0,-1716,Valid,signal,45,2,1.9713619,0,4,3.2794005,TRUE,1,19,A,2023-09-15_10h27.49.687,exp3,2022.2.2
,,,,,,,,,,,,,,,,,,,,,,,,0,-2274,Valid,noise,45,2,1.8883661,1,2,3.1963347,TRUE,1,19,A,2023-09-15_10h27.49.687,exp3,2022.2.2
,,,,,,,,,,,,,,,,,,,,,,,,0,-557,Invalid,noise,-45,2,1.220604,1,4,2.5287364,TRUE,1,19,A,2023-09-15_10h27.49.687,exp3,2022.2.2
,,,,,,,,,,,,,,,,,,,,,,,,0,-557,Valid,noise,45,2,0.6880005,1,4,1.9959873,TRUE,1,19,A,2023-09-15_10h27.49.687,exp3,2022.2.2
,,,,,,,,,,,,,,,,,,,,,,,,0,2274,Invalid,signal,45,2,0.9220238,0,4,2.2299889,TRUE,1,19,A,2023-09-15_10h27.49.687,exp3,2022.2.2
,,,,,,,,,,,,,,,,,,,,,,,,0,-1158,Valid,signal,-45,1,1.4214389,1,4,2.7293471,TRUE,1,19,A,2023-09-15_10h27.49.687,exp3,2022.2.2
,,,,,,,,,,,,,,,,,,,,,,,,0,2274,Valid,noise,-45,2,0.7870256,1,4,2.0952358,TRUE,1,19,A,2023-09-15_10h27.49.687,exp3,2022.2.2
,,,,,,,,,,,,,,,,,,,,,,,,0,-2274,Invalid,signal,-45,2,1.5553279,0,4,2.8633451,TRUE,1,19,A,2023-09-15_10h27.49.687,exp3,2022.2.2
,,,,,,,,,,,,,,,,,,,,,,,,0,-1158,Valid,signal,45,1,1.4709819,1,4,2.7788102,TRUE,1,19,A,2023-09-15_10h27.49.687,exp3,2022.2.2
,,,,,,,,,,,,,,,,,,,,,,,,0,-557,Valid,signal,45,1,0.9546916,1,4,2.2627959,TRUE,1,19,A,2023-09-15_10h27.49.687,exp3,2022.2.2
,,,,,,,,,,,,,,,,,,,,,,,,0,-1158,Valid,noise,-45,2,1.0716909,1,4,2.3797088,TRUE,1,19,A,2023-09-15_10h27.49.687,exp3,2022.2.2
,,,,,,,,,,,,,,,,,,,,,,,,0,2274,Invalid,signal,45,2,0.9708197,0,4,2.2790581,TRUE,1,19,A,2023-09-15_10h27.49.687,exp3,2022.2.2
,,,,,,,,,,,,,,,,,,,,,,,,0,557,Valid,signal,45,1,1.055503,1,4,2.3633061,TRUE,1,19,A,2023-09-15_10h27.49.687,exp3,2022.2.2
,,,,,,,,,,,,,,,,,,,,,,,,0,557,Valid,noise,45,2,0.8541113,1,4,2.1617134,TRUE,1,19,A,2023-09-15_10h27.49.687,exp3,2022.2.2
,,,,,,,,,,,,,,,,,,,,,,,,0,2274,Valid,noise,-45,2,0.921069,1,4,2.2291323,TRUE,1,19,A,2023-09-15_10h27.49.687,exp3,2022.2.2
,,,,,,,,,,,,,,,,,,,,,,,,0,1716,Valid,noise,45,2,2.6674368,1,4,7.6314978,TRUE,3,19,A,2023-09-15_10h27.49.687,exp3,2022.2.2
,,,,,,,,,,,,,,,,,,,,,,,,0,1716,Valid,noise,45,2,1.0545402,1,4,2.3624509,TRUE,1,19,A,2023-09-15_10h27.49.687,exp3,2022.2.2
,,,,,,,,,,,,,,,,,,,,,,,,0,-1716,Valid,noise,45,2,0.8710422,1,4,2.1789555,TRUE,1,19,A,2023-09-15_10h27.49.687,exp3,2022.2.2
,,,,,,,,,,,,,,,,,,,,,,,,0,1158,Valid,noise,-45,2,0.7216968,1,4,2.0294455,TRUE,1,19,A,2023-09-15_10h27.49.687,exp3,2022.2.2
,,,,,,,,,,,,,,,,,,,,,,,,0,1158,Invalid,noise,-45,2,1.2792712,1,4,4.1966161,TRUE,2,19,A,2023-09-15_10h27.49.687,exp3,2022.2.2
,,,,,,,,,,,,,,,,,,,,,,,,0,2274,Invalid,noise,45,2,2.2556751,1,4,3.5637797,TRUE,1,19,A,2023-09-15_10h27.49.687,exp3,2022.2.2
,,,,,,,,,,,,,,,,,,,,,,,,0,-2274,Valid,noise,-45,1,1.9712377,0,1,3.2792789,TRUE,1,19,A,2023-09-15_10h27.49.687,exp3,2022.2.2
,,,,,,,,,,,,,,,,,,,,,,,,0,1158,Valid,signal,-45,1,1.5546222,1,4,2.8624957,TRUE,1,19,A,2023-09-15_10h27.49.687,exp3,2022.2.2
,,,,,,,,,,,,,,,,,,,,,,,,0,-1716,Valid,noise,45,2,1.0886865,1,4,2.3965605,TRUE,1,19,A,2023-09-15_10h27.49.687,exp3,2022.2.2
,,,,,,,,,,,,,,,,,,,,,,,,0,-557,Valid,noise,45,2,1.0384914,1,4,2.3462108,TRUE,1,19,A,2023-09-15_10h27.49.687,exp3,2022.2.2
,,,,,,,,,,,,,,,,,,,,,,,,1,-2274,Valid,noise,-45,1,4.8518513,0,3,6.160369,TRUE,1,19,A,2023-09-15_10h27.49.687,exp3,2022.2.2
,,,,,,,,,,,,,,,,,,,,,,,,2,-2274,Invalid,noise,-45,2,1.7881071,1,3,3.0962157,TRUE,1,19,A,2023-09-15_10h27.49.687,exp3,2022.2.2
,,,,,,,,,,,,,,,,,,,,,,,,3,-1716,Valid,noise,-45,2,0.8543409,1,3,2.1625346,TRUE,1,19,A,2023-09-15_10h27.49.687,exp3,2022.2.2
,,,,,,,,,,,,,,,,,,,,,,,,4,-2274,Valid,signal,45,2,0.7376462,0,3,2.0460012,TRUE,1,19,A,2023-09-15_10h27.49.687,exp3,2022.2.2
,,,,,,,,,,,,,,,,,,,,,,,,5,557,Valid,signal,-45,1,1.0212406,1,3,2.3294569,TRUE,1,19,A,2023-09-15_10h27.49.687,exp3,2022.2.2
,,,,,,,,,,,,,,,,,,,,,,,,6,557,Valid,signal,45,1,1.2207521,1,4,2.5290945,TRUE,1,19,A,2023-09-15_10h27.49.687,exp3,2022.2.2
,,,,,,,,,,,,,,,,,,,,,,,,7,-557,Valid,signal,45,1,0.9875613,1,4,2.2958961,TRUE,1,19,A,2023-09-15_10h27.49.687,exp3,2022.2.2
,,,,,,,,,,,,,,,,,,,,,,,,8,-1716,Valid,signal,-45,1,0.8544015,1,4,2.1627508,TRUE,1,19,A,2023-09-15_10h27.49.687,exp3,2022.2.2
,,,,,,,,,,,,,,,,,,,,,,,,9,-1158,Valid,signal,45,1,0.7708741,1,4,2.0789344,TRUE,1,19,A,2023-09-15_10h27.49.687,exp3,2022.2.2
,,,,,,,,,,,,,,,,,,,,,,,,10,557,Valid,noise,45,2,0.8044492,1,4,2.1126794,TRUE,1,19,A,2023-09-15_10h27.49.687,exp3,2022.2.2
,,,,,,,,,,,,,,,,,,,,,,,,11,557,Valid,signal,-45,1,0.8042495,1,4,2.1124342,TRUE,1,19,A,2023-09-15_10h27.49.687,exp3,2022.2.2
,,,,,,,,,,,,,,,,,,,,,,,,12,-1158,Valid,signal,-45,1,1.1381672,1,4,2.4462448,TRUE,1,19,A,2023-09-15_10h27.49.687,exp3,2022.2.2
,,,,,,,,,,,,,,,,,,,,,,,,13,-2274,Valid,signal,-45,2,0.9373756,0,4,2.2454416,TRUE,1,19,A,2023-09-15_10h27.49.687,exp3,2022.2.2
,,,,,,,,,,,,,,,,,,,,,,,,14,2274,Valid,signal,45,2,0.8704784,0,4,2.1790532,TRUE,1,19,A,2023-09-15_10h27.49.687,exp3,2022.2.2
,,,,,,,,,,,,,,,,,,,,,,,,15,-1158,Valid,noise,-45,2,0.9210093,1,4,2.2292524,TRUE,1,19,A,2023-09-15_10h27.49.687,exp3,2022.2.2
,,,,,,,,,,,,,,,,,,,,,,,,16,-557,Valid,signal,45,1,0.7206731,1,4,2.0295712,TRUE,1,19,A,2023-09-15_10h27.49.687,exp3,2022.2.2
,,,,,,,,,,,,,,,,,,,,,,,,17,-1716,Valid,noise,45,2,0.7712965,1,4,2.0796728,TRUE,1,19,A,2023-09-15_10h27.49.687,exp3,2022.2.2
,,,,,,,,,,,,,,,,,,,,,,,,18,-2274,Valid,noise,45,2,0.6206656,1,4,1.9288006,TRUE,1,19,A,2023-09-15_10h27.49.687,exp3,2022.2.2
,,,,,,,,,,,,,,,,,,,,,,,,19,-1158,Valid,noise,45,2,0.9039902,1,4,2.2124623,TRUE,1,19,A,2023-09-15_10h27.49.687,exp3,2022.2.2
,,,,,,,,,,,,,,,,,,,,,,,,20,1716,Valid,noise,-45,2,0.6713125,1,4,1.9795983,TRUE,1,19,A,2023-09-15_10h27.49.687,exp3,2022.2.2
,,,,,,,,,,,,,,,,,,,,,,,,21,-1158,Valid,noise,-45,2,0.6703184,1,4,1.978417,TRUE,1,19,A,2023-09-15_10h27.49.687,exp3,2022.2.2
,,,,,,,,,,,,,,,,,,,,,,,,22,1158,Valid,noise,45,2,0.6715363,1,4,1.979775,TRUE,1,19,A,2023-09-15_10h27.49.687,exp3,2022.2.2
,,,,,,,,,,,,,,,,,,,,,,,,23,1158,Valid,noise,45,2,0.7038176,1,4,2.0119795,TRUE,1,19,A,2023-09-15_10h27.49.687,exp3,2022.2.2
,,,,,,,,,,,,,,,,,,,,,,,,24,2274,Valid,signal,-45,2,1.3039281,0,4,2.6123541,TRUE,1,19,A,2023-09-15_10h27.49.687,exp3,2022.2.2
,,,,,,,,,,,,,,,,,,,,,,,,25,2274,Invalid,signal,45,2,1.0712061,0,4,2.3792111,TRUE,1,19,A,2023-09-15_10h27.49.687,exp3,2022.2.2
,,,,,,,,,,,,,,,,,,,,,,,,26,-557,Valid,signal,45,1,1.3548916,1,4,2.6630898,TRUE,1,19,A,2023-09-15_10h27.49.687,exp3,2022.2.2
,,,,,,,,,,,,,,,,,,,,,,,,27,557,Invalid,noise,45,2,1.1536621,1,4,2.4619023,TRUE,1,19,A,2023-09-15_10h27.49.687,exp3,2022.2.2
,,,,,,,,,,,,,,,,,,,,,,,,28,1716,Valid,signal,45,1,0.8539584,1,4,2.162436,TRUE,1,19,A,2023-09-15_10h27.49.687,exp3,2022.2.2
,,,,,,,,,,,,,,,,,,,,,,,,29,-557,Valid,signal,-45,1,0.8054329,1,4,2.1133322,TRUE,1,19,A,2023-09-15_10h27.49.687,exp3,2022.2.2
,,,,,,,,,,,,,,,,,,,,,,,,30,1158,Valid,signal,-45,1,0.7037326,1,4,2.0119568,TRUE,1,19,A,2023-09-15_10h27.49.687,exp3,2022.2.2
,,,,,,,,,,,,,,,,,,,,,,,,31,1716,Valid,noise,-45,2,0.854442,1,4,2.1625915,TRUE,1,19,A,2023-09-15_10h27.49.687,exp3,2022.2.2
,,,,,,,,,,,,,,,,,,,,,,,,32,1716,Valid,signal,45,1,0.7040256,1,4,2.01223,TRUE,1,19,A,2023-09-15_10h27.49.687,exp3,2022.2.2
,,,,,,,,,,,,,,,,,,,,,,,,33,-1158,Valid,signal,45,1,0.7875274,1,4,2.0957119,TRUE,1,19,A,2023-09-15_10h27.49.687,exp3,2022.2.2
,,,,,,,,,,,,,,,,,,,,,,,,34,-1716,Invalid,noise,45,2,1.1710427,1,4,2.4793028,TRUE,1,19,A,2023-09-15_10h27.49.687,exp3,2022.2.2
,,,,,,,,,,,,,,,,,,,,,,,,35,2274,Valid,noise,45,2,0.9047014,1,4,2.2128958,TRUE,1,19,A,2023-09-15_10h27.49.687,exp3,2022.2.2
,,,,,,,,,,,,,,,,,,,,,,,,36,-1158,Valid,noise,-45,2,0.8539124,1,4,2.1620889,TRUE,1,19,A,2023-09-15_10h27.49.687,exp3,2022.2.2
,,,,,,,,,,,,,,,,,,,,,,,,37,1716,Valid,noise,45,2,0.9035447,1,4,2.2121742,TRUE,1,19,A,2023-09-15_10h27.49.687,exp3,2022.2.2
,,,,,,,,,,,,,,,,,,,,,,,,38,-557,Valid,signal,45,1,1.2047256,1,4,2.5129912,TRUE,1,19,A,2023-09-15_10h27.49.687,exp3,2022.2.2
,,,,,,,,,,,,,,,,,,,,,,,,39,1158,Valid,signal,-45,1,0.9874437,1,4,2.2959214,TRUE,1,19,A,2023-09-15_10h27.49.687,exp3,2022.2.2
,,,,,,,,,,,,,,,,,,,,,,,,40,1158,Valid,noise,-45,2,0.8543147,1,4,2.1624509,TRUE,1,19,A,2023-09-15_10h27.49.687,exp3,2022.2.2
,,,,,,,,,,,,,,,,,,,,,,,,41,-2274,Valid,signal,-45,2,1.8380182,0,2,3.1464287,TRUE,1,19,A,2023-09-15_10h27.49.687,exp3,2022.2.2
,,,,,,,,,,,,,,,,,,,,,,,,42,-1716,Valid,signal,45,1,1.5876089,1,4,2.8960412,TRUE,1,19,A,2023-09-15_10h27.49.687,exp3,2022.2.2
,,,,,,,,,,,,,,,,,,,,,,,,43,-1716,Valid,noise,-45,2,1.9052426,1,3,3.213429,TRUE,1,19,A,2023-09-15_10h27.49.687,exp3,2022.2.2
,,,,,,,,,,,,,,,,,,,,,,,,44,-1158,Valid,signal,45,1,0.8539633,1,3,2.1622762,TRUE,1,19,A,2023-09-15_10h27.49.687,exp3,2022.2.2
,,,,,,,,,,,,,,,,,,,,,,,,45,-1716,Invalid,signal,-45,1,1.1375469,1,3,2.4458538,TRUE,1,19,A,2023-09-15_10h27.49.687,exp3,2022.2.2
,,,,,,,,,,,,,,,,,,,,,,,,46,-1716,Invalid,signal,45,1,1.45476,1,3,2.7631615,TRUE,1,19,A,2023-09-15_10h27.49.687,exp3,2022.2.2
,,,,,,,,,,,,,,,,,,,,,,,,47,-1158,Invalid,signal,45,2,3.0551173,0,3,4.3632281,TRUE,1,19,A,2023-09-15_10h27.49.687,exp3,2022.2.2
,,,,,,,,,,,,,,,,,,,,,,,,48,2274,Valid,signal,45,2,1.8373431,0,2,3.1458628,TRUE,1,19,A,2023-09-15_10h27.49.687,exp3,2022.2.2
,,,,,,,,,,,,,,,,,,,,,,,,49,-1716,Valid,noise,45,2,1.2380042,1,3,2.546198,TRUE,1,19,A,2023-09-15_10h27.49.687,exp3,2022.2.2
,,,,,,,,,,,,,,,,,,,,,,,,50,-2274,Valid,signal,-45,2,5.0729067,0,1,6.3810476,TRUE,1,19,A,2023-09-15_10h27.49.687,exp3,2022.2.2
,,,,,,,,,,,,,,,,,,,,,,,,51,557,Valid,signal,-45,1,1.3043239,1,4,2.6124101,TRUE,1,19,A,2023-09-15_10h27.49.687,exp3,2022.2.2
,,,,,,,,,,,,,,,,,,,,,,,,52,557,Valid,signal,45,1,1.0544525,1,4,2.3627158,TRUE,1,19,A,2023-09-15_10h27.49.687,exp3,2022.2.2
,,,,,,,,,,,,,,,,,,,,,,,,53,-1716,Valid,signal,45,1,0.7875351,1,4,2.0956574,TRUE,1,19,A,2023-09-15_10h27.49.687,exp3,2022.2.2
,,,,,,,,,,,,,,,,,,,,,,,,54,-557,Valid,noise,-45,2,1.1710246,1,4,2.4794352,TRUE,1,19,A,2023-09-15_10h27.49.687,exp3,2022.2.2
,,,,,,,,,,,,,,,,,,,,,,,,55,-557,Invalid,signal,-45,1,1.5878952,1,3,2.8962995,TRUE,1,19,A,2023-09-15_10h27.49.687,exp3,2022.2.2
,,,,,,,,,,,,,,,,,,,,,,,,56,1716,Valid,noise,-45,1,1.5547276,0,2,2.8630992,TRUE,1,19,A,2023-09-15_10h27.49.687,exp3,2022.2.2
,,,,,,,,,,,,,,,,,,,,,,,,57,1716,Valid,signal,45,1,1.2876868,1,4,2.596041,TRUE,1,19,A,2023-09-15_10h27.49.687,exp3,2022.2.2
,,,,,,,,,,,,,,,,,,,,,,,,58,1158,Valid,noise,-45,2,2.9548169,1,4,4.2631161,TRUE,1,19,A,2023-09-15_10h27.49.687,exp3,2022.2.2
,,,,,,,,,,,,,,,,,,,,,,,,59,557,Valid,noise,-45,2,2.8384138,1,4,4.1469363,TRUE,1,19,A,2023-09-15_10h27.49.687,exp3,2022.2.2
,,,,,,,,,,,,,,,,,,,,,,,,60,1158,Invalid,signal,45,1,1.5876,1,3,2.8960281,TRUE,1,19,A,2023-09-15_10h27.49.687,exp3,2022.2.2
,,,,,,,,,,,,,,,,,,,,,,,,61,1158,Valid,noise,45,2,2.8884173,1,2,4.1964835,TRUE,1,19,A,2023-09-15_10h27.49.687,exp3,2022.2.2
,,,,,,,,,,,,,,,,,,,,,,,,62,1716,Valid,signal,-45,1,1.670754,1,4,2.9792815,TRUE,1,19,A,2023-09-15_10h27.49.687,exp3,2022.2.2
,,,,,,,,,,,,,,,,,,,,,,,,63,-1716,Valid,noise,-45,2,1.0375667,1,4,2.3460398,TRUE,1,19,A,2023-09-15_10h27.49.687,exp3,2022.2.2
,,,,,,,,,,,,,,,,,,,,,,,,64,-557,Valid,noise,45,2,0.8709185,1,4,2.1793226,TRUE,1,19,A,2023-09-15_10h27.49.687,exp3,2022.2.2
,,,,,,,,,,,,,,,,,,,,,,,,65,-2274,Valid,signal,45,2,0.887486,0,4,2.1957675,TRUE,1,19,A,2023-09-15_10h27.49.687,exp3,2022.2.2
,,,,,,,,,,,,,,,,,,,,,,,,66,2274,Valid,noise,45,2,0.7542561,1,4,2.0626659,TRUE,1,19,A,2023-09-15_10h27.49.687,exp3,2022.2.2
,,,,,,,,,,,,,,,,,,,,,,,,67,2274,Valid,signal,-45,2,0.7875817,0,4,2.09588,TRUE,1,19,A,2023-09-15_10h27.49.687,exp3,2022.2.2
,,,,,,,,,,,,,,,,,,,,,,,,68,-2274,Invalid,noise,-45,2,1.2211577,1,4,2.5294767,TRUE,1,19,A,2023-09-15_10h27.49.687,exp3,2022.2.2
,,,,,,,,,,,,,,,,,,,,,,,,69,1716,Valid,noise,-45,2,1.1546237,1,4,2.4628823,TRUE,1,19,A,2023-09-15_10h27.49.687,exp3,2022.2.2
,,,,,,,,,,,,,,,,,,,,,,,,70,2274,Valid,signal,-45,2,0.7209121,0,4,2.0291545,TRUE,1,19,A,2023-09-15_10h27.49.687,exp3,2022.2.2
,,,,,,,,,,,,,,,,,,,,,,,,71,-1158,Valid,signal,45,1,0.7883248,1,4,2.0965506,TRUE,1,19,A,2023-09-15_10h27.49.687,exp3,2022.2.2
,,,,,,,,,,,,,,,,,,,,,,,,72,1158,Valid,signal,45,1,0.9039571,1,4,2.2121614,TRUE,1,19,A,2023-09-15_10h27.49.687,exp3,2022.2.2
,,,,,,,,,,,,,,,,,,,,,,,,73,-1716,Valid,signal,-45,1,1.5203623,1,4,2.8288738,TRUE,1,19,A,2023-09-15_10h27.49.687,exp3,2022.2.2
,,,,,,,,,,,,,,,,,,,,,,,,74,1716,Valid,noise,-45,2,0.6707179,1,4,1.9790691,TRUE,1,19,A,2023-09-15_10h27.49.687,exp3,2022.2.2
,,,,,,,,,,,,,,,,,,,,,,,,75,1158,Invalid,signal,45,2,0.9212193,0,4,2.2296925,TRUE,1,19,A,2023-09-15_10h27.49.687,exp3,2022.2.2
,,,,,,,,,,,,,,,,,,,,,,,,76,-1716,Valid,noise,-45,1,1.8213265,0,2,3.1293284,TRUE,1,19,A,2023-09-15_10h27.49.687,exp3,2022.2.2
,,,,,,,,,,,,,,,,,,,,,,,,77,-1716,Valid,signal,-45,1,1.1882912,1,3,2.4962132,TRUE,1,19,A,2023-09-15_10h27.49.687,exp3,2022.2.2
,,,,,,,,,,,,,,,,,,,,,,,,78,1716,Valid,signal,45,1,1.2873163,1,3,2.5956303,TRUE,1,19,A,2023-09-15_10h27.49.687,exp3,2022.2.2
,,,,,,,,,,,,,,,,,,,,,,,,79,-1158,Valid,signal,-45,1,0.8708971,1,4,2.1791282,TRUE,1,19,A,2023-09-15_10h27.49.687,exp3,2022.2.2
,,,,,,,,,,,,,,,,,,,,,,,,80,2274,Valid,noise,-45,2,1.2043079,1,2,2.5124557,TRUE,1,19,A,2023-09-15_10h27.49.687,exp3,2022.2.2
,,,,,,,,,,,,,,,,,,,,,,,,81,-557,Valid,signal,45,1,1.0044732,1,4,2.3128033,TRUE,1,19,A,2023-09-15_10h27.49.687,exp3,2022.2.2
,,,,,,,,,,,,,,,,,,,,,,,,82,557,Valid,noise,45,2,1.6880194,1,4,2.9961937,TRUE,1,19,A,2023-09-15_10h27.49.687,exp3,2022.2.2
,,,,,,,,,,,,,,,,,,,,,,,,83,-1158,Valid,signal,45,1,4.1723281,1,4,5.4804882,TRUE,1,19,A,2023-09-15_10h27.49.687,exp3,2022.2.2
,,,,,,,,,,,,,,,,,,,,,,,,84,557,Valid,noise,45,2,0.9372741,1,4,2.2460751,TRUE,1,19,A,2023-09-15_10h27.49.687,exp3,2022.2.2
,,,,,,,,,,,,,,,,,,,,,,,,85,557,Valid,noise,45,2,0.6708892,1,4,1.9791637,TRUE,1,19,A,2023-09-15_10h27.49.687,exp3,2022.2.2
,,,,,,,,,,,,,,,,,,,,,,,,86,1158,Valid,signal,-45,1,1.1374933,1,4,2.4459867,TRUE,1,19,A,2023-09-15_10h27.49.687,exp3,2022.2.2
,,,,,,,,,,,,,,,,,,,,,,,,87,1158,Valid,signal,45,1,0.9879034,1,4,2.2962027,TRUE,1,19,A,2023-09-15_10h27.49.687,exp3,2022.2.2
,,,,,,,,,,,,,,,,,,,,,,,,88,1158,Invalid,noise,45,2,1.4878308,1,3,2.7958677,TRUE,1,19,A,2023-09-15_10h27.49.687,exp3,2022.2.2
,,,,,,,,,,,,,,,,,,,,,,,,89,-2274,Invalid,signal,45,2,1.3210503,0,2,2.6293607,TRUE,1,19,A,2023-09-15_10h27.49.687,exp3,2022.2.2
,,,,,,,,,,,,,,,,,,,,,,,,90,2274,Valid,signal,-45,2,1.371419,0,2,2.6792931,TRUE,1,19,A,2023-09-15_10h27.49.687,exp3,2022.2.2
,,,,,,,,,,,,,,,,,,,,,,,,91,-1716,Invalid,noise,45,1,2.9552319,0,1,4.2633333,TRUE,1,19,A,2023-09-15_10h27.49.687,exp3,2022.2.2
,,,,,,,,,,,,,,,,,,,,,,,,92,-2274,Valid,noise,45,2,1.6884785,1,3,2.9966891,TRUE,1,19,A,2023-09-15_10h27.49.687,exp3,2022.2.2
,,,,,,,,,,,,,,,,,,,,,,,,93,-1158,Valid,noise,45,2,0.7703361,1,3,2.0786622,TRUE,1,19,A,2023-09-15_10h27.49.687,exp3,2022.2.2
,,,,,,,,,,,,,,,,,,,,,,,,94,-1716,Valid,noise,45,2,0.7706666,1,3,2.0792609,TRUE,1,19,A,2023-09-15_10h27.49.687,exp3,2022.2.2
,,,,,,,,,,,,,,,,,,,,,,,,95,-2274,Valid,noise,-45,2,0.9709737,1,3,2.2793335,TRUE,1,19,A,2023-09-15_10h27.49.687,exp3,2022.2.2
,,,,,,,,,,,,,,,,,,,,,,,,96,-557,Valid,signal,45,1,1.020878,1,3,2.3291286,TRUE,1,19,A,2023-09-15_10h27.49.687,exp3,2022.2.2
,,,,,,,,,,,,,,,,,,,,,,,,97,557,Invalid,noise,45,2,0.8711305,1,3,2.1791558,TRUE,1,19,A,2023-09-15_10h27.49.687,exp3,2022.2.2
,,,,,,,,,,,,,,,,,,,,,,,,98,-1158,Valid,signal,45,1,2.721173,1,4,4.0295515,TRUE,1,19,A,2023-09-15_10h27.49.687,exp3,2022.2.2
,,,,,,,,,,,,,,,,,,,,,,,,99,-1158,Valid,noise,45,2,0.8875406,1,4,2.1963414,TRUE,1,19,A,2023-09-15_10h27.49.687,exp3,2022.2.2
,,,,,,,,,,,,,,,,,,,,,,,,100,-557,Valid,signal,-45,2,1.5547877,0,2,2.8629363,TRUE,1,19,A,2023-09-15_10h27.49.687,exp3,2022.2.2
,,,,,,,,,,,,,,,,,,,,,,,,101,1158,Valid,signal,45,1,1.2878303,1,4,2.5960502,TRUE,1,19,A,2023-09-15_10h27.49.687,exp3,2022.2.2
,,,,,,,,,,,,,,,,,,,,,,,,102,1158,Valid,noise,45,2,1.6214399,1,4,2.9297008,TRUE,1,19,A,2023-09-15_10h27.49.687,exp3,2022.2.2
,,,,,,,,,,,,,,,,,,,,,,,,103,-1716,Valid,signal,-45,1,1.2210217,1,4,2.5293687,TRUE,1,19,A,2023-09-15_10h27.49.687,exp3,2022.2.2
,,,,,,,,,,,,,,,,,,,,,,,,104,557,Invalid,signal,-45,2,1.3709927,0,4,2.6790125,TRUE,1,19,A,2023-09-15_10h27.49.687,exp3,2022.2.2
,,,,,,,,,,,,,,,,,,,,,,,,105,-557,Valid,noise,-45,2,0.7873065,1,4,2.095802,TRUE,1,19,A,2023-09-15_10h27.49.687,exp3,2022.2.2
,,,,,,,,,,,,,,,,,,,,,,,,106,1716,Invalid,noise,-45,2,1.0372218,1,4,2.3455344,TRUE,1,19,A,2023-09-15_10h27.49.687,exp3,2022.2.2
,,,,,,,,,,,,,,,,,,,,,,,,107,2274,Valid,signal,45,2,0.8552431,0,4,2.1633855,TRUE,1,19,A,2023-09-15_10h27.49.687,exp3,2022.2.2
,,,,,,,,,,,,,,,,,,,,,,,,108,1716,Valid,noise,-45,2,0.8200605,1,4,2.1282255,TRUE,1,19,A,2023-09-15_10h27.49.687,exp3,2022.2.2
,,,,,,,,,,,,,,,,,,,,,,,,109,-1158,Invalid,signal,-45,1,0.937738,1,4,2.2460923,TRUE,1,19,A,2023-09-15_10h27.49.687,exp3,2022.2.2
,,,,,,,,,,,,,,,,,,,,,,,,110,-1716,Valid,signal,-45,1,1.4880183,1,4,2.7962399,TRUE,1,19,A,2023-09-15_10h27.49.687,exp3,2022.2.2
,,,,,,,,,,,,,,,,,,,,,,,,111,-2274,Valid,noise,-45,2,1.6042586,1,3,2.9128334,TRUE,1,19,A,2023-09-15_10h27.49.687,exp3,2022.2.2
,,,,,,,,,,,,,,,,,,,,,,,,112,1158,Valid,noise,45,2,1.2212056,1,3,2.5293416,TRUE,1,19,A,2023-09-15_10h27.49.687,exp3,2022.2.2
,,,,,,,,,,,,,,,,,,,,,,,,113,1158,Valid,signal,-45,1,1.2540504,1,3,2.5624785,TRUE,1,19,A,2023-09-15_10h27.49.687,exp3,2022.2.2
,,,,,,,,,,,,,,,,,,,,,,,,114,-2274,Valid,signal,45,2,1.1714821,0,3,2.4796239,TRUE,1,19,A,2023-09-15_10h27.49.687,exp3,2022.2.2
,,,,,,,,,,,,,,,,,,,,,,,,115,-2274,Valid,noise,-45,2,1.0380248,1,3,2.346045,TRUE,1,19,A,2023-09-15_10h27.49.687,exp3,2022.2.2
,,,,,,,,,,,,,,,,,,,,,,,,116,-1716,Valid,signal,45,1,1.6035847,1,4,2.9120065,TRUE,1,19,A,2023-09-15_10h27.49.687,exp3,2022.2.2
,,,,,,,,,,,,,,,,,,,,,,,,117,2274,Invalid,signal,-45,2,1.321159,0,3,2.6294812,TRUE,1,19,A,2023-09-15_10h27.49.687,exp3,2022.2.2
,,,,,,,,,,,,,,,,,,,,,,,,118,-1158,Valid,signal,-45,1,1.4541134,1,4,2.7623299,TRUE,1,19,A,2023-09-15_10h27.49.687,exp3,2022.2.2
,,,,,,,,,,,,,,,,,,,,,,,,119,557,Valid,signal,-45,1,1.0378665,1,4,2.3460063,TRUE,1,19,A,2023-09-15_10h27.49.687,exp3,2022.2.2
,,,,,,,,,,,,,,,,,,,,,,,,120,-1158,Valid,noise,45,2,1.2892077,1,4,2.597486,TRUE,1,19,A,2023-09-15_10h27.49.687,exp3,2022.2.2
,,,,,,,,,,,,,,,,,,,,,,,,121,1716,Valid,signal,-45,1,1.3027277,1,4,2.6111524,TRUE,1,19,A,2023-09-15_10h27.49.687,exp3,2022.2.2
,,,,,,,,,,,,,,,,,,,,,,,,122,1158,Valid,signal,45,1,1.6042482,1,4,2.912342,TRUE,1,19,A,2023-09-15_10h27.49.687,exp3,2022.2.2
,,,,,,,,,,,,,,,,,,,,,,,,123,1158,Valid,noise,-45,2,0.8542204,1,4,2.1626885,TRUE,1,19,A,2023-09-15_10h27.49.687,exp3,2022.2.2
,,,,,,,,,,,,,,,,,,,,,,,,124,557,Valid,noise,-45,2,2.2883414,1,3,3.5966469,TRUE,1,19,A,2023-09-15_10h27.49.687,exp3,2022.2.2
,,,,,,,,,,,,,,,,,,,,,,,,125,-2274,Valid,noise,-45,2,1.320781,1,2,2.6289068,TRUE,1,19,A,2023-09-15_10h27.49.687,exp3,2022.2.2
,,,,,,,,,,,,,,,,,,,,,,,,126,1716,Invalid,signal,-45,2,1.2044874,0,3,2.513009,TRUE,1,19,A,2023-09-15_10h27.49.687,exp3,2022.2.2
,,,,,,,,,,,,,,,,,,,,,,,,127,-557,Valid,noise,-45,2,0.7363367,1,3,2.0452762,TRUE,1,19,A,2023-09-15_10h27.49.687,exp3,2022.2.2
,,,,,,,,,,,,,,,,,,,,,,,,128,1716,Valid,noise,45,2,0.938029,1,3,2.2461044,TRUE,1,19,A,2023-09-15_10h27.49.687,exp3,2022.2.2
,,,,,,,,,,,,,,,,,,,,,,,,129,2274,Invalid,noise,-45,2,1.438251,1,2,2.7463805,TRUE,1,19,A,2023-09-15_10h27.49.687,exp3,2022.2.2
,,,,,,,,,,,,,,,,,,,,,,,,130,557,Invalid,signal,-45,2,2.2541305,0,3,3.561778,TRUE,1,19,A,2023-09-15_10h27.49.687,exp3,2022.2.2
,,,,,,,,,,,,,,,,,,,,,,,,131,557,Valid,signal,45,1,1.7710173,1,4,3.0793641,TRUE,1,19,A,2023-09-15_10h27.49.687,exp3,2022.2.2
,,,,,,,,,,,,,,,,,,,,,,,,132,-1716,Valid,signal,-45,2,0.8706621,0,4,2.1788528,TRUE,1,19,A,2023-09-15_10h27.49.687,exp3,2022.2.2
,,,,,,,,,,,,,,,,,,,,,,,,133,-557,Valid,noise,-45,2,1.6032898,1,3,2.9125295,TRUE,1,19,A,2023-09-15_10h27.49.687,exp3,2022.2.2
,,,,,,,,,,,,,,,,,,,,,,,,134,1716,Valid,signal,-45,1,1.1211372,1,3,2.4293405,TRUE,1,19,A,2023-09-15_10h27.49.687,exp3,2022.2.2
,,,,,,,,,,,,,,,,,,,,,,,,135,-2274,Valid,signal,-45,2,0.8872598,0,3,2.1958178,TRUE,1,19,A,2023-09-15_10h27.49.687,exp3,2022.2.2
,,,,,,,,,,,,,,,,,,,,,,,,136,-2274,Invalid,signal,45,2,1.3375888,0,2,2.6457959,TRUE,1,19,A,2023-09-15_10h27.49.687,exp3,2022.2.2
,,,,,,,,,,,,,,,,,,,,,,,,137,-1716,Valid,noise,45,2,1.0877817,1,3,2.3964579,TRUE,1,19,A,2023-09-15_10h27.49.687,exp3,2022.2.2
,,,,,,,,,,,,,,,,,,,,,,,,138,-557,Valid,signal,-45,1,1.6371416,1,4,2.945196,TRUE,1,19,A,2023-09-15_10h27.49.687,exp3,2022.2.2
,,,,,,,,,,,,,,,,,,,,,,,,139,-557,Valid,noise,45,2,1.1202835,1,3,2.4287063,TRUE,1,19,A,2023-09-15_10h27.49.687,exp3,2022.2.2
,,,,,,,,,,,,,,,,,,,,,,,,140,-2274,Valid,noise,45,2,0.8706459,1,3,2.1789982,TRUE,1,19,A,2023-09-15_10h27.49.687,exp3,2022.2.2
,,,,,,,,,,,,,,,,,,,,,,,,141,2274,Valid,noise,-45,2,0.7368183,1,3,2.0452692,TRUE,1,19,A,2023-09-15_10h27.49.687,exp3,2022.2.2
,,,,,,,,,,,,,,,,,,,,,,,,142,1716,Invalid,signal,-45,2,1.0369308,0,3,2.345322,TRUE,1,19,A,2023-09-15_10h27.49.687,exp3,2022.2.2
,,,,,,,,,,,,,,,,,,,,,,,,143,-557,Invalid,signal,45,1,1.0038574,1,3,2.3121264,TRUE,1,19,A,2023-09-15_10h27.49.687,exp3,2022.2.2
,,,,,,,,,,,,,,,,,,,,,,,,144,-1158,Valid,noise,45,2,0.8375437,1,3,2.1464121,TRUE,1,19,A,2023-09-15_10h27.49.687,exp3,2022.2.2
,,,,,,,,,,,,,,,,,,,,,,,,145,1716,Valid,signal,-45,1,0.8865161,1,3,2.195539,TRUE,1,19,A,2023-09-15_10h27.49.687,exp3,2022.2.2
,,,,,,,,,,,,,,,,,,,,,,,,146,1716,Valid,noise,-45,2,1.3882785,1,3,2.6964407,TRUE,1,19,A,2023-09-15_10h27.49.687,exp3,2022.2.2
,,,,,,,,,,,,,,,,,,,,,,,,147,-2274,Valid,signal,45,2,1.2373771,0,2,2.5458777,TRUE,1,19,A,2023-09-15_10h27.49.687,exp3,2022.2.2
,,,,,,,,,,,,,,,,,,,,,,,,148,2274,Valid,noise,45,2,0.9536451,1,2,2.2623508,TRUE,1,19,A,2023-09-15_10h27.49.687,exp3,2022.2.2
,,,,,,,,,,,,,,,,,,,,,,,,149,-1158,Invalid,noise,-45,2,0.7710194,1,2,2.0790149,TRUE,1,19,A,2023-09-15_10h27.49.687,exp3,2022.2.2
,,,,,,,,,,,,,,,,,,,,,,,,150,-557,Valid,noise,-45,2,0.686305,1,2,1.9949673,TRUE,1,19,A,2023-09-15_10h27.49.687,exp3,2022.2.2
,,,,,,,,,,,,,,,,,,,,,,,,151,557,Valid,noise,45,2,0.8554982,1,2,2.1638712,TRUE,1,19,A,2023-09-15_10h27.49.687,exp3,2022.2.2
,,,,,,,,,,,,,,,,,,,,,,,,152,2274,Valid,noise,-45,2,0.8534844,1,2,2.1619121,TRUE,1,19,A,2023-09-15_10h27.49.687,exp3,2022.2.2
,,,,,,,,,,,,,,,,,,,,,,,,153,1716,Invalid,noise,-45,2,1.2703905,1,2,2.578541,TRUE,1,19,A,2023-09-15_10h27.49.687,exp3,2022.2.2
,,,,,,,,,,,,,,,,,,,,,,,,154,-1158,Invalid,noise,-45,2,1.0041573,1,2,2.3121404,TRUE,1,19,A,2023-09-15_10h27.49.687,exp3,2022.2.2
,,,,,,,,,,,,,,,,,,,,,,,,155,557,Valid,noise,45,2,0.8538496,1,2,2.1625076,TRUE,1,19,A,2023-09-15_10h27.49.687,exp3,2022.2.2
,,,,,,,,,,,,,,,,,,,,,,,,156,557,Valid,signal,-45,1,1.1540251,1,4,2.4623263,TRUE,1,19,A,2023-09-15_10h27.49.687,exp3,2022.2.2
,,,,,,,,,,,,,,,,,,,,,,,,157,-2274,Valid,signal,45,2,1.3047565,0,1,2.6127995,TRUE,1,19,A,2023-09-15_10h27.49.687,exp3,2022.2.2
,,,,,,,,,,,,,,,,,,,,,,,,158,-557,Invalid,noise,-45,2,0.8209911,1,4,2.129371,TRUE,1,19,A,2023-09-15_10h27.49.687,exp3,2022.2.2
,,,,,,,,,,,,,,,,,,,,,,,,159,2274,Valid,signal,-45,2,0.9870149,0,4,2.2953484,TRUE,1,19,A,2023-09-15_10h27.49.687,exp3,2022.2.2
,,,,,,,,,,,,,,,,,,,,,,,,160,2274,Valid,signal,-45,2,1.4543519,0,2,2.7628964,TRUE,1,19,A,2023-09-15_10h27.49.687,exp3,2022.2.2
,,,,,,,,,,,,,,,,,,,,,,,,161,-557,Valid,noise,-45,2,1.4874554,1,4,2.7959234,TRUE,1,19,A,2023-09-15_10h27.49.687,exp3,2022.2.2
,,,,,,,,,,,,,,,,,,,,,,,,162,2274,Invalid,noise,-45,2,0.8546612,1,4,2.1624424,TRUE,1,19,A,2023-09-15_10h27.49.687,exp3,2022.2.2
,,,,,,,,,,,,,,,,,,,,,,,,163,1158,Valid,noise,-45,2,0.7687962,1,4,2.0773677,TRUE,1,19,A,2023-09-15_10h27.49.687,exp3,2022.2.2
,,,,,,,,,,,,,,,,,,,,,,,,164,-1158,Valid,noise,45,2,0.7202064,1,4,2.0290834,TRUE,1,19,A,2023-09-15_10h27.49.687,exp3,2022.2.2
,,,,,,,,,,,,,,,,,,,,,,,,165,557,Valid,signal,-45,1,0.9973886,1,4,4.1298589,TRUE,2,19,A,2023-09-15_10h27.49.687,exp3,2022.2.2
,,,,,,,,,,,,,,,,,,,,,,,,166,1716,Valid,signal,-45,1,1.5041691,1,2,2.8124761,TRUE,1,19,A,2023-09-15_10h27.49.687,exp3,2022.2.2
,,,,,,,,,,,,,,,,,,,,,,,,167,1158,Invalid,noise,-45,2,1.2368594,1,3,2.5457741,TRUE,1,19,A,2023-09-15_10h27.49.687,exp3,2022.2.2
,,,,,,,,,,,,,,,,,,,,,,,,168,-2274,Valid,noise,-45,2,1.1213054,1,2,2.4295892,TRUE,1,19,A,2023-09-15_10h27.49.687,exp3,2022.2.2
,,,,,,,,,,,,,,,,,,,,,,,,169,-557,Invalid,noise,45,2,1.0375559,1,2,2.3465233,TRUE,1,19,A,2023-09-15_10h27.49.687,exp3,2022.2.2
,,,,,,,,,,,,,,,,,,,,,,,,170,-557,Valid,noise,-45,2,1.3527235,1,2,2.6616393,TRUE,1,19,A,2023-09-15_10h27.49.687,exp3,2022.2.2
,,,,,,,,,,,,,,,,,,,,,,,,171,2274,Valid,noise,45,2,3.6386159,1,1,4.9467249,TRUE,1,19,A,2023-09-15_10h27.49.687,exp3,2022.2.2
,,,,,,,,,,,,,,,,,,,,,,,,172,1158,Valid,signal,-45,1,1.2540461,1,4,2.5628496,TRUE,1,19,A,2023-09-15_10h27.49.687,exp3,2022.2.2
,,,,,,,,,,,,,,,,,,,,,,,,173,557,Valid,noise,-45,2,0.9711142,1,4,2.2792459,TRUE,1,19,A,2023-09-15_10h27.49.687,exp3,2022.2.2
,,,,,,,,,,,,,,,,,,,,,,,,174,-1716,Valid,noise,-45,2,0.9369062,1,4,2.2451345,TRUE,1,19,A,2023-09-15_10h27.49.687,exp3,2022.2.2
,,,,,,,,,,,,,,,,,,,,,,,,175,2274,Valid,noise,45,2,2.4043249,1,2,3.7130645,TRUE,1,19,A,2023-09-15_10h27.49.687,exp3,2022.2.2
,,,,,,,,,,,,,,,,,,,,,,,,176,2274,Valid,noise,-45,2,1.1542849,1,2,2.4623978,TRUE,1,19,A,2023-09-15_10h27.49.687,exp3,2022.2.2
,,,,,,,,,,,,,,,,,,,,,,,,2,-1158,Valid,signal,45,2,1.9519602,0,2,3.2606722,TRUE,1,19,A,2023-09-15_10h27.49.687,exp3,2022.2.2
,,,,,,,,,,,,,,,,,,,,,,,,4,1716,Valid,signal,45,1,1.2867165,1,4,2.595359,TRUE,1,19,A,2023-09-15_10h27.49.687,exp3,2022.2.2
,,,,,,,,,,,,,,,,,,,,,,,,6,557,Valid,noise,45,2,1.3210781,1,4,2.6293951,TRUE,1,19,A,2023-09-15_10h27.49.687,exp3,2022.2.2
,,,,,,,,,,,,,,,,,,,,,,,,8,-2274,Valid,signal,45,2,1.2535476,0,1,2.5620471,TRUE,1,19,A,2023-09-15_10h27.49.687,exp3,2022.2.2
,,,,,,,,,,,,,,,,,,,,,,,,10,1158,Valid,noise,45,2,1.9715074,1,3,3.2798211,TRUE,1,19,A,2023-09-15_10h27.49.687,exp3,2022.2.2
,,,,,,,,,,,,,,,,,,,,,,,,12,1716,Valid,signal,-45,1,0.9370526,1,3,2.2455159,TRUE,1,19,A,2023-09-15_10h27.49.687,exp3,2022.2.2
,,,,,,,,,,,,,,,,,,,,,,,,14,-557,Valid,signal,45,1,1.1539772,1,4,2.4626113,TRUE,1,19,A,2023-09-15_10h27.49.687,exp3,2022.2.2
,,,,,,,,,,,,,,,,,,,,,,,,16,2274,Valid,signal,-45,2,0.9541328,0,4,2.262598,TRUE,1,19,A,2023-09-15_10h27.49.687,exp3,2022.2.2
,,,,,,,,,,,,,,,,,,,,,,,,18,1716,Valid,signal,45,1,1.2705941,1,4,2.5792302,TRUE,1,19,A,2023-09-15_10h27.49.687,exp3,2022.2.2
,,,,,,,,,,,,,,,,,,,,,,,,20,-2274,Valid,noise,45,2,1.204649,1,2,2.5132274,TRUE,1,19,A,2023-09-15_10h27.49.687,exp3,2022.2.2
,,,,,,,,,,,,,,,,,,,,,,,,22,1158,Valid,signal,-45,1,1.5700742,1,4,2.8784343,TRUE,1,19,A,2023-09-15_10h27.49.687,exp3,2022.2.2
,,,,,,,,,,,,,,,,,,,,,,,,24,-2274,Valid,signal,-45,2,1.5376878,0,3,2.8464961,TRUE,1,19,A,2023-09-15_10h27.49.687,exp3,2022.2.2
,,,,,,,,,,,,,,,,,,,,,,,,26,-1716,Invalid,noise,-45,2,0.8541038,1,3,2.1627991,TRUE,1,19,A,2023-09-15_10h27.49.687,exp3,2022.2.2
,,,,,,,,,,,,,,,,,,,,,,,,28,-2274,Valid,signal,45,2,1.304091,0,3,2.612545,TRUE,1,19,A,2023-09-15_10h27.49.687,exp3,2022.2.2
,,,,,,,,,,,,,,,,,,,,,,,,30,-2274,Valid,noise,-45,2,0.787228,1,3,2.0958624,TRUE,1,19,A,2023-09-15_10h27.49.687,exp3,2022.2.2
,,,,,,,,,,,,,,,,,,,,,,,,32,2274,Valid,noise,45,2,1.1872856,1,3,2.4959883,TRUE,1,19,A,2023-09-15_10h27.49.687,exp3,2022.2.2
,,,,,,,,,,,,,,,,,,,,,,,,34,-557,Valid,noise,45,2,0.8370333,1,3,2.1456404,TRUE,1,19,A,2023-09-15_10h27.49.687,exp3,2022.2.2
,,,,,,,,,,,,,,,,,,,,,,,,36,-1716,Invalid,noise,-45,2,1.7045212,1,3,3.0130868,TRUE,1,19,A,2023-09-15_10h27.49.687,exp3,2022.2.2
,,,,,,,,,,,,,,,,,,,,,,,,38,1158,Valid,noise,-45,2,0.5704651,1,3,1.8793974,TRUE,1,19,A,2023-09-15_10h27.49.687,exp3,2022.2.2
,,,,,,,,,,,,,,,,,,,,,,,,40,-557,Valid,signal,45,1,1.7375548,1,4,3.0461683,TRUE,1,19,A,2023-09-15_10h27.49.687,exp3,2022.2.2
,,,,,,,,,,,,,,,,,,,,,,,,42,557,Valid,noise,45,2,1.253886,1,3,2.56243,TRUE,1,19,A,2023-09-15_10h27.49.687,exp3,2022.2.2
,,,,,,,,,,,,,,,,,,,,,,,,44,-2274,Valid,noise,45,2,1.4211004,1,1,2.7294723,TRUE,1,19,A,2023-09-15_10h27.49.687,exp3,2022.2.2
,,,,,,,,,,,,,,,,,,,,,,,,46,-557,Valid,signal,-45,1,1.1212297,1,4,2.4296344,TRUE,1,19,A,2023-09-15_10h27.49.687,exp3,2022.2.2
,,,,,,,,,,,,,,,,,,,,,,,,48,-1716,Invalid,signal,-45,1,0.8199296,1,4,2.1284746,TRUE,1,19,A,2023-09-15_10h27.49.687,exp3,2022.2.2
,,,,,,,,,,,,,,,,,,,,,,,,50,-2274,Invalid,signal,-45,1,1.6371954,1,2,2.9463951,TRUE,1,19,A,2023-09-15_10h27.49.687,exp3,2022.2.2
,,,,,,,,,,,,,,,,,,,,,,,,52,-557,Invalid,noise,45,2,1.0542657,1,4,2.3628079,TRUE,1,19,A,2023-09-15_10h27.49.687,exp3,2022.2.2
,,,,,,,,,,,,,,,,,,,,,,,,54,2274,Valid,noise,-45,2,0.8702668,1,4,2.178774,TRUE,1,19,A,2023-09-15_10h27.49.687,exp3,2022.2.2
,,,,,,,,,,,,,,,,,,,,,,,,56,-557,Valid,noise,-45,2,0.8540128,1,4,2.1623798,TRUE,1,19,A,2023-09-15_10h27.49.687,exp3,2022.2.2
,,,,,,,,,,,,,,,,,,,,,,,,58,-1158,Valid,signal,45,1,0.6869365,1,4,1.9959828,TRUE,1,19,A,2023-09-15_10h27.49.687,exp3,2022.2.2
,,,,,,,,,,,,,,,,,,,,,,,,60,-2274,Valid,noise,45,2,1.454249,1,2,2.7628592,TRUE,1,19,A,2023-09-15_10h27.49.687,exp3,2022.2.2
,,,,,,,,,,,,,,,,,,,,,,,,62,557,Valid,noise,45,2,1.771009,1,3,3.0797034,TRUE,1,19,A,2023-09-15_10h27.49.687,exp3,2022.2.2
,,,,,,,,,,,,,,,,,,,,,,,,64,-2274,Valid,noise,45,2,1.3216796,1,2,2.6298338,TRUE,1,19,A,2023-09-15_10h27.49.687,exp3,2022.2.2
,,,,,,,,,,,,,,,,,,,,,,,,66,1716,Valid,signal,45,1,1.3702675,1,4,2.678522,TRUE,1,19,A,2023-09-15_10h27.49.687,exp3,2022.2.2
,,,,,,,,,,,,,,,,,,,,,,,,68,2274,Valid,signal,-45,2,0.9376386,0,3,2.2460199,TRUE,1,19,A,2023-09-15_10h27.49.687,exp3,2022.2.2
,,,,,,,,,,,,,,,,,,,,,,,,70,-557,Valid,noise,-45,2,0.6867496,1,3,1.9954316,TRUE,1,19,A,2023-09-15_10h27.49.687,exp3,2022.2.2
,,,,,,,,,,,,,,,,,,,,,,,,72,-1716,Valid,noise,-45,2,0.7873167,1,3,2.0960087,TRUE,1,19,A,2023-09-15_10h27.49.687,exp3,2022.2.2
,,,,,,,,,,,,,,,,,,,,,,,,74,1716,Invalid,noise,45,2,0.7373312,1,3,2.0459379,TRUE,1,19,A,2023-09-15_10h27.49.687,exp3,2022.2.2
,,,,,,,,,,,,,,,,,,,,,,,,76,1158,Valid,signal,45,1,0.9375736,1,3,2.2460364,TRUE,1,19,A,2023-09-15_10h27.49.687,exp3,2022.2.2
,,,,,,,,,,,,,,,,,,,,,,,,78,-557,Invalid,signal,-45,1,1.586759,1,3,2.8958912,TRUE,1,19,A,2023-09-15_10h27.49.687,exp3,2022.2.2
,,,,,,,,,,,,,,,,,,,,,,,,80,1716,Valid,noise,-45,2,0.8376321,1,3,2.1463795,TRUE,1,19,A,2023-09-15_10h27.49.687,exp3,2022.2.2
,,,,,,,,,,,,,,,,,,,,,,,,82,1158,Valid,signal,-45,1,1.0701262,1,3,2.3787062,TRUE,1,19,A,2023-09-15_10h27.49.687,exp3,2022.2.2
,,,,,,,,,,,,,,,,,,,,,,,,84,1716,Valid,noise,-45,2,1.0539019,1,4,2.3626277,TRUE,1,19,A,2023-09-15_10h27.49.687,exp3,2022.2.2
,,,,,,,,,,,,,,,,,,,,,,,,86,557,Invalid,noise,-45,2,1.2374674,1,4,2.5460831,TRUE,1,19,A,2023-09-15_10h27.49.687,exp3,2022.2.2
,,,,,,,,,,,,,,,,,,,,,,,,88,-1716,Valid,signal,-45,1,0.720565,1,4,2.0293185,TRUE,1,19,A,2023-09-15_10h27.49.687,exp3,2022.2.2
,,,,,,,,,,,,,,,,,,,,,,,,90,1716,Valid,noise,45,2,1.1041352,1,4,2.41274,TRUE,1,19,A,2023-09-15_10h27.49.687,exp3,2022.2.2
,,,,,,,,,,,,,,,,,,,,,,,,92,1716,Valid,noise,45,2,0.603778,1,4,1.9122158,TRUE,1,19,A,2023-09-15_10h27.49.687,exp3,2022.2.2
,,,,,,,,,,,,,,,,,,,,,,,,94,1158,Valid,noise,-45,2,0.937473,1,4,2.2461738,TRUE,1,19,A,2023-09-15_10h27.49.687,exp3,2022.2.2
,,,,,,,,,,,,,,,,,,,,,,,,96,1158,Valid,noise,-45,2,0.8205257,1,4,2.1290705,TRUE,1,19,A,2023-09-15_10h27.49.687,exp3,2022.2.2
,,,,,,,,,,,,,,,,,,,,,,,,98,2274,Invalid,signal,-45,2,0.6533605,0,4,1.9622273,TRUE,1,19,A,2023-09-15_10h27.49.687,exp3,2022.2.2
,,,,,,,,,,,,,,,,,,,,,,,,100,-1716,Invalid,signal,45,1,0.8376195,1,4,2.146225,TRUE,1,19,A,2023-09-15_10h27.49.687,exp3,2022.2.2
,,,,,,,,,,,,,,,,,,,,,,,,102,-557,Valid,signal,45,1,0.7207605,1,4,2.0293925,TRUE,1,19,A,2023-09-15_10h27.49.687,exp3,2022.2.2
,,,,,,,,,,,,,,,,,,,,,,,,104,2274,Valid,noise,-45,2,1.9374455,1,3,3.2460675,TRUE,1,19,A,2023-09-15_10h27.49.687,exp3,2022.2.2
,,,,,,,,,,,,,,,,,,,,,,,,106,1158,Invalid,signal,45,2,1.4044501,0,3,2.7130723,TRUE,1,19,A,2023-09-15_10h27.49.687,exp3,2022.2.2
,,,,,,,,,,,,,,,,,,,,,,,,108,-1716,Valid,signal,45,2,1.6542265,0,2,2.9627657,TRUE,1,19,A,2023-09-15_10h27.49.687,exp3,2022.2.2
,,,,,,,,,,,,,,,,,,,,,,,,110,1716,Valid,noise,45,2,0.7709435,1,2,2.0794352,TRUE,1,19,A,2023-09-15_10h27.49.687,exp3,2022.2.2
,,,,,,,,,,,,,,,,,,,,,,,,112,-2274,Valid,signal,-45,2,1.0534911,0,1,2.3620755,TRUE,1,19,A,2023-09-15_10h27.49.687,exp3,2022.2.2
,,,,,,,,,,,,,,,,,,,,,,,,114,557,Valid,signal,45,1,1.420469,1,3,2.7291395,TRUE,1,19,A,2023-09-15_10h27.49.687,exp3,2022.2.2
,,,,,,,,,,,,,,,,,,,,,,,,116,1716,Invalid,signal,-45,2,1.2874099,0,3,2.5962629,TRUE,1,19,A,2023-09-15_10h27.49.687,exp3,2022.2.2
,,,,,,,,,,,,,,,,,,,,,,,,118,1158,Valid,signal,45,1,1.4712758,1,3,2.7797547,TRUE,1,19,A,2023-09-15_10h27.49.687,exp3,2022.2.2
,,,,,,,,,,,,,,,,,,,,,,,,120,-2274,Invalid,noise,-45,2,1.0199367,1,3,2.3287814,TRUE,1,19,A,2023-09-15_10h27.49.687,exp3,2022.2.2
,,,,,,,,,,,,,,,,,,,,,,,,122,557,Valid,noise,-45,2,1.0042427,1,3,2.3127301,TRUE,1,19,A,2023-09-15_10h27.49.687,exp3,2022.2.2
,,,,,,,,,,,,,,,,,,,,,,,,124,-1158,Valid,noise,-45,2,0.7537983,1,3,2.0624479,TRUE,1,19,A,2023-09-15_10h27.49.687,exp3,2022.2.2
,,,,,,,,,,,,,,,,,,,,,,,,126,1158,Valid,noise,45,2,0.7879922,1,3,2.0966212,TRUE,1,19,A,2023-09-15_10h27.49.687,exp3,2022.2.2
,,,,,,,,,,,,,,,,,,,,,,,,128,-2274,Valid,noise,45,2,1.2033931,1,3,2.5119958,TRUE,1,19,A,2023-09-15_10h27.49.687,exp3,2022.2.2
,,,,,,,,,,,,,,,,,,,,,,,,130,-2274,Invalid,noise,-45,2,1.0039595,1,3,2.3125733,TRUE,1,19,A,2023-09-15_10h27.49.687,exp3,2022.2.2
,,,,,,,,,,,,,,,,,,,,,,,,132,-2274,Valid,noise,-45,2,0.7202582,1,3,2.0291764,TRUE,1,19,A,2023-09-15_10h27.49.687,exp3,2022.2.2
,,,,,,,,,,,,,,,,,,,,,,,,134,-2274,Valid,noise,45,2,0.9705801,1,3,2.2793229,TRUE,1,19,A,2023-09-15_10h27.49.687,exp3,2022.2.2
,,,,,,,,,,,,,,,,,,,,,,,,136,557,Valid,signal,-45,1,1.0369516,1,4,2.3455077,TRUE,1,19,A,2023-09-15_10h27.49.687,exp3,2022.2.2
,,,,,,,,,,,,,,,,,,,,,,,,138,2274,Valid,noise,-45,2,1.3538861,1,3,2.66265,TRUE,1,19,A,2023-09-15_10h27.49.687,exp3,2022.2.2
,,,,,,,,,,,,,,,,,,,,,,,,140,-557,Invalid,signal,45,1,1.4041176,1,4,2.7126737,TRUE,1,19,A,2023-09-15_10h27.49.687,exp3,2022.2.2
,,,,,,,,,,,,,,,,,,,,,,,,142,-1716,Valid,signal,-45,1,0.7369758,1,4,2.0458809,TRUE,1,19,A,2023-09-15_10h27.49.687,exp3,2022.2.2
,,,,,,,,,,,,,,,,,,,,,,,,144,1158,Invalid,signal,45,2,1.3376694,0,4,2.6461249,TRUE,1,19,A,2023-09-15_10h27.49.687,exp3,2022.2.2
,,,,,,,,,,,,,,,,,,,,,,,,146,1158,Valid,noise,-45,2,0.8202114,1,4,2.1287033,TRUE,1,19,A,2023-09-15_10h27.49.687,exp3,2022.2.2
,,,,,,,,,,,,,,,,,,,,,,,,148,1158,Valid,noise,-45,2,0.904305,1,4,2.2128365,TRUE,1,19,A,2023-09-15_10h27.49.687,exp3,2022.2.2
,,,,,,,,,,,,,,,,,,,,,,,,150,1158,Valid,signal,45,1,0.7708033,1,4,2.0793208,TRUE,1,19,A,2023-09-15_10h27.49.687,exp3,2022.2.2
,,,,,,,,,,,,,,,,,,,,,,,,152,-557,Valid,noise,-45,2,0.8533272,1,4,2.1620598,TRUE,1,19,A,2023-09-15_10h27.49.687,exp3,2022.2.2
,,,,,,,,,,,,,,,,,,,,,,,,154,-1158,Invalid,signal,-45,2,1.6384919,0,3,2.9468486,TRUE,1,19,A,2023-09-15_10h27.49.687,exp3,2022.2.2
,,,,,,,,,,,,,,,,,,,,,,,,156,-1158,Valid,noise,-45,2,1.169729,1,3,2.4784967,TRUE,1,19,A,2023-09-15_10h27.49.687,exp3,2022.2.2
,,,,,,,,,,,,,,,,,,,,,,,,158,2274,Valid,signal,45,2,1.3372964,0,3,2.6460787,TRUE,1,19,A,2023-09-15_10h27.49.687,exp3,2022.2.2
,,,,,,,,,,,,,,,,,,,,,,,,160,557,Valid,noise,-45,2,1.187359,1,4,2.4959172,TRUE,1,19,A,2023-09-15_10h27.49.687,exp3,2022.2.2
,,,,,,,,,,,,,,,,,,,,,,,,162,2274,Valid,noise,45,2,1.0875138,1,2,2.3960959,TRUE,1,19,A,2023-09-15_10h27.49.687,exp3,2022.2.2
,,,,,,,,,,,,,,,,,,,,,,,,164,-1716,Valid,signal,-45,1,1.4709652,1,3,2.7795142,TRUE,1,19,A,2023-09-15_10h27.49.687,exp3,2022.2.2
,,,,,,,,,,,,,,,,,,,,,,,,166,557,Valid,signal,45,1,0.9706103,1,4,2.2793894,TRUE,1,19,A,2023-09-15_10h27.49.687,exp3,2022.2.2
,,,,,,,,,,,,,,,,,,,,,,,,168,2274,Valid,signal,45,2,0.9874866,0,3,2.2959802,TRUE,1,19,A,2023-09-15_10h27.49.687,exp3,2022.2.2
,,,,,,,,,,,,,,,,,,,,,,,,170,557,Valid,noise,45,2,1.6413224,1,3,5.5972489,TRUE,2,19,A,2023-09-15_10h27.49.687,exp3,2022.2.2
,,,,,,,,,,,,,,,,,,,,,,,,172,-2274,Invalid,signal,45,1,1.7040482,1,2,3.0127325,TRUE,1,19,A,2023-09-15_10h27.49.687,exp3,2022.2.2
,,,,,,,,,,,,,,,,,,,,,,,,174,557,Valid,signal,45,1,1.1874175,1,4,2.4959375,TRUE,1,19,A,2023-09-15_10h27.49.687,exp3,2022.2.2
,,,,,,,,,,,,,,,,,,,,,,,,176,-1158,Valid,noise,-45,2,1.020429,1,4,2.3290873,TRUE,1,19,A,2023-09-15_10h27.49.687,exp3,2022.2.2
,,,,,,,,,,,,,,,,,,,,,,,,178,2274,Invalid,signal,45,2,1.0207831,0,3,2.32935,TRUE,1,19,A,2023-09-15_10h27.49.687,exp3,2022.2.2
,,,,,,,,,,,,,,,,,,,,,,,,180,2274,Valid,noise,-45,2,2.6545645,1,4,3.9634018,TRUE,1,19,A,2023-09-15_10h27.49.687,exp3,2022.2.2
,,,,,,,,,,,,,,,,,,,,,,,,182,557,Valid,noise,-45,2,0.6540476,1,4,1.9626958,TRUE,1,19,A,2023-09-15_10h27.49.687,exp3,2022.2.2
,,,,,,,,,,,,,,,,,,,,,,,,184,-1716,Valid,noise,45,2,0.7541969,1,4,2.0627606,TRUE,1,19,A,2023-09-15_10h27.49.687,exp3,2022.2.2
,,,,,,,,,,,,,,,,,,,,,,,,186,557,Valid,noise,45,2,0.5707186,1,4,1.8790388,TRUE,1,19,A,2023-09-15_10h27.49.687,exp3,2022.2.2
,,,,,,,,,,,,,,,,,,,,,,,,188,1158,Valid,signal,-45,1,0.7199965,1,4,2.0288034,TRUE,1,19,A,2023-09-15_10h27.49.687,exp3,2022.2.2
,,,,,,,,,,,,,,,,,,,,,,,,190,-1158,Valid,signal,45,1,1.0040298,1,4,2.3125964,TRUE,1,19,A,2023-09-15_10h27.49.687,exp3,2022.2.2
,,,,,,,,,,,,,,,,,,,,,,,,192,-1158,Valid,noise,45,1,0.9877661,0,4,2.2962229,TRUE,1,19,A,2023-09-15_10h27.49.687,exp3,2022.2.2
,,,,,,,,,,,,,,,,,,,,,,,,194,-1716,Valid,noise,45,2,0.7204278,1,4,2.0291024,TRUE,1,19,A,2023-09-15_10h27.49.687,exp3,2022.2.2
,,,,,,,,,,,,,,,,,,,,,,,,196,1158,Valid,noise,-45,2,0.8703803,1,4,2.1792128,TRUE,1,19,A,2023-09-15_10h27.49.687,exp3,2022.2.2
,,,,,,,,,,,,,,,,,,,,,,,,198,557,Valid,signal,-45,1,4.956298,1,4,6.2645701,TRUE,1,19,A,2023-09-15_10h27.49.687,exp3,2022.2.2
,,,,,,,,,,,,,,,,,,,,,,,,200,1158,Valid,signal,45,1,2.1036412,1,4,3.4123434,TRUE,1,19,A,2023-09-15_10h27.49.687,exp3,2022.2.2
,,,,,,,,,,,,,,,,,,,,,,,,202,-557,Valid,noise,45,2,1.0879099,1,4,2.3965209,TRUE,1,19,A,2023-09-15_10h27.49.687,exp3,2022.2.2
,,,,,,,,,,,,,,,,,,,,,,,,204,557,Invalid,noise,45,2,0.9534875,1,4,2.2620946,TRUE,1,19,A,2023-09-15_10h27.49.687,exp3,2022.2.2
,,,,,,,,,,,,,,,,,,,,,,,,206,2274,Valid,signal,45,2,1.2207249,0,2,2.5291656,TRUE,1,19,A,2023-09-15_10h27.49.687,exp3,2022.2.2
,,,,,,,,,,,,,,,,,,,,,,,,208,557,Valid,signal,-45,1,1.4546532,1,4,2.7631471,TRUE,1,19,A,2023-09-15_10h27.49.687,exp3,2022.2.2
,,,,,,,,,,,,,,,,,,,,,,,,210,-1716,Valid,noise,-45,2,1.2038149,1,4,2.5128056,TRUE,1,19,A,2023-09-15_10h27.49.687,exp3,2022.2.2
,,,,,,,,,,,,,,,,,,,,,,,,212,-1716,Valid,signal,45,1,0.8711313,1,4,2.1795048,TRUE,1,19,A,2023-09-15_10h27.49.687,exp3,2022.2.2
,,,,,,,,,,,,,,,,,,,,,,,,214,557,Invalid,signal,-45,2,0.9541008,0,4,2.2626465,TRUE,1,19,A,2023-09-15_10h27.49.687,exp3,2022.2.2
,,,,,,,,,,,,,,,,,,,,,,,,216,2274,Valid,signal,-45,2,0.8034214,0,4,2.1119853,TRUE,1,19,A,2023-09-15_10h27.49.687,exp3,2022.2.2
,,,,,,,,,,,,,,,,,,,,,,,,218,1716,Valid,signal,-45,1,0.854311,1,4,2.16292,TRUE,1,19,A,2023-09-15_10h27.49.687,exp3,2022.2.2
,,,,,,,,,,,,,,,,,,,,,,,,220,-1716,Valid,signal,45,1,0.7701084,1,4,2.078881,TRUE,1,19,A,2023-09-15_10h27.49.687,exp3,2022.2.2
,,,,,,,,,,,,,,,,,,,,,,,,222,1716,Valid,signal,-45,1,1.0709236,1,4,2.3794223,TRUE,1,19,A,2023-09-15_10h27.49.687,exp3,2022.2.2
,,,,,,,,,,,,,,,,,,,,,,,,224,2274,Valid,signal,-45,2,0.7704505,0,4,2.0789773,TRUE,1,19,A,2023-09-15_10h27.49.687,exp3,2022.2.2
,,,,,,,,,,,,,,,,,,,,,,,,226,-1716,Valid,noise,-45,2,0.8538241,1,4,2.1625332,TRUE,1,19,A,2023-09-15_10h27.49.687,exp3,2022.2.2
,,,,,,,,,,,,,,,,,,,,,,,,228,-1716,Valid,signal,45,1,0.7373903,1,4,2.0461461,TRUE,1,19,A,2023-09-15_10h27.49.687,exp3,2022.2.2
,,,,,,,,,,,,,,,,,,,,,,,,230,-1716,Valid,noise,-45,2,0.8865824,1,4,2.1959365,TRUE,1,19,A,2023-09-15_10h27.49.687,exp3,2022.2.2
,,,,,,,,,,,,,,,,,,,,,,,,232,-557,Valid,signal,-45,1,1.0373664,1,4,2.3461053,TRUE,1,19,A,2023-09-15_10h27.49.687,exp3,2022.2.2
,,,,,,,,,,,,,,,,,,,,,,,,234,1716,Valid,noise,-45,2,1.9045144,1,4,3.2131534,TRUE,1,19,A,2023-09-15_10h27.49.687,exp3,2022.2.2
,,,,,,,,,,,,,,,,,,,,,,,,236,557,Valid,noise,-45,2,2.3708988,1,3,3.679411,TRUE,1,19,A,2023-09-15_10h27.49.687,exp3,2022.2.2
,,,,,,,,,,,,,,,,,,,,,,,,238,-2274,Valid,signal,45,1,0.9880061,1,1,2.2964916,TRUE,1,19,A,2023-09-15_10h27.49.687,exp3,2022.2.2
,,,,,,,,,,,,,,,,,,,,,,,,240,-557,Valid,signal,-45,1,1.4534403,1,4,2.7623292,TRUE,1,19,A,2023-09-15_10h27.49.687,exp3,2022.2.2
,,,,,,,,,,,,,,,,,,,,,,,,242,-1716,Valid,signal,45,1,0.8700742,1,4,2.1792895,TRUE,1,19,A,2023-09-15_10h27.49.687,exp3,2022.2.2
,,,,,,,,,,,,,,,,,,,,,,,,244,-1716,Valid,signal,45,1,0.7537342,1,4,2.0624859,TRUE,1,19,A,2023-09-15_10h27.49.687,exp3,2022.2.2
,,,,,,,,,,,,,,,,,,,,,,,,246,-1158,Valid,noise,-45,2,1.7709671,1,2,3.079598,TRUE,1,19,A,2023-09-15_10h27.49.687,exp3,2022.2.2
,,,,,,,,,,,,,,,,,,,,,,,,248,-1158,Invalid,noise,-45,2,1.2544405,1,3,2.5629103,TRUE,1,19,A,2023-09-15_10h27.49.687,exp3,2022.2.2
,,,,,,,,,,,,,,,,,,,,,,,,250,2274,Invalid,noise,-45,2,1.4705977,1,3,2.7791063,TRUE,1,19,A,2023-09-15_10h27.49.687,exp3,2022.2.2
,,,,,,,,,,,,,,,,,,,,,,,,252,557,Valid,signal,45,1,1.2374205,1,4,2.5459707,TRUE,1,19,A,2023-09-15_10h27.49.687,exp3,2022.2.2
,,,,,,,,,,,,,,,,,,,,,,,,254,1716,Valid,noise,-45,2,2.3212484,1,2,3.6298276,TRUE,1,19,A,2023-09-15_10h27.49.687,exp3,2022.2.2
,,,,,,,,,,,,,,,,,,,,,,,,256,-557,Invalid,noise,45,2,0.9208151,1,2,2.2292912,TRUE,1,19,A,2023-09-15_10h27.49.687,exp3,2022.2.2
,,,,,,,,,,,,,,,,,,,,,,,,258,-557,Valid,signal,45,1,1.1033199,1,3,2.4122715,TRUE,1,19,A,2023-09-15_10h27.49.687,exp3,2022.2.2
,,,,,,,,,,,,,,,,,,,,,,,,260,-1158,Valid,signal,45,1,2.4545874,1,4,3.7632386,TRUE,1,19,A,2023-09-15_10h27.49.687,exp3,2022.2.2
,,,,,,,,,,,,,,,,,,,,,,,,262,-1158,Valid,signal,-45,1,0.6702391,1,4,1.9792409,TRUE,1,19,A,2023-09-15_10h27.49.687,exp3,2022.2.2
,,,,,,,,,,,,,,,,,,,,,,,,264,1716,Valid,signal,-45,1,0.7540038,1,4,2.0627107,TRUE,1,19,A,2023-09-15_10h27.49.687,exp3,2022.2.2
,,,,,,,,,,,,,,,,,,,,,,,,266,-2274,Valid,signal,45,2,1.0704974,0,4,2.3791775,TRUE,1,19,A,2023-09-15_10h27.49.687,exp3,2022.2.2
,,,,,,,,,,,,,,,,,,,,,,,,268,557,Valid,signal,45,1,0.7877541,1,4,2.096188,TRUE,1,19,A,2023-09-15_10h27.49.687,exp3,2022.2.2
,,,,,,,,,,,,,,,,,,,,,,,,270,-1716,Valid,noise,45,2,0.786943,1,4,2.0956834,TRUE,1,19,A,2023-09-15_10h27.49.687,exp3,2022.2.2
,,,,,,,,,,,,,,,,,,,,,,,,272,-557,Valid,noise,45,2,0.6878753,1,4,1.9964421,TRUE,1,19,A,2023-09-15_10h27.49.687,exp3,2022.2.2
,,,,,,,,,,,,,,,,,,,,,,,,274,2274,Valid,noise,45,1,4.1049251,0,1,5.4133863,TRUE,1,19,A,2023-09-15_10h27.49.687,exp3,2022.2.2
,,,,,,,,,,,,,,,,,,,,,,,,276,-1158,Valid,noise,45,2,1.453926,1,3,2.7626384,TRUE,1,19,A,2023-09-15_10h27.49.687,exp3,2022.2.2
,,,,,,,,,,,,,,,,,,,,,,,,278,-557,Valid,signal,45,1,1.1701931,1,4,2.4791865,TRUE,1,19,A,2023-09-15_10h27.49.687,exp3,2022.2.2
,,,,,,,,,,,,,,,,,,,,,,,,280,-1158,Valid,noise,45,2,0.7373337,1,4,2.0456766,TRUE,1,19,A,2023-09-15_10h27.49.687,exp3,2022.2.2
,,,,,,,,,,,,,,,,,,,,,,,,282,-557,Valid,signal,45,1,2.1552109,1,4,3.4637302,TRUE,1,19,A,2023-09-15_10h27.49.687,exp3,2022.2.2
,,,,,,,,,,,,,,,,,,,,,,,,284,1716,Valid,signal,-45,1,0.836846,1,4,2.1451388,TRUE,1,19,A,2023-09-15_10h27.49.687,exp3,2022.2.2
,,,,,,,,,,,,,,,,,,,,,,,,286,-557,Valid,noise,-45,2,0.9036461,1,4,2.2123225,TRUE,1,19,A,2023-09-15_10h27.49.687,exp3,2022.2.2
,,,,,,,,,,,,,,,,,,,,,,,,288,-557,Valid,noise,-45,2,0.9542645,1,4,2.262784,TRUE,1,19,A,2023-09-15_10h27.49.687,exp3,2022.2.2
