trials.label,trials.startVal,trials.maxVal,trials.minVal,trials.startValSd,trials.pthreshold,trials.beta,trials.delta,trials.gamma,trials.grain,trials.stepSize,trials.range,trials.cue,trials.thisIndex,trials.thisRepN,trials.thisN,trials.direction,trials.stepType,trials.intensity,signalOpacity,level,trials.response,stair_eye_ok,nTrial,position,validity,Stimulus,orientation,response_key,response_rt,response_correct,confidence,confidence_rt,eye_ok,participant,session,date,expName,psychopyVersion,
low_opac_i,0.4,1,0.01,3,0.82,3.5,0.01,0,0.01,4,5,Invalid,2,1,0,start,lin,0.4,0.4,0.4,1,True,,,,,,,,,,,,1,A,2023-08-24_14h12.49.175,exp3,2022.2.2,
high_opac_v,0.01,1,0.01,3,0.82,3.5,0.01,0,0.01,4,5,Valid,1,1,1,start,lin,0.01,0,0.01,1,True,,,,,,,,,,,,1,A,2023-08-24_14h12.49.175,exp3,2022.2.2,
low_opac_v,0.4,1,0.01,3,0.82,3.5,0.01,0,0.01,4,5,Valid,0,1,2,start,lin,0.4,0.4,0.4,1,True,,,,,,,,,,,,1,A,2023-08-24_14h12.49.175,exp3,2022.2.2,
low_opac_v,0.4,1,0.01,3,0.82,3.5,0.01,0,0.01,4,5,Valid,0,2,3,start,lin,0.01,0.01,0.01,0,True,,,,,,,,,,,,1,A,2023-08-24_14h12.49.175,exp3,2022.2.2,
low_opac_i,0.4,1,0.01,3,0.82,3.5,0.01,0,0.01,4,5,Invalid,2,2,4,start,lin,0.01,0,0.01,1,True,,,,,,,,,,,,1,A,2023-08-24_14h12.49.175,exp3,2022.2.2,
high_opac_v,0.01,1,0.01,3,0.82,3.5,0.01,0,0.01,4,5,Valid,1,2,5,start,lin,0.01,0.01,0.01,0,True,,,,,,,,,,,,1,A,2023-08-24_14h12.49.175,exp3,2022.2.2,
high_opac_v,0.01,1,0.01,3,0.82,3.5,0.01,0,0.01,4,5,Valid,1,3,6,start,lin,0.11405774706782823,0,0.11405774706782823,1,True,,,,,,,,,,,,1,A,2023-08-24_14h12.49.175,exp3,2022.2.2,
low_opac_i,0.4,1,0.01,3,0.82,3.5,0.01,0,0.01,4,5,Invalid,2,3,7,start,lin,0.01,0,0.01,1,True,,,,,,,,,,,,1,A,2023-08-24_14h12.49.175,exp3,2022.2.2,
low_opac_v,0.4,1,0.01,3,0.82,3.5,0.01,0,0.01,4,5,Valid,0,3,8,start,lin,0.3144098688205103,0,0.3144098688205103,1,True,,,,,,,,,,,,1,A,2023-08-24_14h12.49.175,exp3,2022.2.2,
low_opac_v,0.4,1,0.01,3,0.82,3.5,0.01,0,0.01,4,5,Valid,0,4,9,start,lin,0.23561159539411833,0.23561159539411833,0.23561159539411833,1,True,,,,,,,,,,,,1,A,2023-08-24_14h12.49.175,exp3,2022.2.2,
high_opac_v,0.01,1,0.01,3,0.82,3.5,0.01,0,0.01,4,5,Valid,1,4,10,start,lin,0.04641491138063986,0,0.04641491138063986,1,True,,,,,,,,,,,,1,A,2023-08-24_14h12.49.175,exp3,2022.2.2,
low_opac_i,0.4,1,0.01,3,0.82,3.5,0.01,0,0.01,4,5,Invalid,2,4,11,start,lin,0.01,0.01,0.01,0,True,,,,,,,,,,,,1,A,2023-08-24_14h12.49.175,exp3,2022.2.2,
low_opac_v,0.4,1,0.01,3,0.82,3.5,0.01,0,0.01,4,5,Valid,0,5,12,start,lin,0.1841780991895161,0,0.1841780991895161,1,True,,,,,,,,,,,,1,A,2023-08-24_14h12.49.175,exp3,2022.2.2,
high_opac_v,0.01,1,0.01,3,0.82,3.5,0.01,0,0.01,4,5,Valid,1,5,13,start,lin,0.01,0,0.01,1,True,,,,,,,,,,,,1,A,2023-08-24_14h12.49.175,exp3,2022.2.2,
low_opac_i,0.4,1,0.01,3,0.82,3.5,0.01,0,0.01,4,5,Invalid,2,5,14,start,lin,0.0158587974367983,0,0.0158587974367983,1,True,,,,,,,,,,,,1,A,2023-08-24_14h12.49.175,exp3,2022.2.2,
low_opac_v,0.4,1,0.01,3,0.82,3.5,0.01,0,0.01,4,5,Valid,0,6,15,start,lin,0.14081453445857006,0.14081453445857006,0.14081453445857006,1,True,,,,,,,,,,,,1,A,2023-08-24_14h12.49.175,exp3,2022.2.2,
high_opac_v,0.01,1,0.01,3,0.82,3.5,0.01,0,0.01,4,5,Valid,1,6,16,start,lin,0.01,0,0.01,1,True,,,,,,,,,,,,1,A,2023-08-24_14h12.49.175,exp3,2022.2.2,
low_opac_i,0.4,1,0.01,3,0.82,3.5,0.01,0,0.01,4,5,Invalid,2,6,17,start,lin,0.01,0,0.01,1,True,,,,,,,,,,,,1,A,2023-08-24_14h12.49.175,exp3,2022.2.2,
high_opac_v,0.01,1,0.01,3,0.82,3.5,0.01,0,0.01,4,5,Valid,1,7,18,start,lin,0.01,0,0.01,0,True,,,,,,,,,,,,1,A,2023-08-24_14h12.49.175,exp3,2022.2.2,
low_opac_i,0.4,1,0.01,3,0.82,3.5,0.01,0,0.01,4,5,Invalid,2,7,19,start,lin,0.01,0.01,0.01,0,True,,,,,,,,,,,,1,A,2023-08-24_14h12.49.175,exp3,2022.2.2,
low_opac_v,0.4,1,0.01,3,0.82,3.5,0.01,0,0.01,4,5,Valid,0,7,20,start,lin,0.10410764613410528,0,0.10410764613410528,1,True,,,,,,,,,,,,1,A,2023-08-24_14h12.49.175,exp3,2022.2.2,
low_opac_v,0.4,1,0.01,3,0.82,3.5,0.01,0,0.01,4,5,Valid,0,8,21,start,lin,0.06939770050553568,0.06939770050553568,0.06939770050553568,0,True,,,,,,,,,,,,1,A,2023-08-24_14h12.49.175,exp3,2022.2.2,
high_opac_v,0.01,1,0.01,3,0.82,3.5,0.01,0,0.01,4,5,Valid,1,8,22,start,lin,0.05805232331577839,0,0.05805232331577839,1,True,,,,,,,,,,,,1,A,2023-08-24_14h12.49.175,exp3,2022.2.2,
low_opac_i,0.4,1,0.01,3,0.82,3.5,0.01,0,0.01,4,5,Invalid,2,8,23,start,lin,0.06556634313031096,0.06556634313031096,0.06556634313031096,0,True,,,,,,,,,,,,1,A,2023-08-24_14h12.49.175,exp3,2022.2.2,
low_opac_v,0.4,1,0.01,3,0.82,3.5,0.01,0,0.01,4,5,Valid,0,9,24,start,lin,0.15355165060147863,0,0.15355165060147863,0,True,,,,,,,,,,,,1,A,2023-08-24_14h12.49.175,exp3,2022.2.2,
high_opac_v,0.01,1,0.01,3,0.82,3.5,0.01,0,0.01,4,5,Valid,1,9,25,start,lin,0.045353297943741884,0,0.045353297943741884,1,True,,,,,,,,,,,,1,A,2023-08-24_14h12.49.175,exp3,2022.2.2,
low_opac_i,0.4,1,0.01,3,0.82,3.5,0.01,0,0.01,4,5,Invalid,2,9,26,start,lin,0.11809337465079256,0,0.11809337465079256,0,True,,,,,,,,,,,,1,A,2023-08-24_14h12.49.175,exp3,2022.2.2,
high_opac_v,0.01,1,0.01,3,0.82,3.5,0.01,0,0.01,4,5,Valid,1,10,27,start,lin,0.03410994140770452,0.03410994140770452,0.03410994140770452,0,True,,,,,,,,,,,,1,A,2023-08-24_14h12.49.175,exp3,2022.2.2,
low_opac_v,0.4,1,0.01,3,0.82,3.5,0.01,0,0.01,4,5,Valid,0,10,28,start,lin,0.2048281541508419,0,0.2048281541508419,0,True,,,,,,,,,,,,1,A,2023-08-24_14h12.49.175,exp3,2022.2.2,
low_opac_i,0.4,1,0.01,3,0.82,3.5,0.01,0,0.01,4,5,Invalid,2,10,29,start,lin,0.16547740900007338,0,0.16547740900007338,0,True,,,,,,,,,,,,1,A,2023-08-24_14h12.49.175,exp3,2022.2.2,
low_opac_v,0.4,1,0.01,3,0.82,3.5,0.01,0,0.01,4,5,Valid,0,11,30,start,lin,0.247858498378035,0,0.247858498378035,1,True,,,,,,,,,,,,1,A,2023-08-24_14h12.49.175,exp3,2022.2.2,
high_opac_v,0.01,1,0.01,3,0.82,3.5,0.01,0,0.01,4,5,Valid,1,11,31,start,lin,0.07180737174185398,0.07180737174185398,0.07180737174185398,1,True,,,,,,,,,,,,1,A,2023-08-24_14h12.49.175,exp3,2022.2.2,
low_opac_i,0.4,1,0.01,3,0.82,3.5,0.01,0,0.01,4,5,Invalid,2,11,32,start,lin,0.21227254074830454,0.21227254074830454,0.21227254074830454,1,True,,,,,,,,,,,,1,A,2023-08-24_14h12.49.175,exp3,2022.2.2,
low_opac_i,0.4,1,0.01,3,0.82,3.5,0.01,0,0.01,4,5,Invalid,2,12,33,start,lin,0.20015661327343343,0.20015661327343343,0.20015661327343343,1,True,,,,,,,,,,,,1,A,2023-08-24_14h12.49.175,exp3,2022.2.2,
high_opac_v,0.01,1,0.01,3,0.82,3.5,0.01,0,0.01,4,5,Valid,1,12,34,start,lin,0.06349119218086144,0,0.06349119218086144,1,True,,,,,,,,,,,,1,A,2023-08-24_14h12.49.175,exp3,2022.2.2,
low_opac_v,0.4,1,0.01,3,0.82,3.5,0.01,0,0.01,4,5,Valid,0,12,35,start,lin,0.23726017223635995,0.23726017223635995,0.23726017223635995,1,True,,,,,,,,,,,,1,A,2023-08-24_14h12.49.175,exp3,2022.2.2,
high_opac_v,0.01,1,0.01,3,0.82,3.5,0.01,0,0.01,4,5,Valid,1,13,36,start,lin,0.05584739691566527,0.05584739691566527,0.05584739691566527,1,True,,,,,,,,,,,,1,A,2023-08-24_14h12.49.175,exp3,2022.2.2,
low_opac_i,0.4,1,0.01,3,0.82,3.5,0.01,0,0.01,4,5,Invalid,2,13,37,start,lin,0.190012058624864,0.190012058624864,0.190012058624864,0,True,,,,,,,,,,,,1,A,2023-08-24_14h12.49.175,exp3,2022.2.2,
low_opac_v,0.4,1,0.01,3,0.82,3.5,0.01,0,0.01,4,5,Valid,0,13,38,start,lin,0.2279568973887258,0,0.2279568973887258,1,True,,,,,,,,,,,,1,A,2023-08-24_14h12.49.175,exp3,2022.2.2,
high_opac_v,0.01,1,0.01,3,0.82,3.5,0.01,0,0.01,4,5,Valid,1,14,39,start,lin,0.049246560979823696,0.049246560979823696,0.049246560979823696,1,True,,,,,,,,,,,,1,A,2023-08-24_14h12.49.175,exp3,2022.2.2,
low_opac_i,0.4,1,0.01,3,0.82,3.5,0.01,0,0.01,4,5,Invalid,2,14,40,start,lin,0.22363318930984638,0,0.22363318930984638,0,True,,,,,,,,,,,,1,A,2023-08-24_14h12.49.175,exp3,2022.2.2,
low_opac_v,0.4,1,0.01,3,0.82,3.5,0.01,0,0.01,4,5,Valid,0,14,41,start,lin,0.2195650362655215,0.2195650362655215,0.2195650362655215,1,True,,,,,,,,,,,,1,A,2023-08-24_14h12.49.175,exp3,2022.2.2,
low_opac_v,0.4,1,0.01,3,0.82,3.5,0.01,0,0.01,4,5,Valid,0,15,42,start,lin,0.211846868559932,0,0.211846868559932,0,True,,,,,,,,,,,,1,A,2023-08-24_14h12.49.175,exp3,2022.2.2,
low_opac_i,0.4,1,0.01,3,0.82,3.5,0.01,0,0.01,4,5,Invalid,2,15,43,start,lin,0.2550305806845781,0.2550305806845781,0.2550305806845781,0,True,,,,,,,,,,,,1,A,2023-08-24_14h12.49.175,exp3,2022.2.2,
high_opac_v,0.01,1,0.01,3,0.82,3.5,0.01,0,0.01,4,5,Valid,1,15,44,start,lin,0.0429594207004279,0,0.0429594207004279,0,True,,,,,,,,,,,,1,A,2023-08-24_14h12.49.175,exp3,2022.2.2,
high_opac_v,0.01,1,0.01,3,0.82,3.5,0.01,0,0.01,4,5,Valid,1,16,45,start,lin,0.06540813954822869,0.06540813954822869,0.06540813954822869,1,True,,,,,,,,,,,,1,A,2023-08-24_14h12.49.175,exp3,2022.2.2,
low_opac_i,0.4,1,0.01,3,0.82,3.5,0.01,0,0.01,4,5,Invalid,2,16,46,start,lin,0.28706009622189255,0.28706009622189255,0.28706009622189255,1,True,,,,,,,,,,,,1,A,2023-08-24_14h12.49.175,exp3,2022.2.2,
low_opac_v,0.4,1,0.01,3,0.82,3.5,0.01,0,0.01,4,5,Valid,0,16,47,start,lin,0.2386323140667618,0,0.2386323140667618,1,True,,,,,,,,,,,,1,A,2023-08-24_14h12.49.175,exp3,2022.2.2,
low_opac_i,0.4,1,0.01,3,0.82,3.5,0.01,0,0.01,4,5,Invalid,2,17,48,start,lin,0.27940022137275444,0,0.27940022137275444,0,True,,,,,,,,,,,,1,A,2023-08-24_14h12.49.175,exp3,2022.2.2,
low_opac_v,0.4,1,0.01,3,0.82,3.5,0.01,0,0.01,4,5,Valid,0,17,49,start,lin,0.23227230116296774,0,0.23227230116296774,1,True,,,,,,,,,,,,1,A,2023-08-24_14h12.49.175,exp3,2022.2.2,
high_opac_v,0.01,1,0.01,3,0.82,3.5,0.01,0,0.01,4,5,Valid,1,17,50,start,lin,0.06024557659949308,0,0.06024557659949308,0,True,,,,,,,,,,,,1,A,2023-08-24_14h12.49.175,exp3,2022.2.2,
high_opac_v,0.01,1,0.01,3,0.82,3.5,0.01,0,0.01,4,5,Valid,1,18,51,start,lin,0.07989035054165593,0,0.07989035054165593,1,True,,,,,,,,,,,,1,A,2023-08-24_14h12.49.175,exp3,2022.2.2,
low_opac_i,0.4,1,0.01,3,0.82,3.5,0.01,0,0.01,4,5,Invalid,2,18,52,start,lin,0.3067097769751392,0.3067097769751392,0.3067097769751392,1,True,,,,,,,,,,,,1,A,2023-08-24_14h12.49.175,exp3,2022.2.2,
low_opac_v,0.4,1,0.01,3,0.82,3.5,0.01,0,0.01,4,5,Valid,0,18,53,start,lin,0.2261768663157685,0,0.2261768663157685,1,True,,,,,,,,,,,,1,A,2023-08-24_14h12.49.175,exp3,2022.2.2,
low_opac_v,0.4,1,0.01,3,0.82,3.5,0.01,0,0.01,4,5,Valid,0,19,54,start,lin,0.22078043360403923,0.22078043360403923,0.22078043360403923,1,True,,,,,,,,,,,,1,A,2023-08-24_14h12.49.175,exp3,2022.2.2,
high_opac_v,0.01,1,0.01,3,0.82,3.5,0.01,0,0.01,4,5,Valid,1,19,55,start,lin,0.07516847418583544,0.07516847418583544,0.07516847418583544,0,True,,,,,,,,,,,,1,A,2023-08-24_14h12.49.175,exp3,2022.2.2,
low_opac_i,0.4,1,0.01,3,0.82,3.5,0.01,0,0.01,4,5,Invalid,2,19,56,start,lin,0.3000939496259996,0.3000939496259996,0.3000939496259996,1,True,,,,,,,,,,,,1,A,2023-08-24_14h12.49.175,exp3,2022.2.2,
high_opac_v,0.01,1,0.01,3,0.82,3.5,0.01,0,0.01,4,5,Valid,1,20,57,start,lin,0.09339058890067552,0.09339058890067552,0.09339058890067552,1,True,,,,,,,,,,,,1,A,2023-08-24_14h12.49.175,exp3,2022.2.2,
low_opac_i,0.4,1,0.01,3,0.82,3.5,0.01,0,0.01,4,5,Invalid,2,20,58,start,lin,0.2939265235098699,0,0.2939265235098699,1,True,,,,,,,,,,,,1,A,2023-08-24_14h12.49.175,exp3,2022.2.2,
low_opac_v,0.4,1,0.01,3,0.82,3.5,0.01,0,0.01,4,5,Valid,0,20,59,start,lin,0.21550369707534167,0,0.21550369707534167,0,True,,,,,,,,,,,,1,A,2023-08-24_14h12.49.175,exp3,2022.2.2,
low_opac_v,0.4,1,0.01,3,0.82,3.5,0.01,0,0.01,4,5,Valid,0,21,60,start,lin,0.2353967673529976,0,0.2353967673529976,1,True,,,,,,,,,,,,1,A,2023-08-24_14h12.49.175,exp3,2022.2.2,
low_opac_i,0.4,1,0.01,3,0.82,3.5,0.01,0,0.01,4,5,Invalid,2,21,61,start,lin,0.2880429657145087,0,0.2880429657145087,0,True,,,,,,,,,,,,1,A,2023-08-24_14h12.49.175,exp3,2022.2.2,
high_opac_v,0.01,1,0.01,3,0.82,3.5,0.01,0,0.01,4,5,Valid,1,21,62,start,lin,0.08897870554305562,0.08897870554305562,0.08897870554305562,1,True,,,,,,,,,,,,1,A,2023-08-24_14h12.49.175,exp3,2022.2.2,
low_opac_v,0.4,1,0.01,3,0.82,3.5,0.01,0,0.01,4,5,Valid,0,22,63,start,lin,0.23100066917218726,0.23100066917218726,0.23100066917218726,1,True,,,,,,,,,,,,1,A,2023-08-24_14h12.49.175,exp3,2022.2.2,
high_opac_v,0.01,1,0.01,3,0.82,3.5,0.01,0,0.01,4,5,Valid,1,22,64,start,lin,0.08499618446356476,0.08499618446356476,0.08499618446356476,1,True,,,,,,,,,,,,1,A,2023-08-24_14h12.49.175,exp3,2022.2.2,
low_opac_i,0.4,1,0.01,3,0.82,3.5,0.01,0,0.01,4,5,Invalid,2,22,65,start,lin,0.30900572319199926,0,0.30900572319199926,0,True,,,,,,,,,,,,1,A,2023-08-24_14h12.49.175,exp3,2022.2.2,
high_opac_v,0.01,1,0.01,3,0.82,3.5,0.01,0,0.01,4,5,Valid,1,23,66,start,lin,0.08101629368500157,0,0.08101629368500157,1,True,,,,,,,,,,,,1,A,2023-08-24_14h12.49.175,exp3,2022.2.2,
low_opac_v,0.4,1,0.01,3,0.82,3.5,0.01,0,0.01,4,5,Valid,0,23,67,start,lin,0.22661607167614037,0,0.22661607167614037,1,True,,,,,,,,,,,,1,A,2023-08-24_14h12.49.175,exp3,2022.2.2,
low_opac_i,0.4,1,0.01,3,0.82,3.5,0.01,0,0.01,4,5,Invalid,2,23,68,start,lin,0.3290709601625183,0.3290709601625183,0.3290709601625183,1,True,,,,,,,,,,,,1,A,2023-08-24_14h12.49.175,exp3,2022.2.2,
high_opac_v,0.01,1,0.01,3,0.82,3.5,0.01,0,0.01,4,5,Valid,1,24,69,start,lin,0.07732389806757468,0.07732389806757468,0.07732389806757468,1,True,,,,,,,,,,,,1,A,2023-08-24_14h12.49.175,exp3,2022.2.2,
low_opac_v,0.4,1,0.01,3,0.82,3.5,0.01,0,0.01,4,5,Valid,0,24,70,start,lin,0.22262818837779486,0,0.22262818837779486,0,True,,,,,,,,,,,,1,A,2023-08-24_14h12.49.175,exp3,2022.2.2,
low_opac_i,0.4,1,0.01,3,0.82,3.5,0.01,0,0.01,4,5,Invalid,2,24,71,start,lin,0.3242293569855843,0.3242293569855843,0.3242293569855843,1,True,,,,,,,,,,,,1,A,2023-08-24_14h12.49.175,exp3,2022.2.2,
low_opac_v,0.4,1,0.01,3,0.82,3.5,0.01,0,0.01,4,5,Valid,0,25,72,start,lin,0.23791746754776447,0,0.23791746754776447,1,True,,,,,,,,,,,,1,A,2023-08-24_14h12.49.175,exp3,2022.2.2,
low_opac_i,0.4,1,0.01,3,0.82,3.5,0.01,0,0.01,4,5,Invalid,2,25,73,start,lin,0.3194742878170775,0,0.3194742878170775,1,True,,,,,,,,,,,,1,A,2023-08-24_14h12.49.175,exp3,2022.2.2,
high_opac_v,0.01,1,0.01,3,0.82,3.5,0.01,0,0.01,4,5,Valid,1,25,74,start,lin,0.07394318954545327,0.07394318954545327,0.07394318954545327,0,True,,,,,,,,,,,,1,A,2023-08-24_14h12.49.175,exp3,2022.2.2,
high_opac_v,0.01,1,0.01,3,0.82,3.5,0.01,0,0.01,4,5,Valid,1,26,75,start,lin,0.08691230731791148,0.08691230731791148,0.08691230731791148,1,True,,,,,,,,,,,,1,A,2023-08-24_14h12.49.175,exp3,2022.2.2,
low_opac_i,0.4,1,0.01,3,0.82,3.5,0.01,0,0.01,4,5,Invalid,2,26,76,start,lin,0.3152090829198447,0,0.3152090829198447,1,True,,,,,,,,,,,,1,A,2023-08-24_14h12.49.175,exp3,2022.2.2,
low_opac_v,0.4,1,0.01,3,0.82,3.5,0.01,0,0.01,4,5,Valid,0,26,77,start,lin,0.23429393358377645,0.23429393358377645,0.23429393358377645,1,True,,,,,,,,,,,,1,A,2023-08-24_14h12.49.175,exp3,2022.2.2,
low_opac_v,0.4,1,0.01,3,0.82,3.5,0.01,0,0.01,4,5,Valid,0,27,78,start,lin,0.23061991606680635,0.23061991606680635,0.23061991606680635,1,True,,,,,,,,,,,,1,A,2023-08-24_14h12.49.175,exp3,2022.2.2,
low_opac_i,0.4,1,0.01,3,0.82,3.5,0.01,0,0.01,4,5,Invalid,2,27,79,start,lin,0.31131508248823253,0,0.31131508248823253,0,True,,,,,,,,,,,,1,A,2023-08-24_14h12.49.175,exp3,2022.2.2,
high_opac_v,0.01,1,0.01,3,0.82,3.5,0.01,0,0.01,4,5,Valid,1,27,80,start,lin,0.08381676464568873,0,0.08381676464568873,1,True,,,,,,,,,,,,1,A,2023-08-24_14h12.49.175,exp3,2022.2.2,
low_opac_v,0.4,1,0.01,3,0.82,3.5,0.01,0,0.01,4,5,Valid,0,28,81,start,lin,0.22718408947708355,0,0.22718408947708355,1,True,,,,,,,,,,,,1,A,2023-08-24_14h12.49.175,exp3,2022.2.2,
high_opac_v,0.01,1,0.01,3,0.82,3.5,0.01,0,0.01,4,5,Valid,1,28,82,start,lin,0.08064077215700723,0.08064077215700723,0.08064077215700723,1,True,,,,,,,,,,,,1,A,2023-08-24_14h12.49.175,exp3,2022.2.2,
low_opac_i,0.4,1,0.01,3,0.82,3.5,0.01,0,0.01,4,5,Invalid,2,28,83,start,lin,0.3265137164001327,0.3265137164001327,0.3265137164001327,1,True,,,,,,,,,,,,1,A,2023-08-24_14h12.49.175,exp3,2022.2.2,
low_opac_v,0.4,1,0.01,3,0.82,3.5,0.01,0,0.01,4,5,Valid,0,29,84,start,lin,0.22401406044433914,0.22401406044433914,0.22401406044433914,1,True,,,,,,,,,,,,1,A,2023-08-24_14h12.49.175,exp3,2022.2.2,
low_opac_i,0.4,1,0.01,3,0.82,3.5,0.01,0,0.01,4,5,Invalid,2,29,85,start,lin,0.3229220169891981,0,0.3229220169891981,1,True,,,,,,,,,,,,1,A,2023-08-24_14h12.49.175,exp3,2022.2.2,
high_opac_v,0.01,1,0.01,3,0.82,3.5,0.01,0,0.01,4,5,Valid,1,29,86,start,lin,0.0776471311038382,0.0776471311038382,0.0776471311038382,1,True,,,,,,,,,,,,1,A,2023-08-24_14h12.49.175,exp3,2022.2.2,
low_opac_v,0.4,1,0.01,3,0.82,3.5,0.01,0,0.01,4,5,Valid,0,30,87,start,lin,0.22075990465446949,0,0.22075990465446949,1,True,,,,,,,,,,,,1,A,2023-08-24_14h12.49.175,exp3,2022.2.2,
low_opac_i,0.4,1,0.01,3,0.82,3.5,0.01,0,0.01,4,5,Invalid,2,30,88,start,lin,0.3192711939748725,0.3192711939748725,0.3192711939748725,1,True,,,,,,,,,,,,1,A,2023-08-24_14h12.49.175,exp3,2022.2.2,
high_opac_v,0.01,1,0.01,3,0.82,3.5,0.01,0,0.01,4,5,Valid,1,30,89,start,lin,0.07487343498417638,0.07487343498417638,0.07487343498417638,1,True,,,,,,,,,,,,1,A,2023-08-24_14h12.49.175,exp3,2022.2.2,
high_opac_v,0.01,1,0.01,3,0.82,3.5,0.01,0,0.01,4,5,Valid,1,31,90,start,lin,0.07202423819373176,0,0.07202423819373176,1,True,,,,,,,,,,,,1,A,2023-08-24_14h12.49.175,exp3,2022.2.2,
low_opac_v,0.4,1,0.01,3,0.82,3.5,0.01,0,0.01,4,5,Valid,0,31,91,start,lin,0.21767505088878686,0.21767505088878686,0.21767505088878686,1,True,,,,,,,,,,,,1,A,2023-08-24_14h12.49.175,exp3,2022.2.2,
low_opac_i,0.4,1,0.01,3,0.82,3.5,0.01,0,0.01,4,5,Invalid,2,31,92,start,lin,0.3159245370620051,0.3159245370620051,0.3159245370620051,1,True,,,,,,,,,,,,1,A,2023-08-24_14h12.49.175,exp3,2022.2.2,
high_opac_v,0.01,1,0.01,3,0.82,3.5,0.01,0,0.01,4,5,Valid,1,32,93,start,lin,0.06928544339307408,0,0.06928544339307408,1,True,,,,,,,,,,,,1,A,2023-08-24_14h12.49.175,exp3,2022.2.2,
low_opac_v,0.4,1,0.01,3,0.82,3.5,0.01,0,0.01,4,5,Valid,0,32,94,start,lin,0.21481034913968014,0,0.21481034913968014,1,True,,,,,,,,,,,,1,A,2023-08-24_14h12.49.175,exp3,2022.2.2,
low_opac_i,0.4,1,0.01,3,0.82,3.5,0.01,0,0.01,4,5,Invalid,2,32,95,start,lin,0.31282223705024537,0.31282223705024537,0.31282223705024537,1,True,,,,,,,,,,,,1,A,2023-08-24_14h12.49.175,exp3,2022.2.2,
high_opac_v,0.01,1,0.01,3,0.82,3.5,0.01,0,0.01,4,5,Valid,1,33,96,start,lin,0.06671765445823032,0,0.06671765445823032,1,True,,,,,,,,,,,,1,A,2023-08-24_14h12.49.175,exp3,2022.2.2,
low_opac_i,0.4,1,0.01,3,0.82,3.5,0.01,0,0.01,4,5,Invalid,2,33,97,start,lin,0.30962275600945177,0.30962275600945177,0.30962275600945177,1,True,,,,,,,,,,,,1,A,2023-08-24_14h12.49.175,exp3,2022.2.2,
low_opac_v,0.4,1,0.01,3,0.82,3.5,0.01,0,0.01,4,5,Valid,0,33,98,start,lin,0.21186294696290486,0.21186294696290486,0.21186294696290486,1,True,,,,,,,,,,,,1,A,2023-08-24_14h12.49.175,exp3,2022.2.2,
high_opac_v,0.01,1,0.01,3,0.82,3.5,0.01,0,0.01,4,5,Valid,1,34,99,start,lin,0.06430461248861616,0.06430461248861616,0.06430461248861616,0,True,,,,,,,,,,,,1,A,2023-08-24_14h12.49.175,exp3,2022.2.2,
low_opac_v,0.4,1,0.01,3,0.82,3.5,0.01,0,0.01,4,5,Valid,0,34,100,start,lin,0.2090254603223221,0,0.2090254603223221,1,True,,,,,,,,,,,,1,A,2023-08-24_14h12.49.175,exp3,2022.2.2,
low_opac_i,0.4,1,0.01,3,0.82,3.5,0.01,0,0.01,4,5,Invalid,2,34,101,start,lin,0.3066480602061835,0.3066480602061835,0.3066480602061835,1,True,,,,,,,,,,,,1,A,2023-08-24_14h12.49.175,exp3,2022.2.2,
low_opac_i,0.4,1,0.01,3,0.82,3.5,0.01,0,0.01,4,5,Invalid,2,35,102,start,lin,0.30387737475075294,0.30387737475075294,0.30387737475075294,1,True,,,,,,,,,,,,1,A,2023-08-24_14h12.49.175,exp3,2022.2.2,
high_opac_v,0.01,1,0.01,3,0.82,3.5,0.01,0,0.01,4,5,Valid,1,35,103,start,lin,0.07386118833910159,0,0.07386118833910159,1,True,,,,,,,,,,,,1,A,2023-08-24_14h12.49.175,exp3,2022.2.2,
low_opac_v,0.4,1,0.01,3,0.82,3.5,0.01,0,0.01,4,5,Valid,0,35,104,start,lin,0.2063607943797429,0.2063607943797429,0.2063607943797429,1,True,,,,,,,,,,,,1,A,2023-08-24_14h12.49.175,exp3,2022.2.2,
high_opac_v,0.01,1,0.01,3,0.82,3.5,0.01,0,0.01,4,5,Valid,1,36,105,start,lin,0.07145219830880231,0,0.07145219830880231,1,True,,,,,,,,,,,,1,A,2023-08-24_14h12.49.175,exp3,2022.2.2,
low_opac_v,0.4,1,0.01,3,0.82,3.5,0.01,0,0.01,4,5,Valid,0,36,106,start,lin,0.20385033781908463,0,0.20385033781908463,1,True,,,,,,,,,,,,1,A,2023-08-24_14h12.49.175,exp3,2022.2.2,
low_opac_i,0.4,1,0.01,3,0.82,3.5,0.01,0,0.01,4,5,Invalid,2,36,107,start,lin,0.3010127548195869,0,0.3010127548195869,1,True,,,,,,,,,,,,1,A,2023-08-24_14h12.49.175,exp3,2022.2.2,
low_opac_v,0.4,1,0.01,3,0.82,3.5,0.01,0,0.01,4,5,Valid,0,37,108,start,lin,0.20122898432494649,0,0.20122898432494649,1,True,,,,,,,,,,,,1,A,2023-08-24_14h12.49.175,exp3,2022.2.2,
high_opac_v,0.01,1,0.01,3,0.82,3.5,0.01,0,0.01,4,5,Valid,1,37,109,start,lin,0.06911459589688429,0,0.06911459589688429,1,True,,,,,,,,,,,,1,A,2023-08-24_14h12.49.175,exp3,2022.2.2,
low_opac_i,0.4,1,0.01,3,0.82,3.5,0.01,0,0.01,4,5,Invalid,2,37,110,start,lin,0.29827472259338134,0,0.29827472259338134,1,True,,,,,,,,,,,,1,A,2023-08-24_14h12.49.175,exp3,2022.2.2,
high_opac_v,0.01,1,0.01,3,0.82,3.5,0.01,0,0.01,4,5,Valid,1,38,111,start,lin,0.06691341069062287,0,0.06691341069062287,1,True,,,,,,,,,,,,1,A,2023-08-24_14h12.49.175,exp3,2022.2.2,
low_opac_v,0.4,1,0.01,3,0.82,3.5,0.01,0,0.01,4,5,Valid,0,38,112,start,lin,0.19868400003724532,0,0.19868400003724532,1,True,,,,,,,,,,,,1,A,2023-08-24_14h12.49.175,exp3,2022.2.2,
low_opac_i,0.4,1,0.01,3,0.82,3.5,0.01,0,0.01,4,5,Invalid,2,38,113,start,lin,0.2957240157932624,0,0.2957240157932624,1,True,,,,,,,,,,,,1,A,2023-08-24_14h12.49.175,exp3,2022.2.2,
low_opac_i,0.4,1,0.01,3,0.82,3.5,0.01,0,0.01,4,5,Invalid,2,39,114,start,lin,0.2933137999533073,0.2933137999533073,0.2933137999533073,1,True,,,,,,,,,,,,1,A,2023-08-24_14h12.49.175,exp3,2022.2.2,
high_opac_v,0.01,1,0.01,3,0.82,3.5,0.01,0,0.01,4,5,Valid,1,39,115,start,lin,0.06483270677083869,0.06483270677083869,0.06483270677083869,0,True,,,,,,,,,,,,1,A,2023-08-24_14h12.49.175,exp3,2022.2.2,
low_opac_v,0.4,1,0.01,3,0.82,3.5,0.01,0,0.01,4,5,Valid,0,39,116,start,lin,0.19628508023118738,0,0.19628508023118738,1,True,,,,,,,,,,,,1,A,2023-08-24_14h12.49.175,exp3,2022.2.2,
low_opac_i,0.4,1,0.01,3,0.82,3.5,0.01,0,0.01,4,5,Invalid,2,40,117,start,lin,0.29079017442610233,0.29079017442610233,0.29079017442610233,1,True,,,,,,,,,,,,1,A,2023-08-24_14h12.49.175,exp3,2022.2.2,
high_opac_v,0.01,1,0.01,3,0.82,3.5,0.01,0,0.01,4,5,Valid,1,40,118,start,lin,0.07311925060977516,0,0.07311925060977516,1,True,,,,,,,,,,,,1,A,2023-08-24_14h12.49.175,exp3,2022.2.2,
low_opac_v,0.4,1,0.01,3,0.82,3.5,0.01,0,0.01,4,5,Valid,0,40,119,start,lin,0.1940101063710688,0,0.1940101063710688,1,True,,,,,,,,,,,,1,A,2023-08-24_14h12.49.175,exp3,2022.2.2,
low_opac_v,0.4,1,0.01,3,0.82,3.5,0.01,0,0.01,4,5,Valid,0,41,120,start,lin,0.19162272641181868,0.19162272641181868,0.19162272641181868,1,True,,,,,,,,,,,,1,A,2023-08-24_14h12.49.175,exp3,2022.2.2,
high_opac_v,0.01,1,0.01,3,0.82,3.5,0.01,0,0.01,4,5,Valid,1,41,121,start,lin,0.07102877873866398,0.07102877873866398,0.07102877873866398,0,True,,,,,,,,,,,,1,A,2023-08-24_14h12.49.175,exp3,2022.2.2,
low_opac_i,0.4,1,0.01,3,0.82,3.5,0.01,0,0.01,4,5,Invalid,2,41,122,start,lin,0.28835584208172527,0.28835584208172527,0.28835584208172527,1,True,,,,,,,,,,,,1,A,2023-08-24_14h12.49.175,exp3,2022.2.2,
low_opac_v,0.4,1,0.01,3,0.82,3.5,0.01,0,0.01,4,5,Valid,0,42,123,start,lin,0.1892851029221998,0.1892851029221998,0.1892851029221998,1,True,,,,,,,,,,,,1,A,2023-08-24_14h12.49.175,exp3,2022.2.2,
low_opac_i,0.4,1,0.01,3,0.82,3.5,0.01,0,0.01,4,5,Invalid,2,42,124,start,lin,0.28607273856168597,0,0.28607273856168597,1,True,,,,,,,,,,,,1,A,2023-08-24_14h12.49.175,exp3,2022.2.2,
high_opac_v,0.01,1,0.01,3,0.82,3.5,0.01,0,0.01,4,5,Valid,1,42,125,start,lin,0.07901561990725647,0.07901561990725647,0.07901561990725647,1,True,,,,,,,,,,,,1,A,2023-08-24_14h12.49.175,exp3,2022.2.2,
high_opac_v,0.01,1,0.01,3,0.82,3.5,0.01,0,0.01,4,5,Valid,1,43,126,start,lin,0.07710156074442755,0,0.07710156074442755,1,True,,,,,,,,,,,,1,A,2023-08-24_14h12.49.175,exp3,2022.2.2,
low_opac_v,0.4,1,0.01,3,0.82,3.5,0.01,0,0.01,4,5,Valid,0,43,127,start,lin,0.1870530362444256,0.1870530362444256,0.1870530362444256,1,True,,,,,,,,,,,,1,A,2023-08-24_14h12.49.175,exp3,2022.2.2,
low_opac_i,0.4,1,0.01,3,0.82,3.5,0.01,0,0.01,4,5,Invalid,2,43,128,start,lin,0.28390588045431653,0,0.28390588045431653,1,True,,,,,,,,,,,,1,A,2023-08-24_14h12.49.175,exp3,2022.2.2,
low_opac_v,0.4,1,0.01,3,0.82,3.5,0.01,0,0.01,4,5,Valid,0,44,129,start,lin,0.18493576244899002,0.18493576244899002,0.18493576244899002,1,True,,,,,,,,,,,,1,A,2023-08-24_14h12.49.175,exp3,2022.2.2,
high_opac_v,0.01,1,0.01,3,0.82,3.5,0.01,0,0.01,4,5,Valid,1,44,130,start,lin,0.0752858273768181,0,0.0752858273768181,1,True,,,,,,,,,,,,1,A,2023-08-24_14h12.49.175,exp3,2022.2.2,
low_opac_i,0.4,1,0.01,3,0.82,3.5,0.01,0,0.01,4,5,Invalid,2,44,131,start,lin,0.28163191607915783,0,0.28163191607915783,1,True,,,,,,,,,,,,1,A,2023-08-24_14h12.49.175,exp3,2022.2.2,
low_opac_v,0.4,1,0.01,3,0.82,3.5,0.01,0,0.01,4,5,Valid,0,45,132,start,lin,0.18271751867100508,0,0.18271751867100508,1,True,,,,,,,,,,,,1,A,2023-08-24_14h12.49.175,exp3,2022.2.2,
high_opac_v,0.01,1,0.01,3,0.82,3.5,0.01,0,0.01,4,5,Valid,1,45,133,start,lin,0.0735425505474677,0.0735425505474677,0.0735425505474677,1,True,,,,,,,,,,,,1,A,2023-08-24_14h12.49.175,exp3,2022.2.2,
low_opac_i,0.4,1,0.01,3,0.82,3.5,0.01,0,0.01,4,5,Invalid,2,45,134,start,lin,0.27940880264143153,0,0.27940880264143153,1,True,,,,,,,,,,,,1,A,2023-08-24_14h12.49.175,exp3,2022.2.2,
low_opac_i,0.4,1,0.01,3,0.82,3.5,0.01,0,0.01,4,5,Invalid,2,46,135,start,lin,0.2772922635922246,0,0.2772922635922246,1,True,,,,,,,,,,,,1,A,2023-08-24_14h12.49.175,exp3,2022.2.2,
high_opac_v,0.01,1,0.01,3,0.82,3.5,0.01,0,0.01,4,5,Valid,1,46,136,start,lin,0.0716963661138188,0,0.0716963661138188,1,True,,,,,,,,,,,,1,A,2023-08-24_14h12.49.175,exp3,2022.2.2,
low_opac_v,0.4,1,0.01,3,0.82,3.5,0.01,0,0.01,4,5,Valid,0,46,137,start,lin,0.18055037106531915,0.18055037106531915,0.18055037106531915,1,True,,,,,,,,,,,,1,A,2023-08-24_14h12.49.175,exp3,2022.2.2,
low_opac_i,0.4,1,0.01,3,0.82,3.5,0.01,0,0.01,4,5,Invalid,2,47,138,start,lin,0.2752880613061303,0.2752880613061303,0.2752880613061303,1,True,,,,,,,,,,,,1,A,2023-08-24_14h12.49.175,exp3,2022.2.2,
low_opac_v,0.4,1,0.01,3,0.82,3.5,0.01,0,0.01,4,5,Valid,0,47,139,start,lin,0.17841836420387738,0.17841836420387738,0.17841836420387738,1,True,,,,,,,,,,,,1,A,2023-08-24_14h12.49.175,exp3,2022.2.2,
high_opac_v,0.01,1,0.01,3,0.82,3.5,0.01,0,0.01,4,5,Valid,1,47,140,start,lin,0.06987899254186349,0.06987899254186349,0.06987899254186349,1,True,,,,,,,,,,,,1,A,2023-08-24_14h12.49.175,exp3,2022.2.2,
high_opac_v,0.01,1,0.01,3,0.82,3.5,0.01,0,0.01,4,5,Valid,1,48,141,start,lin,0.06813049231857585,0.06813049231857585,0.06813049231857585,1,True,,,,,,,,,,,,1,A,2023-08-24_14h12.49.175,exp3,2022.2.2,
low_opac_i,0.4,1,0.01,3,0.82,3.5,0.01,0,0.01,4,5,Invalid,2,48,142,start,lin,0.27336524865073564,0,0.27336524865073564,0,True,,,,,,,,,,,,1,A,2023-08-24_14h12.49.175,exp3,2022.2.2,
low_opac_v,0.4,1,0.01,3,0.82,3.5,0.01,0,0.01,4,5,Valid,0,48,143,start,lin,0.1763934733496528,0,0.1763934733496528,1,True,,,,,,,,,,,,1,A,2023-08-24_14h12.49.175,exp3,2022.2.2,
low_opac_i,0.4,1,0.01,3,0.82,3.5,0.01,0,0.01,4,5,Invalid,2,49,144,start,lin,0.2812489552264745,0.2812489552264745,0.2812489552264745,1,True,,,,,,,,,,,,1,A,2023-08-24_14h12.49.175,exp3,2022.2.2,
low_opac_v,0.4,1,0.01,3,0.82,3.5,0.01,0,0.01,4,5,Valid,0,49,145,start,lin,0.17445585244668732,0.17445585244668732,0.17445585244668732,1,True,,,,,,,,,,,,1,A,2023-08-24_14h12.49.175,exp3,2022.2.2,
high_opac_v,0.01,1,0.01,3,0.82,3.5,0.01,0,0.01,4,5,Valid,1,49,146,start,lin,0.06647396968447641,0.06647396968447641,0.06647396968447641,0,True,,,,,,,,,,,,1,A,2023-08-24_14h12.49.175,exp3,2022.2.2,
low_opac_i,0.4,1,0.01,3,0.82,3.5,0.01,0,0.01,4,5,Invalid,2,50,147,start,lin,0.2792939845775586,0.2792939845775586,0.2792939845775586,1,True,,,,,,,,,,,,1,A,2023-08-24_14h12.49.175,exp3,2022.2.2,
low_opac_v,0.4,1,0.01,3,0.82,3.5,0.01,0,0.01,4,5,Valid,0,50,148,start,lin,0.1724086652659682,0,0.1724086652659682,1,True,,,,,,,,,,,,1,A,2023-08-24_14h12.49.175,exp3,2022.2.2,
high_opac_v,0.01,1,0.01,3,0.82,3.5,0.01,0,0.01,4,5,Valid,1,50,149,start,lin,0.07346774159971836,0,0.07346774159971836,1,True,,,,,,,,,,,,1,A,2023-08-24_14h12.49.175,exp3,2022.2.2,
low_opac_v,0.4,1,0.01,3,0.82,3.5,0.01,0,0.01,4,5,Valid,0,51,150,start,lin,0.17039548013637096,0,0.17039548013637096,1,True,,,,,,,,,,,,1,A,2023-08-24_14h12.49.175,exp3,2022.2.2,
low_opac_i,0.4,1,0.01,3,0.82,3.5,0.01,0,0.01,4,5,Invalid,2,51,151,start,lin,0.2774309720530219,0,0.2774309720530219,1,True,,,,,,,,,,,,1,A,2023-08-24_14h12.49.175,exp3,2022.2.2,
high_opac_v,0.01,1,0.01,3,0.82,3.5,0.01,0,0.01,4,5,Valid,1,51,152,start,lin,0.07181676737903402,0,0.07181676737903402,1,True,,,,,,,,,,,,1,A,2023-08-24_14h12.49.175,exp3,2022.2.2,
high_opac_v,0.01,1,0.01,3,0.82,3.5,0.01,0,0.01,4,5,Valid,1,52,153,start,lin,0.07018639001311647,0,0.07018639001311647,1,True,,,,,,,,,,,,1,A,2023-08-24_14h12.49.175,exp3,2022.2.2,
low_opac_v,0.4,1,0.01,3,0.82,3.5,0.01,0,0.01,4,5,Valid,0,52,154,start,lin,0.16840072098454933,0,0.16840072098454933,1,True,,,,,,,,,,,,1,A,2023-08-24_14h12.49.175,exp3,2022.2.2,
low_opac_i,0.4,1,0.01,3,0.82,3.5,0.01,0,0.01,4,5,Invalid,2,52,155,start,lin,0.2756605341960113,0,0.2756605341960113,1,True,,,,,,,,,,,,1,A,2023-08-24_14h12.49.175,exp3,2022.2.2,
low_opac_v,0.4,1,0.01,3,0.82,3.5,0.01,0,0.01,4,5,Valid,0,53,156,start,lin,0.16649926157247175,0.16649926157247175,0.16649926157247175,1,True,,,,,,,,,,,,1,A,2023-08-24_14h12.49.175,exp3,2022.2.2,
high_opac_v,0.01,1,0.01,3,0.82,3.5,0.01,0,0.01,4,5,Valid,1,53,157,start,lin,0.06859728932450627,0,0.06859728932450627,1,True,,,,,,,,,,,,1,A,2023-08-24_14h12.49.175,exp3,2022.2.2,
low_opac_i,0.4,1,0.01,3,0.82,3.5,0.01,0,0.01,4,5,Invalid,2,53,158,start,lin,0.27395869060413675,0,0.27395869060413675,1,True,,,,,,,,,,,,1,A,2023-08-24_14h12.49.175,exp3,2022.2.2,
low_opac_v,0.4,1,0.01,3,0.82,3.5,0.01,0,0.01,4,5,Valid,0,54,159,start,lin,0.16467364219680922,0.16467364219680922,0.16467364219680922,1,True,,,,,,,,,,,,1,A,2023-08-24_14h12.49.175,exp3,2022.2.2,
low_opac_i,0.4,1,0.01,3,0.82,3.5,0.01,0,0.01,4,5,Invalid,2,54,160,start,lin,0.2721550381891785,0,0.2721550381891785,1,True,,,,,,,,,,,,1,A,2023-08-24_14h12.49.175,exp3,2022.2.2,
high_opac_v,0.01,1,0.01,3,0.82,3.5,0.01,0,0.01,4,5,Valid,1,54,161,start,lin,0.06709018648584807,0,0.06709018648584807,1,True,,,,,,,,,,,,1,A,2023-08-24_14h12.49.175,exp3,2022.2.2,
high_opac_v,0.01,1,0.01,3,0.82,3.5,0.01,0,0.01,4,5,Valid,1,55,162,start,lin,0.06564780559135897,0,0.06564780559135897,1,True,,,,,,,,,,,,1,A,2023-08-24_14h12.49.175,exp3,2022.2.2,
low_opac_i,0.4,1,0.01,3,0.82,3.5,0.01,0,0.01,4,5,Invalid,2,55,163,start,lin,0.2703786805889181,0.2703786805889181,0.2703786805889181,1,True,,,,,,,,,,,,1,A,2023-08-24_14h12.49.175,exp3,2022.2.2,
low_opac_v,0.4,1,0.01,3,0.82,3.5,0.01,0,0.01,4,5,Valid,0,55,164,start,lin,0.1627395319284652,0.1627395319284652,0.1627395319284652,1,True,,,,,,,,,,,,1,A,2023-08-24_14h12.49.175,exp3,2022.2.2,
high_opac_v,0.01,1,0.01,3,0.82,3.5,0.01,0,0.01,4,5,Valid,1,56,165,start,lin,0.06425441105191282,0.06425441105191282,0.06425441105191282,1,True,,,,,,,,,,,,1,A,2023-08-24_14h12.49.175,exp3,2022.2.2,
low_opac_v,0.4,1,0.01,3,0.82,3.5,0.01,0,0.01,4,5,Valid,0,56,166,start,lin,0.16083419523510445,0.16083419523510445,0.16083419523510445,1,True,,,,,,,,,,,,1,A,2023-08-24_14h12.49.175,exp3,2022.2.2,
low_opac_i,0.4,1,0.01,3,0.82,3.5,0.01,0,0.01,4,5,Invalid,2,56,167,start,lin,0.26863240378030906,0.26863240378030906,0.26863240378030906,1,True,,,,,,,,,,,,1,A,2023-08-24_14h12.49.175,exp3,2022.2.2,
high_opac_v,0.01,1,0.01,3,0.82,3.5,0.01,0,0.01,4,5,Valid,1,57,168,start,lin,0.06277379512611858,0.06277379512611858,0.06277379512611858,1,True,,,,,,,,,,,,1,A,2023-08-24_14h12.49.175,exp3,2022.2.2,
low_opac_i,0.4,1,0.01,3,0.82,3.5,0.01,0,0.01,4,5,Invalid,2,57,169,start,lin,0.2669733134530585,0.2669733134530585,0.2669733134530585,0,True,,,,,,,,,,,,1,A,2023-08-24_14h12.49.175,exp3,2022.2.2,
low_opac_v,0.4,1,0.01,3,0.82,3.5,0.01,0,0.01,4,5,Valid,0,57,170,start,lin,0.15892660385739935,0,0.15892660385739935,0,True,,,,,,,,,,,,1,A,2023-08-24_14h12.49.175,exp3,2022.2.2,
low_opac_v,0.4,1,0.01,3,0.82,3.5,0.01,0,0.01,4,5,Valid,0,58,171,start,lin,0.16638752711368088,0.16638752711368088,0.16638752711368088,1,True,,,,,,,,,,,,1,A,2023-08-24_14h12.49.175,exp3,2022.2.2,
low_opac_i,0.4,1,0.01,3,0.82,3.5,0.01,0,0.01,4,5,Invalid,2,58,172,start,lin,0.27388193765969915,0.27388193765969915,0.27388193765969915,1,True,,,,,,,,,,,,1,A,2023-08-24_14h12.49.175,exp3,2022.2.2,
high_opac_v,0.01,1,0.01,3,0.82,3.5,0.01,0,0.01,4,5,Valid,1,58,173,start,lin,0.061314868586674044,0.061314868586674044,0.061314868586674044,0,True,,,,,,,,,,,,1,A,2023-08-24_14h12.49.175,exp3,2022.2.2,
low_opac_v,0.4,1,0.01,3,0.82,3.5,0.01,0,0.01,4,5,Valid,0,59,174,start,lin,0.1647710344118268,0,0.1647710344118268,1,True,,,,,,,,,,,,1,A,2023-08-24_14h12.49.175,exp3,2022.2.2,
high_opac_v,0.01,1,0.01,3,0.82,3.5,0.01,0,0.01,4,5,Valid,1,59,175,start,lin,0.06695166756213801,0,0.06695166756213801,1,True,,,,,,,,,,,,1,A,2023-08-24_14h12.49.175,exp3,2022.2.2,
low_opac_i,0.4,1,0.01,3,0.82,3.5,0.01,0,0.01,4,5,Invalid,2,59,176,start,lin,0.2722661650229567,0.2722661650229567,0.2722661650229567,1,True,,,,,,,,,,,,1,A,2023-08-24_14h12.49.175,exp3,2022.2.2,
low_opac_v,0.4,1,0.01,3,0.82,3.5,0.01,0,0.01,4,5,Valid,0,60,177,start,lin,0.16305599461686252,0,0.16305599461686252,1,True,,,,,,,,,,,,1,A,2023-08-24_14h12.49.175,exp3,2022.2.2,
low_opac_i,0.4,1,0.01,3,0.82,3.5,0.01,0,0.01,4,5,Invalid,2,60,178,start,lin,0.2706709974321259,0,0.2706709974321259,1,True,,,,,,,,,,,,1,A,2023-08-24_14h12.49.175,exp3,2022.2.2,
high_opac_v,0.01,1,0.01,3,0.82,3.5,0.01,0,0.01,4,5,Valid,1,60,179,start,lin,0.06564010714011852,0.06564010714011852,0.06564010714011852,0,True,,,,,,,,,,,,1,A,2023-08-24_14h12.49.175,exp3,2022.2.2,
high_opac_v,0.01,1,0.01,3,0.82,3.5,0.01,0,0.01,4,5,Valid,1,61,180,start,lin,0.07138242620475173,0.07138242620475173,0.07138242620475173,0,True,,,,,,,,,,,,1,A,2023-08-24_14h12.49.175,exp3,2022.2.2,
low_opac_i,0.4,1,0.01,3,0.82,3.5,0.01,0,0.01,4,5,Invalid,2,61,181,start,lin,0.26908956169168635,0,0.26908956169168635,1,True,,,,,,,,,,,,1,A,2023-08-24_14h12.49.175,exp3,2022.2.2,
low_opac_v,0.4,1,0.01,3,0.82,3.5,0.01,0,0.01,4,5,Valid,0,61,182,start,lin,0.16136639785221396,0.16136639785221396,0.16136639785221396,1,True,,,,,,,,,,,,1,A,2023-08-24_14h12.49.175,exp3,2022.2.2,
low_opac_v,0.4,1,0.01,3,0.82,3.5,0.01,0,0.01,4,5,Valid,0,62,183,start,lin,0.15967801228892733,0.15967801228892733,0.15967801228892733,1,True,,,,,,,,,,,,1,A,2023-08-24_14h12.49.175,exp3,2022.2.2,
high_opac_v,0.01,1,0.01,3,0.82,3.5,0.01,0,0.01,4,5,Valid,1,62,184,start,lin,0.0766639979417154,0,0.0766639979417154,1,True,,,,,,,,,,,,1,A,2023-08-24_14h12.49.175,exp3,2022.2.2,
low_opac_i,0.4,1,0.01,3,0.82,3.5,0.01,0,0.01,4,5,Invalid,2,62,185,start,lin,0.26757860679664813,0,0.26757860679664813,1,True,,,,,,,,,,,,1,A,2023-08-24_14h12.49.175,exp3,2022.2.2,
high_opac_v,0.01,1,0.01,3,0.82,3.5,0.01,0,0.01,4,5,Valid,1,63,186,start,lin,0.0754355494503123,0.0754355494503123,0.0754355494503123,0,True,,,,,,,,,,,,1,A,2023-08-24_14h12.49.175,exp3,2022.2.2,
low_opac_i,0.4,1,0.01,3,0.82,3.5,0.01,0,0.01,4,5,Invalid,2,63,187,start,lin,0.2661335524681091,0,0.2661335524681091,1,True,,,,,,,,,,,,1,A,2023-08-24_14h12.49.175,exp3,2022.2.2,
low_opac_v,0.4,1,0.01,3,0.82,3.5,0.01,0,0.01,4,5,Valid,0,63,188,start,lin,0.1580184218464078,0.1580184218464078,0.1580184218464078,1,True,,,,,,,,,,,,1,A,2023-08-24_14h12.49.175,exp3,2022.2.2,
high_opac_v,0.01,1,0.01,3,0.82,3.5,0.01,0,0.01,4,5,Valid,1,64,189,start,lin,0.08085179040170927,0,0.08085179040170927,1,True,,,,,,,,,,,,1,A,2023-08-24_14h12.49.175,exp3,2022.2.2,
low_opac_v,0.4,1,0.01,3,0.82,3.5,0.01,0,0.01,4,5,Valid,0,64,190,start,lin,0.15643095649413072,0.15643095649413072,0.15643095649413072,1,True,,,,,,,,,,,,1,A,2023-08-24_14h12.49.175,exp3,2022.2.2,
low_opac_i,0.4,1,0.01,3,0.82,3.5,0.01,0,0.01,4,5,Invalid,2,64,191,start,lin,0.26473878793431255,0,0.26473878793431255,1,True,,,,,,,,,,,,1,A,2023-08-24_14h12.49.175,exp3,2022.2.2,
low_opac_i,0.4,1,0.01,3,0.82,3.5,0.01,0,0.01,4,5,Invalid,2,65,192,start,lin,0.26325845184037655,0.26325845184037655,0.26325845184037655,1,True,,,,,,,,,,,,1,A,2023-08-24_14h12.49.175,exp3,2022.2.2,
high_opac_v,0.01,1,0.01,3,0.82,3.5,0.01,0,0.01,4,5,Valid,1,65,193,start,lin,0.07955802593147475,0,0.07955802593147475,1,True,,,,,,,,,,,,1,A,2023-08-24_14h12.49.175,exp3,2022.2.2,
low_opac_v,0.4,1,0.01,3,0.82,3.5,0.01,0,0.01,4,5,Valid,0,65,194,start,lin,0.15489744890562357,0,0.15489744890562357,1,True,,,,,,,,,,,,1,A,2023-08-24_14h12.49.175,exp3,2022.2.2,
high_opac_v,0.01,1,0.01,3,0.82,3.5,0.01,0,0.01,4,5,Valid,1,66,195,start,lin,0.07831574327050607,0,0.07831574327050607,1,True,,,,,,,,,,,,1,A,2023-08-24_14h12.49.175,exp3,2022.2.2,
low_opac_i,0.4,1,0.01,3,0.82,3.5,0.01,0,0.01,4,5,Invalid,2,66,196,start,lin,0.2618014719142491,0.2618014719142491,0.2618014719142491,1,True,,,,,,,,,,,,1,A,2023-08-24_14h12.49.175,exp3,2022.2.2,
low_opac_v,0.4,1,0.01,3,0.82,3.5,0.01,0,0.01,4,5,Valid,0,66,197,start,lin,0.1532661058967524,0,0.1532661058967524,1,True,,,,,,,,,,,,1,A,2023-08-24_14h12.49.175,exp3,2022.2.2,
low_opac_v,0.4,1,0.01,3,0.82,3.5,0.01,0,0.01,4,5,Valid,0,67,198,start,lin,0.15165589669100346,0.15165589669100346,0.15165589669100346,1,True,,,,,,,,,,,,1,A,2023-08-24_14h12.49.175,exp3,2022.2.2,
low_opac_i,0.4,1,0.01,3,0.82,3.5,0.01,0,0.01,4,5,Invalid,2,67,199,start,lin,0.2603531278729904,0.2603531278729904,0.2603531278729904,1,True,,,,,,,,,,,,1,A,2023-08-24_14h12.49.175,exp3,2022.2.2,
high_opac_v,0.01,1,0.01,3,0.82,3.5,0.01,0,0.01,4,5,Valid,1,67,200,start,lin,0.07712923332157308,0,0.07712923332157308,1,True,,,,,,,,,,,,1,A,2023-08-24_14h12.49.175,exp3,2022.2.2,
low_opac_v,0.4,1,0.01,3,0.82,3.5,0.01,0,0.01,4,5,Valid,0,68,201,start,lin,0.15004919020416183,0.15004919020416183,0.15004919020416183,1,True,,,,,,,,,,,,1,A,2023-08-24_14h12.49.175,exp3,2022.2.2,
low_opac_i,0.4,1,0.01,3,0.82,3.5,0.01,0,0.01,4,5,Invalid,2,68,202,start,lin,0.2589136695370541,0.2589136695370541,0.2589136695370541,1,True,,,,,,,,,,,,1,A,2023-08-24_14h12.49.175,exp3,2022.2.2,
high_opac_v,0.01,1,0.01,3,0.82,3.5,0.01,0,0.01,4,5,Valid,1,68,203,start,lin,0.07598755595631135,0.07598755595631135,0.07598755595631135,0,True,,,,,,,,,,,,1,A,2023-08-24_14h12.49.175,exp3,2022.2.2,
low_opac_v,0.4,1,0.01,3,0.82,3.5,0.01,0,0.01,4,5,Valid,0,69,204,start,lin,0.14843307427003316,0,0.14843307427003316,1,True,,,,,,,,,,,,1,A,2023-08-24_14h12.49.175,exp3,2022.2.2,
low_opac_i,0.4,1,0.01,3,0.82,3.5,0.01,0,0.01,4,5,Invalid,2,69,205,start,lin,0.25753745800168737,0,0.25753745800168737,1,True,,,,,,,,,,,,1,A,2023-08-24_14h12.49.175,exp3,2022.2.2,
high_opac_v,0.01,1,0.01,3,0.82,3.5,0.01,0,0.01,4,5,Valid,1,69,206,start,lin,0.08100358220411864,0,0.08100358220411864,1,True,,,,,,,,,,,,1,A,2023-08-24_14h12.49.175,exp3,2022.2.2,
high_opac_v,0.01,1,0.01,3,0.82,3.5,0.01,0,0.01,4,5,Valid,1,70,207,start,lin,0.07980361386591332,0.07980361386591332,0.07980361386591332,0,True,,,,,,,,,,,,1,A,2023-08-24_14h12.49.175,exp3,2022.2.2,
low_opac_i,0.4,1,0.01,3,0.82,3.5,0.01,0,0.01,4,5,Invalid,2,70,208,start,lin,0.2562164877102867,0,0.2562164877102867,1,True,,,,,,,,,,,,1,A,2023-08-24_14h12.49.175,exp3,2022.2.2,
low_opac_v,0.4,1,0.01,3,0.82,3.5,0.01,0,0.01,4,5,Valid,0,70,209,start,lin,0.1468848675679078,0.1468848675679078,0.1468848675679078,1,True,,,,,,,,,,,,1,A,2023-08-24_14h12.49.175,exp3,2022.2.2,
high_opac_v,0.01,1,0.01,3,0.82,3.5,0.01,0,0.01,4,5,Valid,1,71,210,start,lin,0.08450636837495867,0.08450636837495867,0.08450636837495867,1,True,,,,,,,,,,,,1,A,2023-08-24_14h12.49.175,exp3,2022.2.2,
low_opac_v,0.4,1,0.01,3,0.82,3.5,0.01,0,0.01,4,5,Valid,0,71,211,start,lin,0.14538890960960188,0,0.14538890960960188,1,True,,,,,,,,,,,,1,A,2023-08-24_14h12.49.175,exp3,2022.2.2,
low_opac_i,0.4,1,0.01,3,0.82,3.5,0.01,0,0.01,4,5,Invalid,2,71,212,start,lin,0.25493795604201014,0.25493795604201014,0.25493795604201014,1,True,,,,,,,,,,,,1,A,2023-08-24_14h12.49.175,exp3,2022.2.2,
low_opac_v,0.4,1,0.01,3,0.82,3.5,0.01,0,0.01,4,5,Valid,0,72,213,start,lin,0.14392979656992755,0.14392979656992755,0.14392979656992755,1,True,,,,,,,,,,,,1,A,2023-08-24_14h12.49.175,exp3,2022.2.2,
low_opac_i,0.4,1,0.01,3,0.82,3.5,0.01,0,0.01,4,5,Invalid,2,72,214,start,lin,0.2535782910711868,0,0.2535782910711868,1,True,,,,,,,,,,,,1,A,2023-08-24_14h12.49.175,exp3,2022.2.2,
high_opac_v,0.01,1,0.01,3,0.82,3.5,0.01,0,0.01,4,5,Valid,1,72,215,start,lin,0.08337101980772715,0.08337101980772715,0.08337101980772715,0,True,,,,,,,,,,,,1,A,2023-08-24_14h12.49.175,exp3,2022.2.2,
low_opac_i,0.4,1,0.01,3,0.82,3.5,0.01,0,0.01,4,5,Invalid,2,73,216,start,lin,0.2522386654619046,0.2522386654619046,0.2522386654619046,1,True,,,,,,,,,,,,1,A,2023-08-24_14h12.49.175,exp3,2022.2.2,
low_opac_v,0.4,1,0.01,3,0.82,3.5,0.01,0,0.01,4,5,Valid,0,73,217,start,lin,0.14236079585736755,0,0.14236079585736755,1,True,,,,,,,,,,,,1,A,2023-08-24_14h12.49.175,exp3,2022.2.2,
high_opac_v,0.01,1,0.01,3,0.82,3.5,0.01,0,0.01,4,5,Valid,1,73,218,start,lin,0.08772088754678102,0.08772088754678102,0.08772088754678102,0,True,,,,,,,,,,,,1,A,2023-08-24_14h12.49.175,exp3,2022.2.2,
high_opac_v,0.01,1,0.01,3,0.82,3.5,0.01,0,0.01,4,5,Valid,1,74,219,start,lin,0.09236221765305351,0.09236221765305351,0.09236221765305351,0,True,,,,,,,,,,,,1,A,2023-08-24_14h12.49.175,exp3,2022.2.2,
low_opac_i,0.4,1,0.01,3,0.82,3.5,0.01,0,0.01,4,5,Invalid,2,74,220,start,lin,0.25090663216842957,0,0.25090663216842957,1,True,,,,,,,,,,,,1,A,2023-08-24_14h12.49.175,exp3,2022.2.2,
low_opac_v,0.4,1,0.01,3,0.82,3.5,0.01,0,0.01,4,5,Valid,0,74,221,start,lin,0.1407975317395177,0.1407975317395177,0.1407975317395177,1,True,,,,,,,,,,,,1,A,2023-08-24_14h12.49.175,exp3,2022.2.2,
low_opac_v,0.4,1,0.01,3,0.82,3.5,0.01,0,0.01,4,5,Valid,0,75,222,start,lin,0.13920768148395818,0.13920768148395818,0.13920768148395818,1,True,,,,,,,,,,,,1,A,2023-08-24_14h12.49.175,exp3,2022.2.2,
low_opac_i,0.4,1,0.01,3,0.82,3.5,0.01,0,0.01,4,5,Invalid,2,75,223,start,lin,0.24956824778614892,0,0.24956824778614892,1,True,,,,,,,,,,,,1,A,2023-08-24_14h12.49.175,exp3,2022.2.2,
high_opac_v,0.01,1,0.01,3,0.82,3.5,0.01,0,0.01,4,5,Valid,1,75,224,start,lin,0.09662525615567898,0.09662525615567898,0.09662525615567898,1,True,,,,,,,,,,,,1,A,2023-08-24_14h12.49.175,exp3,2022.2.2,
,,,,,,,,,,,,,,,,,,,,,,,0,-1716,Valid,signal,0,2,908.6489938999875,0,2.0,13.754579100001138,True,1,A,2023-08-24_14h12.49.175,exp3,2022.2.2,
,,,,,,,,,,,,,,,,,,,,,,,0,1158,Valid,signal,0,1,914.1368472999893,1,4.0,2.529805999947712,True,1,A,2023-08-24_14h12.49.175,exp3,2022.2.2,
,,,,,,,,,,,,,,,,,,,,,,,0,2274,Invalid,noise,0,2,918.5051169999642,1,2.0,3.696377600019332,True,1,A,2023-08-24_14h12.49.175,exp3,2022.2.2,
,,,,,,,,,,,,,,,,,,,,,,,0,-1158,Valid,noise,0,2,923.8002974999836,1,3.0,4.146547699987423,True,1,A,2023-08-24_14h12.49.175,exp3,2022.2.2,
,,,,,,,,,,,,,,,,,,,,,,,0,557,Valid,noise,0,2,927.6243909999612,1,4.0,2.8280652000103146,True,1,A,2023-08-24_14h12.49.175,exp3,2022.2.2,
,,,,,,,,,,,,,,,,,,,,,,,0,557,Valid,noise,0,2,931.369438899972,1,4.0,2.746543199988082,True,1,A,2023-08-24_14h12.49.175,exp3,2022.2.2,
,,,,,,,,,,,,,,,,,,,,,,,0,557,Valid,noise,0,2,934.9363734999788,1,4.0,2.1452024999889545,True,1,A,2023-08-24_14h12.49.175,exp3,2022.2.2,
,,,,,,,,,,,,,,,,,,,,,,,0,-2274,Valid,signal,0,2,938.9686694999691,0,3.0,3.2465147000038996,True,1,A,2023-08-24_14h12.49.175,exp3,2022.2.2,
,,,,,,,,,,,,,,,,,,,,,,,0,-1716,Invalid,noise,0,2,943.801685799961,1,3.0,4.996173800027464,True,1,A,2023-08-24_14h12.49.175,exp3,2022.2.2,
,,,,,,,,,,,,,,,,,,,,,,,0,-2274,Valid,noise,0,2,948.9843493999797,1,3.0,3.5136913000023924,True,1,A,2023-08-24_14h12.49.175,exp3,2022.2.2,
,,,,,,,,,,,,,,,,,,,,,,,0,-557,Valid,signal,0,1,953.1614703999949,1,2.0,3.762453600007575,True,1,A,2023-08-24_14h12.49.175,exp3,2022.2.2,
,,,,,,,,,,,,,,,,,,,,,,,0,1158,Invalid,noise,0,2,957.8324635999743,1,4.0,2.562994099978823,True,1,A,2023-08-24_14h12.49.175,exp3,2022.2.2,
,,,,,,,,,,,,,,,,,,,,,,,0,-1716,Valid,noise,0,2,961.3363463999704,1,4.0,2.6959992999909446,True,1,A,2023-08-24_14h12.49.175,exp3,2022.2.2,
,,,,,,,,,,,,,,,,,,,,,,,0,-557,Valid,noise,0,2,965.0174271999858,1,4.0,2.262437099998351,True,1,A,2023-08-24_14h12.49.175,exp3,2022.2.2,
,,,,,,,,,,,,,,,,,,,,,,,0,1716,Valid,signal,0,2,969.065355299972,0,3.0,3.279392700002063,True,1,A,2023-08-24_14h12.49.175,exp3,2022.2.2,
,,,,,,,,,,,,,,,,,,,,,,,0,-1158,Valid,noise,0,2,973.00102039997,1,4.0,2.8293562999460846,True,1,A,2023-08-24_14h12.49.175,exp3,2022.2.2,
,,,,,,,,,,,,,,,,,,,,,,,0,-557,Valid,noise,0,2,976.2175115999999,1,4.0,1.9123085999744944,True,1,A,2023-08-24_14h12.49.175,exp3,2022.2.2,
,,,,,,,,,,,,,,,,,,,,,,,0,1158,Valid,noise,0,2,979.1936021000147,1,4.0,1.8959996000048704,True,1,A,2023-08-24_14h12.49.175,exp3,2022.2.2,
,,,,,,,,,,,,,,,,,,,,,,,0,1716,Invalid,noise,0,2,982.0569864999852,1,4.0,1.845562600006815,True,1,A,2023-08-24_14h12.49.175,exp3,2022.2.2,
,,,,,,,,,,,,,,,,,,,,,,,0,-1716,Valid,noise,0,2,985.0173726999783,1,4.0,1.979407100006938,True,1,A,2023-08-24_14h12.49.175,exp3,2022.2.2,
,,,,,,,,,,,,,,,,,,,,,,,0,1158,Valid,noise,0,2,988.0725087999599,1,4.0,2.0787897999980487,True,1,A,2023-08-24_14h12.49.175,exp3,2022.2.2,
,,,,,,,,,,,,,,,,,,,,,,,0,557,Valid,signal,0,2,990.9524920000113,0,4.0,1.8289841000223532,True,1,A,2023-08-24_14h12.49.175,exp3,2022.2.2,
,,,,,,,,,,,,,,,,,,,,,,,0,-1716,Valid,signal,0,2,993.9130312000052,0,4.0,1.946167999994941,True,1,A,2023-08-24_14h12.49.175,exp3,2022.2.2,
,,,,,,,,,,,,,,,,,,,,,,,0,557,Valid,noise,0,2,996.7769936000113,1,4.0,1.862249099998735,True,1,A,2023-08-24_14h12.49.175,exp3,2022.2.2,
,,,,,,,,,,,,,,,,,,,,,,,0,-1158,Valid,noise,0,2,999.5934404999716,1,4.0,1.7791624999954365,True,1,A,2023-08-24_14h12.49.175,exp3,2022.2.2,
,,,,,,,,,,,,,,,,,,,,,,,0,-1716,Valid,noise,0,2,1002.5523409000016,1,4.0,1.9795543000218458,True,1,A,2023-08-24_14h12.49.175,exp3,2022.2.2,
,,,,,,,,,,,,,,,,,,,,,,,0,-2274,Valid,signal,0,2,1005.561590199999,0,3.0,2.662335000000894,True,1,A,2023-08-24_14h12.49.175,exp3,2022.2.2,
,,,,,,,,,,,,,,,,,,,,,,,0,-1716,Valid,noise,0,2,1009.2565636999789,1,4.0,2.1123958000098355,True,1,A,2023-08-24_14h12.49.175,exp3,2022.2.2,
,,,,,,,,,,,,,,,,,,,,,,,0,-557,Valid,signal,0,2,1017.9124899999588,0,4.0,7.848072700027842,True,1,A,2023-08-24_14h12.49.175,exp3,2022.2.2,
,,,,,,,,,,,,,,,,,,,,,,,0,-1716,Valid,noise,0,2,1021.2887306999764,1,4.0,2.162389200006146,True,1,A,2023-08-24_14h12.49.175,exp3,2022.2.2,
,,,,,,,,,,,,,,,,,,,,,,,0,-557,Valid,signal,0,2,1027.8648374999757,0,4.0,5.8637782000005245,True,1,A,2023-08-24_14h12.49.175,exp3,2022.2.2,
,,,,,,,,,,,,,,,,,,,,,,,0,-557,Valid,signal,0,2,1031.2244288999937,0,4.0,2.096436400024686,True,1,A,2023-08-24_14h12.49.175,exp3,2022.2.2,
,,,,,,,,,,,,,,,,,,,,,,,0,-1716,Valid,signal,0,1,1034.8574053999619,1,3.0,2.9958096999907866,True,1,A,2023-08-24_14h12.49.175,exp3,2022.2.2,
,,,,,,,,,,,,,,,,,,,,,,,0,2274,Valid,signal,0,2,1038.6482190999668,0,2.0,3.379370300041046,True,1,A,2023-08-24_14h12.49.175,exp3,2022.2.2,
,,,,,,,,,,,,,,,,,,,,,,,0,1158,Valid,noise,0,2,1042.9365388999577,1,2.0,3.1958127000252716,True,1,A,2023-08-24_14h12.49.175,exp3,2022.2.2,
,,,,,,,,,,,,,,,,,,,,,,,0,1158,Valid,noise,0,2,1047.1133186999941,1,3.0,2.5292699999990873,True,1,A,2023-08-24_14h12.49.175,exp3,2022.2.2,
,,,,,,,,,,,,,,,,,,,,,,,0,-2274,Valid,noise,0,2,1050.76072869997,1,2.0,2.7964864999521524,True,1,A,2023-08-24_14h12.49.175,exp3,2022.2.2,
,,,,,,,,,,,,,,,,,,,,,,,0,557,Valid,signal,0,1,1054.5362631999888,1,4.0,4.146350399998482,True,1,A,2023-08-24_14h12.49.175,exp3,2022.2.2,
,,,,,,,,,,,,,,,,,,,,,,,0,1158,Valid,signal,0,1,1059.8014597999863,1,4.0,2.7125435000052676,True,1,A,2023-08-24_14h12.49.175,exp3,2022.2.2,
,,,,,,,,,,,,,,,,,,,,,,,0,1158,Valid,signal,0,1,1063.1128698000102,1,4.0,2.1129165000165813,True,1,A,2023-08-24_14h12.49.175,exp3,2022.2.2,
,,,,,,,,,,,,,,,,,,,,,,,0,557,Valid,noise,0,2,1066.7126770999748,1,3.0,2.9295083999750204,True,1,A,2023-08-24_14h12.49.175,exp3,2022.2.2,
,,,,,,,,,,,,,,,,,,,,,,,0,-1716,Valid,signal,0,1,1070.68057029997,1,4.0,2.9961609999882057,True,1,A,2023-08-24_14h12.49.175,exp3,2022.2.2,
,,,,,,,,,,,,,,,,,,,,,,,0,1716,Valid,noise,0,2,1074.3604593999917,1,3.0,2.596011199988425,True,1,A,2023-08-24_14h12.49.175,exp3,2022.2.2,
,,,,,,,,,,,,,,,,,,,,,,,0,557,Invalid,noise,0,2,1077.9446737999679,1,3.0,2.3791075999615714,True,1,A,2023-08-24_14h12.49.175,exp3,2022.2.2,
,,,,,,,,,,,,,,,,,,,,,,,0,-557,Valid,signal,0,1,1081.113402499992,1,3.0,2.229175899992697,True,1,A,2023-08-24_14h12.49.175,exp3,2022.2.2,
,,,,,,,,,,,,,,,,,,,,,,,0,2274,Invalid,signal,0,2,1084.5049952999689,0,1.0,3.079974000051152,True,1,A,2023-08-24_14h12.49.175,exp3,2022.2.2,
,,,,,,,,,,,,,,,,,,,,,,,0,2274,Valid,signal,0,2,1094.4245775999734,0,1.0,9.114716199983377,True,1,A,2023-08-24_14h12.49.175,exp3,2022.2.2,
,,,,,,,,,,,,,,,,,,,,,,,0,2274,Valid,noise,0,2,1098.8251787999761,1,1.0,3.0629958999925293,True,1,A,2023-08-24_14h12.49.175,exp3,2022.2.2,
,,,,,,,,,,,,,,,,,,,,,,,0,557,Valid,signal,0,1,1102.729061399994,1,4.0,2.6294499000068754,True,1,A,2023-08-24_14h12.49.175,exp3,2022.2.2,
,,,,,,,,,,,,,,,,,,,,,,,0,-2274,Valid,noise,0,2,1106.9528771999758,1,2.0,3.213226300023962,True,1,A,2023-08-24_14h12.49.175,exp3,2022.2.2,
,,,,,,,,,,,,,,,,,,,,,,,0,1716,Valid,noise,0,2,1110.7765465999837,1,2.0,2.4953898999956436,True,1,A,2023-08-24_14h12.49.175,exp3,2022.2.2,
,,,,,,,,,,,,,,,,,,,,,,,0,-1716,Valid,noise,0,2,1114.2322643999942,1,2.0,2.329375199973583,True,1,A,2023-08-24_14h12.49.175,exp3,2022.2.2,
,,,,,,,,,,,,,,,,,,,,,,,0,1158,Valid,signal,0,1,1117.3842366999597,1,4.0,2.5298929000273347,True,1,A,2023-08-24_14h12.49.175,exp3,2022.2.2,
,,,,,,,,,,,,,,,,,,,,,,,0,1158,Valid,signal,0,1,1121.2081911999849,1,4.0,4.0957600000547245,True,1,A,2023-08-24_14h12.49.175,exp3,2022.2.2,
,,,,,,,,,,,,,,,,,,,,,,,0,-1158,Valid,signal,0,1,1126.040868400014,1,4.0,2.112379099999089,True,1,A,2023-08-24_14h12.49.175,exp3,2022.2.2,
,,,,,,,,,,,,,,,,,,,,,,,0,-1158,Valid,signal,0,1,1128.9691965999664,1,4.0,1.8961184999789111,True,1,A,2023-08-24_14h12.49.175,exp3,2022.2.2,
,,,,,,,,,,,,,,,,,,,,,,,0,1158,Valid,noise,0,1,1131.8171124999644,0,4.0,1.8288191999890842,True,1,A,2023-08-24_14h12.49.175,exp3,2022.2.2,
,,,,,,,,,,,,,,,,,,,,,,,0,1158,Valid,signal,0,1,1134.808749299962,1,4.0,2.2456151000224054,True,1,A,2023-08-24_14h12.49.175,exp3,2022.2.2,
,,,,,,,,,,,,,,,,,,,,,,,0,557,Valid,signal,0,1,1138.056545600004,1,4.0,1.995798600022681,True,1,A,2023-08-24_14h12.49.175,exp3,2022.2.2,
,,,,,,,,,,,,,,,,,,,,,,,0,1716,Valid,signal,0,1,1141.2568667999585,1,4.0,2.195600499981083,True,1,A,2023-08-24_14h12.49.175,exp3,2022.2.2,
,,,,,,,,,,,,,,,,,,,,,,,0,-2274,Valid,noise,0,2,1144.7121444999939,1,3.0,3.162949599965941,True,1,A,2023-08-24_14h12.49.175,exp3,2022.2.2,
,,,,,,,,,,,,,,,,,,,,,,,0,-2274,Valid,signal,0,2,1149.369526800001,0,3.0,3.3468763999990188,True,1,A,2023-08-24_14h12.49.175,exp3,2022.2.2,
,,,,,,,,,,,,,,,,,,,,,,,0,2274,Valid,noise,0,1,1153.2892202999792,0,1.0,3.72927750000963,True,1,A,2023-08-24_14h12.49.175,exp3,2022.2.2,
,,,,,,,,,,,,,,,,,,,,,,,0,1158,Valid,signal,0,1,1158.6168333999813,1,4.0,4.230477900011465,True,1,A,2023-08-24_14h12.49.175,exp3,2022.2.2,
,,,,,,,,,,,,,,,,,,,,,,,0,-2274,Valid,noise,0,1,1164.4725152999745,0,1.0,5.180479400034528,True,1,A,2023-08-24_14h12.49.175,exp3,2022.2.2,
,,,,,,,,,,,,,,,,,,,,,,,0,-2274,Valid,signal,0,2,1169.6089922999963,0,4.0,3.1625175999943167,True,1,A,2023-08-24_14h12.49.175,exp3,2022.2.2,
,,,,,,,,,,,,,,,,,,,,,,,0,557,Valid,signal,0,1,1173.5768108000048,1,4.0,3.0295310000074096,True,1,A,2023-08-24_14h12.49.175,exp3,2022.2.2,
,,,,,,,,,,,,,,,,,,,,,,,0,1158,Valid,signal,0,1,1177.9926317000063,1,4.0,3.079429399978835,True,1,A,2023-08-24_14h12.49.175,exp3,2022.2.2,
,,,,,,,,,,,,,,,,,,,,,,,0,-2274,Valid,noise,0,2,1183.512867100013,1,2.0,5.296886400028598,True,1,A,2023-08-24_14h12.49.175,exp3,2022.2.2,
,,,,,,,,,,,,,,,,,,,,,,,0,-1716,Valid,signal,0,1,1188.0085555000114,1,4.0,3.212912699964363,True,1,A,2023-08-24_14h12.49.175,exp3,2022.2.2,
,,,,,,,,,,,,,,,,,,,,,,,0,1158,Invalid,noise,0,2,1192.488438499975,1,2.0,3.2627233000239357,True,1,A,2023-08-24_14h12.49.175,exp3,2022.2.2,
,,,,,,,,,,,,,,,,,,,,,,,0,2274,Valid,noise,0,2,1197.9294096999802,1,1.0,4.630352100008167,True,1,A,2023-08-24_14h12.49.175,exp3,2022.2.2,
,,,,,,,,,,,,,,,,,,,,,,,0,-557,Valid,signal,0,2,1202.569316499983,0,3.0,3.7129859999986365,True,1,A,2023-08-24_14h12.49.175,exp3,2022.2.2,
,,,,,,,,,,,,,,,,,,,,,,,0,1158,Valid,signal,0,1,1209.0325645999983,1,3.0,5.046796900045592,True,1,A,2023-08-24_14h12.49.175,exp3,2022.2.2,
,,,,,,,,,,,,,,,,,,,,,,,0,1158,Valid,noise,0,2,1212.7130357999704,1,3.0,2.4633171999594197,True,1,A,2023-08-24_14h12.49.175,exp3,2022.2.2,
,,,,,,,,,,,,,,,,,,,,,,,0,2274,Valid,noise,0,2,1216.2812794999918,1,1.0,3.0290247999946587,True,1,A,2023-08-24_14h12.49.175,exp3,2022.2.2,
,,,,,,,,,,,,,,,,,,,,,,,0,1716,Valid,signal,0,1,1220.0885250999709,1,3.0,3.646126899984665,True,1,A,2023-08-24_14h12.49.175,exp3,2022.2.2,
,,,,,,,,,,,,,,,,,,,,,,,0,-1158,Valid,signal,0,1,1225.1451500999974,1,3.0,2.795993699983228,True,1,A,2023-08-24_14h12.49.175,exp3,2022.2.2,
,,,,,,,,,,,,,,,,,,,,,,,0,-557,Invalid,noise,0,2,1228.696910700004,1,4.0,4.146791499981191,True,1,A,2023-08-24_14h12.49.175,exp3,2022.2.2,
,,,,,,,,,,,,,,,,,,,,,,,0,-557,Valid,noise,0,2,1233.57714519999,1,4.0,2.662576100032311,True,1,A,2023-08-24_14h12.49.175,exp3,2022.2.2,
,,,,,,,,,,,,,,,,,,,,,,,0,-1716,Invalid,noise,0,2,1237.4485222999938,1,4.0,3.2633695999975316,True,1,A,2023-08-24_14h12.49.175,exp3,2022.2.2,
,,,,,,,,,,,,,,,,,,,,,,,0,-557,Invalid,signal,0,1,1241.8808969999664,1,4.0,2.679260600009002,True,1,A,2023-08-24_14h12.49.175,exp3,2022.2.2,
,,,,,,,,,,,,,,,,,,,,,,,0,-557,Valid,noise,0,2,1245.464946299966,1,4.0,3.0965024000033736,True,1,A,2023-08-24_14h12.49.175,exp3,2022.2.2,
,,,,,,,,,,,,,,,,,,,,,,,0,-1716,Valid,signal,0,1,1249.9293572999886,1,2.0,3.1956633000518195,True,1,A,2023-08-24_14h12.49.175,exp3,2022.2.2,
,,,,,,,,,,,,,,,,,,,,,,,0,-1158,Invalid,signal,0,1,1253.8962197999936,1,4.0,3.8129290000069886,True,1,A,2023-08-24_14h12.49.175,exp3,2022.2.2,
,,,,,,,,,,,,,,,,,,,,,,,0,1158,Invalid,signal,0,1,1260.6324374999967,1,4.0,4.663609199982602,True,1,A,2023-08-24_14h12.49.175,exp3,2022.2.2,
,,,,,,,,,,,,,,,,,,,,,,,0,-2274,Invalid,noise,0,2,1266.1686952000018,1,3.0,5.430632299976423,True,1,A,2023-08-24_14h12.49.175,exp3,2022.2.2,
,,,,,,,,,,,,,,,,,,,,,,,0,1716,Valid,noise,0,2,1270.5693846999784,1,4.0,2.879115399962757,True,1,A,2023-08-24_14h12.49.175,exp3,2022.2.2,
,,,,,,,,,,,,,,,,,,,,,,,0,-1158,Valid,signal,0,1,1274.6975003000116,1,2.0,3.11331580003025,True,1,A,2023-08-24_14h12.49.175,exp3,2022.2.2,
,,,,,,,,,,,,,,,,,,,,,,,0,2274,Valid,noise,0,2,1280.664032700006,1,2.0,4.746584200009238,True,1,A,2023-08-24_14h12.49.175,exp3,2022.2.2,
,,,,,,,,,,,,,,,,,,,,,,,0,557,Valid,signal,0,1,1284.47350979998,1,4.0,4.6466939999954775,True,1,A,2023-08-24_14h12.49.175,exp3,2022.2.2,
,,,,,,,,,,,,,,,,,,,,,,,0,1158,Valid,noise,0,1,1290.2968828000012,0,2.0,3.279871200036723,True,1,A,2023-08-24_14h12.49.175,exp3,2022.2.2,
,,,,,,,,,,,,,,,,,,,,,,,0,-1716,Valid,signal,0,1,1294.2160339999828,1,3.0,3.7459111000061966,True,1,A,2023-08-24_14h12.49.175,exp3,2022.2.2,
,,,,,,,,,,,,,,,,,,,,,,,0,-1158,Valid,noise,0,2,1299.1281605999684,1,4.0,3.012944400019478,True,1,A,2023-08-24_14h12.49.175,exp3,2022.2.2,
,,,,,,,,,,,,,,,,,,,,,,,0,1716,Valid,signal,0,1,1303.1610174999805,1,4.0,3.095206599973608,True,1,A,2023-08-24_14h12.49.175,exp3,2022.2.2,
,,,,,,,,,,,,,,,,,,,,,,,0,2274,Valid,noise,0,1,1308.2168702000054,0,1.0,5.0304467000532895,True,1,A,2023-08-24_14h12.49.175,exp3,2022.2.2,
,,,,,,,,,,,,,,,,,,,,,,,0,-1716,Invalid,signal,0,1,1314.7774158999673,1,1.0,4.646730499982368,True,1,A,2023-08-24_14h12.49.175,exp3,2022.2.2,
,,,,,,,,,,,,,,,,,,,,,,,0,-1716,Valid,noise,0,2,1318.9043737999746,1,4.0,2.9968802999937907,True,1,A,2023-08-24_14h12.49.175,exp3,2022.2.2,
,,,,,,,,,,,,,,,,,,,,,,,0,-557,Valid,signal,0,2,1323.048350099998,0,4.0,2.945439700037241,True,1,A,2023-08-24_14h12.49.175,exp3,2022.2.2,
,,,,,,,,,,,,,,,,,,,,,,,0,557,Valid,noise,0,2,1326.632456799969,1,4.0,2.4631064999848604,True,1,A,2023-08-24_14h12.49.175,exp3,2022.2.2,
,,,,,,,,,,,,,,,,,,,,,,,0,1716,Valid,noise,0,2,1330.1846683999756,1,4.0,2.3452377000357956,True,1,A,2023-08-24_14h12.49.175,exp3,2022.2.2,
,,,,,,,,,,,,,,,,,,,,,,,0,-2274,Valid,noise,0,2,1333.6568857000093,1,4.0,2.4296029999968596,True,1,A,2023-08-24_14h12.49.175,exp3,2022.2.2,
,,,,,,,,,,,,,,,,,,,,,,,0,-1158,Valid,signal,0,2,1336.9526523000095,0,4.0,2.212427899998147,True,1,A,2023-08-24_14h12.49.175,exp3,2022.2.2,
,,,,,,,,,,,,,,,,,,,,,,,0,2274,Valid,signal,0,1,1344.1683544999687,1,1.0,6.514182900020387,True,1,A,2023-08-24_14h12.49.175,exp3,2022.2.2,
,,,,,,,,,,,,,,,,,,,,,,,0,-2274,Valid,signal,0,2,1347.8973120999872,0,2.0,2.929433500044979,True,1,A,2023-08-24_14h12.49.175,exp3,2022.2.2,
,,,,,,,,,,,,,,,,,,,,,,,0,1716,Invalid,signal,0,1,1353.0641432999982,1,1.0,4.013189400022384,True,1,A,2023-08-24_14h12.49.175,exp3,2022.2.2,
,,,,,,,,,,,,,,,,,,,,,,,0,1158,Valid,noise,0,2,1356.8408051999868,1,3.0,3.2627233000239357,True,1,A,2023-08-24_14h12.49.175,exp3,2022.2.2,
,,,,,,,,,,,,,,,,,,,,,,,0,-1716,Valid,signal,0,1,1361.0487043999601,1,2.0,5.330438899982255,True,1,A,2023-08-24_14h12.49.175,exp3,2022.2.2,
,,,,,,,,,,,,,,,,,,,,,,,0,-557,Invalid,noise,0,2,1367.3525668999646,1,4.0,3.579745399998501,True,1,A,2023-08-24_14h12.49.175,exp3,2022.2.2,
,,,,,,,,,,,,,,,,,,,,,,,0,557,Invalid,signal,0,2,1371.7047703000135,0,4.0,2.4125905000255443,True,1,A,2023-08-24_14h12.49.175,exp3,2022.2.2,
,,,,,,,,,,,,,,,,,,,,,,,0,-2274,Valid,signal,0,1,1375.9452208000002,1,1.0,3.1463796999887563,True,1,A,2023-08-24_14h12.49.175,exp3,2022.2.2,
,,,,,,,,,,,,,,,,,,,,,,,0,-2274,Valid,noise,0,1,1379.8483704999671,0,1.0,3.212840699998196,True,1,A,2023-08-24_14h12.49.175,exp3,2022.2.2,
,,,,,,,,,,,,,,,,,,,,,,,0,2274,Valid,noise,0,1,1384.552473699965,0,1.0,3.312846599961631,True,1,A,2023-08-24_14h12.49.175,exp3,2022.2.2,
,,,,,,,,,,,,,,,,,,,,,,,0,1716,Valid,noise,0,2,1388.1840594999958,1,2.0,3.1131639999803156,True,1,A,2023-08-24_14h12.49.175,exp3,2022.2.2,
,,,,,,,,,,,,,,,,,,,,,,,0,-557,Valid,noise,0,2,1392.1049599999678,1,4.0,2.629198800015729,True,1,A,2023-08-24_14h12.49.175,exp3,2022.2.2,
,,,,,,,,,,,,,,,,,,,,,,,0,-1158,Valid,noise,0,2,1395.8171110000112,1,4.0,2.3292223000898957,True,1,A,2023-08-24_14h12.49.175,exp3,2022.2.2,
,,,,,,,,,,,,,,,,,,,,,,,0,-557,Valid,signal,0,2,1405.736026199942,0,4.0,8.931942600058392,True,1,A,2023-08-24_14h12.49.175,exp3,2022.2.2,
,,,,,,,,,,,,,,,,,,,,,,,0,557,Valid,signal,0,1,1409.0005023000413,1,4.0,2.2289549000561237,True,1,A,2023-08-24_14h12.49.175,exp3,2022.2.2,
,,,,,,,,,,,,,,,,,,,,,,,0,1716,Valid,signal,0,1,1412.5529988000053,1,4.0,2.5130604999139905,True,1,A,2023-08-24_14h12.49.175,exp3,2022.2.2,
,,,,,,,,,,,,,,,,,,,,,,,0,1716,Valid,signal,0,2,1416.392698700016,0,4.0,2.979067699983716,True,1,A,2023-08-24_14h12.49.175,exp3,2022.2.2,
,,,,,,,,,,,,,,,,,,,,,,,0,-557,Valid,noise,0,2,1419.8650582000264,1,4.0,2.3462618000339717,True,1,A,2023-08-24_14h12.49.175,exp3,2022.2.2,
,,,,,,,,,,,,,,,,,,,,,,,0,557,Valid,noise,0,2,1427.7844915999449,1,4.0,7.263811300043017,True,1,A,2023-08-24_14h12.49.175,exp3,2022.2.2,
,,,,,,,,,,,,,,,,,,,,,,,0,2274,Valid,signal,0,1,1431.6571502999286,1,1.0,4.296715999953449,True,1,A,2023-08-24_14h12.49.175,exp3,2022.2.2,
,,,,,,,,,,,,,,,,,,,,,,,0,-1716,Valid,noise,0,2,1436.776890200039,1,3.0,2.895366800017655,True,1,A,2023-08-24_14h12.49.175,exp3,2022.2.2,
,,,,,,,,,,,,,,,,,,,,,,,0,-557,Valid,noise,0,2,1440.4734192999895,1,4.0,2.646850400022231,True,1,A,2023-08-24_14h12.49.175,exp3,2022.2.2,
,,,,,,,,,,,,,,,,,,,,,,,0,-1158,Valid,signal,0,1,1444.3127921999549,1,3.0,3.129129200009629,True,1,A,2023-08-24_14h12.49.175,exp3,2022.2.2,
,,,,,,,,,,,,,,,,,,,,,,,0,2274,Valid,signal,0,1,1449.032419199997,1,3.0,3.1455657000187784,True,1,A,2023-08-24_14h12.49.175,exp3,2022.2.2,
,,,,,,,,,,,,,,,,,,,,,,,0,557,Valid,noise,0,2,1452.440708100039,1,4.0,2.4957727999426425,True,1,A,2023-08-24_14h12.49.175,exp3,2022.2.2,
,,,,,,,,,,,,,,,,,,,,,,,0,1716,Valid,noise,0,2,1459.785084000032,1,3.0,6.564394699991681,True,1,A,2023-08-24_14h12.49.175,exp3,2022.2.2,
,,,,,,,,,,,,,,,,,,,,,,,0,-1158,Valid,signal,0,1,1463.641332899977,1,2.0,3.3793794000521302,True,1,A,2023-08-24_14h12.49.175,exp3,2022.2.2,
,,,,,,,,,,,,,,,,,,,,,,,0,-1158,Valid,noise,0,2,1469.337234000035,1,2.0,3.8635391000425443,True,1,A,2023-08-24_14h12.49.175,exp3,2022.2.2,
,,,,,,,,,,,,,,,,,,,,,,,0,-557,Valid,signal,0,2,1472.6962815999868,0,4.0,2.7122991000069305,True,1,A,2023-08-24_14h12.49.175,exp3,2022.2.2,
,,,,,,,,,,,,,,,,,,,,,,,0,2274,Valid,noise,0,2,1476.6321266999585,1,1.0,3.0296130999922752,True,1,A,2023-08-24_14h12.49.175,exp3,2022.2.2,
,,,,,,,,,,,,,,,,,,,,,,,0,-557,Valid,noise,0,2,1480.520061899966,1,4.0,3.4463416000362486,True,1,A,2023-08-24_14h12.49.175,exp3,2022.2.2,
,,,,,,,,,,,,,,,,,,,,,,,0,1716,Invalid,signal,0,1,1485.1451834999607,1,2.0,3.2299411999993026,True,1,A,2023-08-24_14h12.49.175,exp3,2022.2.2,
,,,,,,,,,,,,,,,,,,,,,,,0,-2274,Valid,signal,0,2,1493.705237999966,0,1.0,7.630506700021215,True,1,A,2023-08-24_14h12.49.175,exp3,2022.2.2,
,,,,,,,,,,,,,,,,,,,,,,,0,-2274,Valid,signal,0,2,1499.4645126000396,0,1.0,4.3467803000239655,True,1,A,2023-08-24_14h12.49.175,exp3,2022.2.2,
,,,,,,,,,,,,,,,,,,,,,,,0,1716,Valid,signal,0,1,1503.464811999991,1,2.0,3.163228700053878,True,1,A,2023-08-24_14h12.49.175,exp3,2022.2.2,
,,,,,,,,,,,,,,,,,,,,,,,0,2274,Invalid,signal,0,2,1508.216067100002,0,2.0,3.1458688999991864,True,1,A,2023-08-24_14h12.49.175,exp3,2022.2.2,
,,,,,,,,,,,,,,,,,,,,,,,0,1716,Valid,signal,0,1,1511.8641146999435,1,2.0,2.8126682000001892,True,1,A,2023-08-24_14h12.49.175,exp3,2022.2.2,
,,,,,,,,,,,,,,,,,,,,,,,0,-1158,Valid,noise,0,1,1516.3931868000072,0,1.0,4.0971937999129295,True,1,A,2023-08-24_14h12.49.175,exp3,2022.2.2,
,,,,,,,,,,,,,,,,,,,,,,,0,1716,Valid,signal,0,2,1520.6645532999537,0,2.0,3.846151900012046,True,1,A,2023-08-24_14h12.49.175,exp3,2022.2.2,
,,,,,,,,,,,,,,,,,,,,,,,0,-1158,Valid,signal,0,1,1525.8010319999303,1,2.0,3.0457743000006303,True,1,A,2023-08-24_14h12.49.175,exp3,2022.2.2,
,,,,,,,,,,,,,,,,,,,,,,,0,-2274,Invalid,signal,0,1,1529.4805300000007,1,2.0,2.3462960000615567,True,1,A,2023-08-24_14h12.49.175,exp3,2022.2.2,
,,,,,,,,,,,,,,,,,,,,,,,0,-1158,Valid,signal,0,1,1532.69704249996,1,2.0,2.1959140999242663,True,1,A,2023-08-24_14h12.49.175,exp3,2022.2.2,
,,,,,,,,,,,,,,,,,,,,,,,0,-557,Valid,noise,0,2,1536.169215199945,1,2.0,2.428737199981697,True,1,A,2023-08-24_14h12.49.175,exp3,2022.2.2,
,,,,,,,,,,,,,,,,,,,,,,,0,-2274,Valid,noise,0,1,1539.5932895999285,0,1.0,2.629348700051196,True,1,A,2023-08-24_14h12.49.175,exp3,2022.2.2,
,,,,,,,,,,,,,,,,,,,,,,,0,2274,Valid,signal,0,2,1543.016276600014,0,2.0,2.8626966999145225,True,1,A,2023-08-24_14h12.49.175,exp3,2022.2.2,
,,,,,,,,,,,,,,,,,,,,,,,0,2274,Invalid,noise,0,2,1547.2879091000068,1,1.0,3.6628480999497697,True,1,A,2023-08-24_14h12.49.175,exp3,2022.2.2,
,,,,,,,,,,,,,,,,,,,,,,,0,-1158,Invalid,noise,0,2,1551.592209799972,1,1.0,2.879783199983649,True,1,A,2023-08-24_14h12.49.175,exp3,2022.2.2,
,,,,,,,,,,,,,,,,,,,,,,,0,2274,Valid,signal,0,2,1557.2241434000316,0,1.0,4.179907500045374,True,1,A,2023-08-24_14h12.49.175,exp3,2022.2.2,
,,,,,,,,,,,,,,,,,,,,,,,0,557,Invalid,noise,0,2,1560.7448202999658,1,4.0,3.346134699997492,True,1,A,2023-08-24_14h12.49.175,exp3,2022.2.2,
,,,,,,,,,,,,,,,,,,,,,,,0,557,Invalid,signal,0,2,1565.5281170999515,0,4.0,3.4959968000184745,True,1,A,2023-08-24_14h12.49.175,exp3,2022.2.2,
,,,,,,,,,,,,,,,,,,,,,,,0,1158,Invalid,signal,0,1,1569.592624699988,1,4.0,2.7795118000358343,True,1,A,2023-08-24_14h12.49.175,exp3,2022.2.2,
,,,,,,,,,,,,,,,,,,,,,,,0,557,Valid,noise,0,2,1573.3373444999452,1,4.0,2.4291891999309883,True,1,A,2023-08-24_14h12.49.175,exp3,2022.2.2,
,,,,,,,,,,,,,,,,,,,,,,,0,-2274,Valid,signal,0,1,1577.2405658999342,1,2.0,3.7130883999634534,True,1,A,2023-08-24_14h12.49.175,exp3,2022.2.2,
,,,,,,,,,,,,,,,,,,,,,,,0,-1158,Invalid,noise,0,2,1581.6560855999705,1,1.0,3.6463172000367194,True,1,A,2023-08-24_14h12.49.175,exp3,2022.2.2,
,,,,,,,,,,,,,,,,,,,,,,,0,1716,Valid,noise,0,2,1586.0882160999463,1,4.0,4.54651570005808,True,1,A,2023-08-24_14h12.49.175,exp3,2022.2.2,
,,,,,,,,,,,,,,,,,,,,,,,0,-1158,Valid,noise,0,2,1591.8646416999982,1,3.0,3.313262499985285,True,1,A,2023-08-24_14h12.49.175,exp3,2022.2.2,
,,,,,,,,,,,,,,,,,,,,,,,0,2274,Valid,signal,0,2,1596.263956000039,0,1.0,3.429506899905391,True,1,A,2023-08-24_14h12.49.175,exp3,2022.2.2,
,,,,,,,,,,,,,,,,,,,,,,,0,557,Valid,signal,0,1,1600.5048993999953,1,4.0,3.0621635999996215,True,1,A,2023-08-24_14h12.49.175,exp3,2022.2.2,
,,,,,,,,,,,,,,,,,,,,,,,0,2274,Valid,noise,0,1,1605.6565686000395,0,1.0,4.913329800008796,True,1,A,2023-08-24_14h12.49.175,exp3,2022.2.2,
,,,,,,,,,,,,,,,,,,,,,,,0,1716,Valid,noise,0,2,1614.0251625000383,1,2.0,6.931044300086796,True,1,A,2023-08-24_14h12.49.175,exp3,2022.2.2,
,,,,,,,,,,,,,,,,,,,,,,,0,-1716,Invalid,signal,0,1,1618.9205606999458,1,3.0,3.5465008000610396,True,1,A,2023-08-24_14h12.49.175,exp3,2022.2.2,
,,,,,,,,,,,,,,,,,,,,,,,0,557,Valid,signal,0,1,1623.4968252999824,1,3.0,2.9463458999525756,True,1,A,2023-08-24_14h12.49.175,exp3,2022.2.2,
,,,,,,,,,,,,,,,,,,,,,,,0,-1158,Valid,noise,0,2,1627.2719454999897,1,3.0,3.3306090000551194,True,1,A,2023-08-24_14h12.49.175,exp3,2022.2.2,
,,,,,,,,,,,,,,,,,,,,,,,0,-2274,Invalid,noise,0,2,1631.6893593000132,1,1.0,3.9625160000286996,True,1,A,2023-08-24_14h12.49.175,exp3,2022.2.2,
,,,,,,,,,,,,,,,,,,,,,,,0,-1716,Valid,signal,0,2,1639.2559500999632,0,1.0,6.28059670003131,True,1,A,2023-08-24_14h12.49.175,exp3,2022.2.2,
,,,,,,,,,,,,,,,,,,,,,,,0,-557,Invalid,signal,0,1,1643.7361241999897,1,4.0,3.3622530000284314,True,1,A,2023-08-24_14h12.49.175,exp3,2022.2.2,
,,,,,,,,,,,,,,,,,,,,,,,0,1158,Valid,noise,0,2,1647.9446082999348,1,2.0,2.946357199922204,True,1,A,2023-08-24_14h12.49.175,exp3,2022.2.2,
,,,,,,,,,,,,,,,,,,,,,,,0,2274,Valid,signal,0,2,1651.8324708999717,0,2.0,2.546480100019835,True,1,A,2023-08-24_14h12.49.175,exp3,2022.2.2,
,,,,,,,,,,,,,,,,,,,,,,,0,1716,Invalid,noise,0,2,1655.1599228999694,1,2.0,2.362116700038314,True,1,A,2023-08-24_14h12.49.175,exp3,2022.2.2,
,,,,,,,,,,,,,,,,,,,,,,,0,1716,Valid,noise,0,2,1658.4401532000047,1,1.0,2.6294805998913944,True,1,A,2023-08-24_14h12.49.175,exp3,2022.2.2,
,,,,,,,,,,,,,,,,,,,,,,,0,-1716,Valid,noise,0,2,1662.2648740999284,1,1.0,2.3125980000477284,True,1,A,2023-08-24_14h12.49.175,exp3,2022.2.2,
,,,,,,,,,,,,,,,,,,,,,,,0,-2274,Invalid,signal,0,1,1665.6731886999332,1,2.0,2.7621395000023767,True,1,A,2023-08-24_14h12.49.175,exp3,2022.2.2,
,,,,,,,,,,,,,,,,,,,,,,,0,-1158,Invalid,signal,0,1,1670.0091493999935,1,3.0,3.5967984999297187,True,1,A,2023-08-24_14h12.49.175,exp3,2022.2.2,
,,,,,,,,,,,,,,,,,,,,,,,1,-557,Valid,signal,0,1,1806.200292100024,1,4.0,12.623474999913014,True,1,A,2023-08-24_14h12.49.175,exp3,2022.2.2,
,,,,,,,,,,,,,,,,,,,,,,,2,1158,Valid,signal,0,1,1811.0811844999553,1,4.0,2.246226800023578,True,1,A,2023-08-24_14h12.49.175,exp3,2022.2.2,
,,,,,,,,,,,,,,,,,,,,,,,3,-1716,Valid,noise,0,2,1814.3605754000018,1,3.0,3.8466052999719977,True,1,A,2023-08-24_14h12.49.175,exp3,2022.2.2,
,,,,,,,,,,,,,,,,,,,,,,,4,-1716,Invalid,noise,0,2,1820.0241848000442,1,3.0,3.013326400076039,True,1,A,2023-08-24_14h12.49.175,exp3,2022.2.2,
,,,,,,,,,,,,,,,,,,,,,,,5,-557,Valid,noise,0,2,1823.0968979999307,1,3.0,2.0449056000215933,True,1,A,2023-08-24_14h12.49.175,exp3,2022.2.2,
,,,,,,,,,,,,,,,,,,,,,,,6,-1158,Valid,noise,0,2,1826.1204823000007,1,3.0,1.978914999985136,True,1,A,2023-08-24_14h12.49.175,exp3,2022.2.2,
,,,,,,,,,,,,,,,,,,,,,,,7,-1158,Valid,signal,0,2,1829.0164471000317,0,3.0,1.8791865999810398,True,1,A,2023-08-24_14h12.49.175,exp3,2022.2.2,
,,,,,,,,,,,,,,,,,,,,,,,8,-557,Valid,signal,0,2,1832.0251942999312,0,3.0,2.0127643999876454,True,1,A,2023-08-24_14h12.49.175,exp3,2022.2.2,
,,,,,,,,,,,,,,,,,,,,,,,9,2274,Valid,signal,0,2,1835.3691761999507,0,3.0,2.3845052000833675,True,1,A,2023-08-24_14h12.49.175,exp3,2022.2.2,
,,,,,,,,,,,,,,,,,,,,,,,10,1716,Valid,signal,0,1,1838.9202476000064,1,4.0,3.0645157999824733,True,1,A,2023-08-24_14h12.49.175,exp3,2022.2.2,
,,,,,,,,,,,,,,,,,,,,,,,11,557,Valid,signal,0,1,1842.5523353999597,1,4.0,2.772448100033216,True,1,A,2023-08-24_14h12.49.175,exp3,2022.2.2,
,,,,,,,,,,,,,,,,,,,,,,,12,-557,Valid,noise,0,2,1846.4567618000438,1,4.0,2.6295326999388635,True,1,A,2023-08-24_14h12.49.175,exp3,2022.2.2,
,,,,,,,,,,,,,,,,,,,,,,,13,557,Valid,signal,0,1,1850.215955999971,1,4.0,2.3474029999924824,True,1,A,2023-08-24_14h12.49.175,exp3,2022.2.2,
,,,,,,,,,,,,,,,,,,,,,,,14,-2274,Invalid,signal,0,1,1855.4491033999366,1,1.0,4.678394199931063,True,1,A,2023-08-24_14h12.49.175,exp3,2022.2.2,
,,,,,,,,,,,,,,,,,,,,,,,15,-1716,Valid,noise,0,2,1859.544030299934,1,1.0,6.030879299971275,True,1,A,2023-08-24_14h12.49.175,exp3,2022.2.2,
,,,,,,,,,,,,,,,,,,,,,,,16,2274,Valid,noise,0,2,1866.231971500034,1,1.0,3.5296066000591964,True,1,A,2023-08-24_14h12.49.175,exp3,2022.2.2,
,,,,,,,,,,,,,,,,,,,,,,,17,1158,Valid,signal,0,1,1871.1122958999476,1,4.0,3.1997157998848706,True,1,A,2023-08-24_14h12.49.175,exp3,2022.2.2,
,,,,,,,,,,,,,,,,,,,,,,,18,1158,Invalid,signal,0,1,1875.241195599956,1,4.0,2.875462600030005,True,1,A,2023-08-24_14h12.49.175,exp3,2022.2.2,
,,,,,,,,,,,,,,,,,,,,,,,19,1716,Valid,noise,0,2,1878.9199242999894,1,4.0,3.14601460006088,True,1,A,2023-08-24_14h12.49.175,exp3,2022.2.2,
,,,,,,,,,,,,,,,,,,,,,,,20,-1716,Valid,signal,0,1,1882.8722607000382,1,4.0,2.2247720999876037,True,1,A,2023-08-24_14h12.49.175,exp3,2022.2.2,
,,,,,,,,,,,,,,,,,,,,,,,21,-557,Valid,noise,0,2,1891.368315800035,1,4.0,7.8231075999792665,True,1,A,2023-08-24_14h12.49.175,exp3,2022.2.2,
,,,,,,,,,,,,,,,,,,,,,,,22,-2274,Invalid,noise,0,1,1895.0332037000335,0,1.0,3.4662676999578252,True,1,A,2023-08-24_14h12.49.175,exp3,2022.2.2,
,,,,,,,,,,,,,,,,,,,,,,,23,-2274,Valid,noise,0,1,1899.4323650999577,0,1.0,4.26319450000301,True,1,A,2023-08-24_14h12.49.175,exp3,2022.2.2,
,,,,,,,,,,,,,,,,,,,,,,,24,1716,Valid,signal,0,1,1905.0331323999562,1,2.0,3.162421700078994,True,1,A,2023-08-24_14h12.49.175,exp3,2022.2.2,
,,,,,,,,,,,,,,,,,,,,,,,25,-1158,Valid,noise,0,2,1909.0323821999482,1,3.0,3.5631487999344245,True,1,A,2023-08-24_14h12.49.175,exp3,2022.2.2,
,,,,,,,,,,,,,,,,,,,,,,,26,-2274,Valid,signal,0,2,1913.655805199931,0,1.0,2.795614599948749,True,1,A,2023-08-24_14h12.49.175,exp3,2022.2.2,
,,,,,,,,,,,,,,,,,,,,,,,27,1158,Valid,noise,0,2,1917.1605298999348,1,3.0,3.279767800006084,True,1,A,2023-08-24_14h12.49.175,exp3,2022.2.2,
,,,,,,,,,,,,,,,,,,,,,,,28,557,Valid,noise,0,2,1921.5289103999385,1,4.0,2.9378842000151053,True,1,A,2023-08-24_14h12.49.175,exp3,2022.2.2,
,,,,,,,,,,,,,,,,,,,,,,,29,1158,Valid,noise,0,2,1925.2883347999887,1,4.0,2.047733800020069,True,1,A,2023-08-24_14h12.49.175,exp3,2022.2.2,
,,,,,,,,,,,,,,,,,,,,,,,30,2274,Valid,signal,0,1,1928.120558900002,1,1.0,2.523621700005606,True,1,A,2023-08-24_14h12.49.175,exp3,2022.2.2,
,,,,,,,,,,,,,,,,,,,,,,,31,2274,Valid,noise,0,2,1932.2800832000212,1,1.0,2.6170026999898255,True,1,A,2023-08-24_14h12.49.175,exp3,2022.2.2,
,,,,,,,,,,,,,,,,,,,,,,,32,1158,Valid,signal,0,1,1936.025135999953,1,4.0,3.241032800055109,True,1,A,2023-08-24_14h12.49.175,exp3,2022.2.2,
,,,,,,,,,,,,,,,,,,,,,,,33,1716,Valid,signal,0,1,1939.8643949999823,1,4.0,2.5161029000300914,True,1,A,2023-08-24_14h12.49.175,exp3,2022.2.2,
,,,,,,,,,,,,,,,,,,,,,,,34,-1716,Valid,noise,0,2,1943.4647261000355,1,1.0,3.178883000044152,True,1,A,2023-08-24_14h12.49.175,exp3,2022.2.2,
,,,,,,,,,,,,,,,,,,,,,,,35,1158,Valid,noise,0,2,1947.8330036999541,1,2.0,3.1461863999720663,True,1,A,2023-08-24_14h12.49.175,exp3,2022.2.2,
,,,,,,,,,,,,,,,,,,,,,,,36,1158,Valid,noise,0,2,1951.6077554999501,1,2.0,2.119852799922228,True,1,A,2023-08-24_14h12.49.175,exp3,2022.2.2,
,,,,,,,,,,,,,,,,,,,,,,,37,-2274,Invalid,signal,0,2,1955.2086905999458,0,1.0,3.5715522998943925,True,1,A,2023-08-24_14h12.49.175,exp3,2022.2.2,
,,,,,,,,,,,,,,,,,,,,,,,38,-1158,Valid,signal,0,1,1959.656031200022,1,2.0,2.6960715000750497,True,1,A,2023-08-24_14h12.49.175,exp3,2022.2.2,
,,,,,,,,,,,,,,,,,,,,,,,39,557,Valid,signal,0,1,1962.888384699996,1,2.0,1.9955792999826372,True,1,A,2023-08-24_14h12.49.175,exp3,2022.2.2,
,,,,,,,,,,,,,,,,,,,,,,,40,2274,Valid,noise,0,1,1966.8886631000205,0,1.0,3.1963947999756783,True,1,A,2023-08-24_14h12.49.175,exp3,2022.2.2,
,,,,,,,,,,,,,,,,,,,,,,,41,-1716,Valid,signal,0,1,1970.2169874000247,1,3.0,2.745807999977842,True,1,A,2023-08-24_14h12.49.175,exp3,2022.2.2,
,,,,,,,,,,,,,,,,,,,,,,,42,557,Valid,noise,0,2,1974.039840399928,1,4.0,2.9772317999741063,True,1,A,2023-08-24_14h12.49.175,exp3,2022.2.2,
,,,,,,,,,,,,,,,,,,,,,,,43,-2274,Invalid,noise,0,2,1978.2319265000406,1,4.0,3.082124699954875,True,1,A,2023-08-24_14h12.49.175,exp3,2022.2.2,
,,,,,,,,,,,,,,,,,,,,,,,44,-1158,Valid,noise,0,2,1982.008416800003,1,4.0,2.022791700088419,True,1,A,2023-08-24_14h12.49.175,exp3,2022.2.2,
,,,,,,,,,,,,,,,,,,,,,,,45,1158,Valid,signal,0,1,1985.0971160999616,1,4.0,2.7207139000529423,True,1,A,2023-08-24_14h12.49.175,exp3,2022.2.2,
,,,,,,,,,,,,,,,,,,,,,,,46,2274,Valid,signal,0,2,1988.9681744999834,0,4.0,2.490348899969831,True,1,A,2023-08-24_14h12.49.175,exp3,2022.2.2,
,,,,,,,,,,,,,,,,,,,,,,,47,-2274,Valid,signal,0,2,1998.3765275999322,0,4.0,8.34816320007667,True,1,A,2023-08-24_14h12.49.175,exp3,2022.2.2,
,,,,,,,,,,,,,,,,,,,,,,,48,1716,Valid,noise,0,2,2001.688291700033,1,4.0,2.029938600026071,True,1,A,2023-08-24_14h12.49.175,exp3,2022.2.2,
,,,,,,,,,,,,,,,,,,,,,,,49,-1716,Valid,signal,0,1,2004.8728255000315,1,2.0,3.045543899992481,True,1,A,2023-08-24_14h12.49.175,exp3,2022.2.2,
,,,,,,,,,,,,,,,,,,,,,,,50,2274,Valid,signal,0,2,2009.0967371999868,0,4.0,4.386426800047047,True,1,A,2023-08-24_14h12.49.175,exp3,2022.2.2,
,,,,,,,,,,,,,,,,,,,,,,,51,1716,Valid,noise,0,2,2014.2169256000197,1,4.0,2.0601514999289066,True,1,A,2023-08-24_14h12.49.175,exp3,2022.2.2,
,,,,,,,,,,,,,,,,,,,,,,,52,557,Valid,signal,0,1,2017.320620799961,1,4.0,4.15957909997087,True,1,A,2023-08-24_14h12.49.175,exp3,2022.2.2,
,,,,,,,,,,,,,,,,,,,,,,,53,-2274,Valid,signal,0,2,2022.1687390999286,0,1.0,2.6961327999597415,True,1,A,2023-08-24_14h12.49.175,exp3,2022.2.2,
,,,,,,,,,,,,,,,,,,,,,,,54,-1158,Valid,signal,0,1,2030.232907199941,1,4.0,6.6972154000541195,True,1,A,2023-08-24_14h12.49.175,exp3,2022.2.2,
,,,,,,,,,,,,,,,,,,,,,,,55,1716,Invalid,signal,0,1,2034.9361862999504,1,4.0,3.4460665000369772,True,1,A,2023-08-24_14h12.49.175,exp3,2022.2.2,
,,,,,,,,,,,,,,,,,,,,,,,56,1158,Valid,noise,0,2,2038.2165780999348,1,4.0,2.0958550000796095,True,1,A,2023-08-24_14h12.49.175,exp3,2022.2.2,
,,,,,,,,,,,,,,,,,,,,,,,57,-2274,Valid,signal,0,1,2042.6648540000315,1,1.0,4.051305399974808,True,1,A,2023-08-24_14h12.49.175,exp3,2022.2.2,
,,,,,,,,,,,,,,,,,,,,,,,58,557,Invalid,noise,0,2,2046.632305700041,1,4.0,2.4746566999237984,True,1,A,2023-08-24_14h12.49.175,exp3,2022.2.2,
,,,,,,,,,,,,,,,,,,,,,,,59,557,Valid,noise,0,2,2049.8160803999635,1,4.0,2.063064799993299,True,1,A,2023-08-24_14h12.49.175,exp3,2022.2.2,
,,,,,,,,,,,,,,,,,,,,,,,60,-1158,Valid,noise,0,2,2053.015966999985,1,4.0,2.0951156000373885,True,1,A,2023-08-24_14h12.49.175,exp3,2022.2.2,
,,,,,,,,,,,,,,,,,,,,,,,61,-557,Valid,signal,0,2,2055.9768394999555,0,4.0,1.8574761999771,True,1,A,2023-08-24_14h12.49.175,exp3,2022.2.2,
,,,,,,,,,,,,,,,,,,,,,,,62,-1158,Valid,signal,0,1,2059.0482495999313,1,4.0,2.2185712000355124,True,1,A,2023-08-24_14h12.49.175,exp3,2022.2.2,
,,,,,,,,,,,,,,,,,,,,,,,63,1716,Valid,noise,0,2,2062.2009824000415,1,2.0,2.3566069999942556,True,1,A,2023-08-24_14h12.49.175,exp3,2022.2.2,
,,,,,,,,,,,,,,,,,,,,,,,64,-1158,Valid,signal,0,1,2065.527655899932,1,3.0,2.228825099999085,True,1,A,2023-08-24_14h12.49.175,exp3,2022.2.2,
,,,,,,,,,,,,,,,,,,,,,,,65,1158,Valid,noise,0,2,2068.856093499984,1,4.0,2.530264100059867,True,1,A,2023-08-24_14h12.49.175,exp3,2022.2.2,
,,,,,,,,,,,,,,,,,,,,,,,66,-557,Invalid,signal,0,1,2072.6318117000046,1,3.0,3.2675986000103876,True,1,A,2023-08-24_14h12.49.175,exp3,2022.2.2,
,,,,,,,,,,,,,,,,,,,,,,,67,2274,Invalid,noise,0,1,2076.519683599996,0,1.0,2.1743526000063866,True,1,A,2023-08-24_14h12.49.175,exp3,2022.2.2,
,,,,,,,,,,,,,,,,,,,,,,,68,-1716,Valid,noise,0,2,2079.8642969999346,1,4.0,2.595160099910572,True,1,A,2023-08-24_14h12.49.175,exp3,2022.2.2,
,,,,,,,,,,,,,,,,,,,,,,,69,2274,Valid,signal,0,1,2083.3362412000424,1,1.0,2.2289434000849724,True,1,A,2023-08-24_14h12.49.175,exp3,2022.2.2,
,,,,,,,,,,,,,,,,,,,,,,,70,2274,Valid,noise,0,2,2091.8796765999286,1,2.0,7.648463100078516,True,1,A,2023-08-24_14h12.49.175,exp3,2022.2.2,
,,,,,,,,,,,,,,,,,,,,,,,71,-1158,Valid,noise,0,2,2095.3360200999887,1,3.0,2.411833699909039,True,1,A,2023-08-24_14h12.49.175,exp3,2022.2.2,
,,,,,,,,,,,,,,,,,,,,,,,72,2274,Valid,signal,0,2,2099.672585799999,0,1.0,4.60839589999523,True,1,A,2023-08-24_14h12.49.175,exp3,2022.2.2,
,,,,,,,,,,,,,,,,,,,,,,,73,2274,Invalid,noise,0,2,2104.151947800012,1,1.0,2.055696600000374,True,1,A,2023-08-24_14h12.49.175,exp3,2022.2.2,
,,,,,,,,,,,,,,,,,,,,,,,74,1716,Valid,noise,0,2,2107.096966399986,1,1.0,2.716234599938616,True,1,A,2023-08-24_14h12.49.175,exp3,2022.2.2,
,,,,,,,,,,,,,,,,,,,,,,,75,1716,Invalid,noise,0,2,2111.1122265000013,1,1.0,2.1955234000924975,True,1,A,2023-08-24_14h12.49.175,exp3,2022.2.2,
,,,,,,,,,,,,,,,,,,,,,,,76,-557,Valid,signal,0,2,2114.2484155999846,0,3.0,3.0056217000819743,True,1,A,2023-08-24_14h12.49.175,exp3,2022.2.2,
,,,,,,,,,,,,,,,,,,,,,,,77,-1716,Valid,signal,0,1,2118.4246547000366,1,3.0,2.3234733999706805,True,1,A,2023-08-24_14h12.49.175,exp3,2022.2.2,
,,,,,,,,,,,,,,,,,,,,,,,78,1158,Invalid,signal,0,1,2121.7685612999485,1,3.0,2.193384899990633,True,1,A,2023-08-24_14h12.49.175,exp3,2022.2.2,
,,,,,,,,,,,,,,,,,,,,,,,79,-2274,Valid,noise,0,1,2125.6239267000346,0,1.0,3.1133989000227302,True,1,A,2023-08-24_14h12.49.175,exp3,2022.2.2,
,,,,,,,,,,,,,,,,,,,,,,,80,-1158,Valid,noise,0,2,2135.0162393999635,1,3.0,8.518927400000393,True,1,A,2023-08-24_14h12.49.175,exp3,2022.2.2,
,,,,,,,,,,,,,,,,,,,,,,,81,-2274,Valid,signal,0,2,2138.551635599986,0,3.0,2.1991466999752447,True,1,A,2023-08-24_14h12.49.175,exp3,2022.2.2,
,,,,,,,,,,,,,,,,,,,,,,,82,-1158,Invalid,signal,0,2,2141.7686988999485,0,3.0,2.1823234000476077,True,1,A,2023-08-24_14h12.49.175,exp3,2022.2.2,
,,,,,,,,,,,,,,,,,,,,,,,83,-557,Valid,signal,0,2,2145.11276540003,0,3.0,2.714651699992828,True,1,A,2023-08-24_14h12.49.175,exp3,2022.2.2,
,,,,,,,,,,,,,,,,,,,,,,,84,-1716,Valid,signal,0,2,2150.3763310999493,0,3.0,4.179848399944603,True,1,A,2023-08-24_14h12.49.175,exp3,2022.2.2,
,,,,,,,,,,,,,,,,,,,,,,,85,557,Valid,noise,0,2,2153.800038999936,1,3.0,2.1434616999467835,True,1,A,2023-08-24_14h12.49.175,exp3,2022.2.2,
,,,,,,,,,,,,,,,,,,,,,,,86,1716,Valid,signal,0,1,2156.952266200038,1,3.0,2.1127141000470147,True,1,A,2023-08-24_14h12.49.175,exp3,2022.2.2,
,,,,,,,,,,,,,,,,,,,,,,,87,-2274,Valid,noise,0,2,2162.791612500034,1,1.0,5.596781200030819,True,1,A,2023-08-24_14h12.49.175,exp3,2022.2.2,
,,,,,,,,,,,,,,,,,,,,,,,88,557,Invalid,signal,0,1,2170.7288962000166,1,1.0,7.364585599978454,True,1,A,2023-08-24_14h12.49.175,exp3,2022.2.2,
,,,,,,,,,,,,,,,,,,,,,,,89,-1716,Valid,signal,0,1,2175.0803054000135,1,2.0,3.0640198999317363,True,1,A,2023-08-24_14h12.49.175,exp3,2022.2.2,
,,,,,,,,,,,,,,,,,,,,,,,90,557,Invalid,noise,0,2,2179.3842274000053,1,3.0,3.362626799964346,True,1,A,2023-08-24_14h12.49.175,exp3,2022.2.2,
,,,,,,,,,,,,,,,,,,,,,,,91,-1158,Valid,signal,0,1,2183.5916198000195,1,2.0,2.6949389000656083,True,1,A,2023-08-24_14h12.49.175,exp3,2022.2.2,
,,,,,,,,,,,,,,,,,,,,,,,92,557,Valid,signal,0,1,2187.416216100042,1,3.0,2.462938200100325,True,1,A,2023-08-24_14h12.49.175,exp3,2022.2.2,
,,,,,,,,,,,,,,,,,,,,,,,93,-1158,Valid,noise,0,1,2190.695815599931,0,1.0,3.840713999932632,True,1,A,2023-08-24_14h12.49.175,exp3,2022.2.2,
,,,,,,,,,,,,,,,,,,,,,,,94,557,Valid,noise,0,2,2195.511711399944,1,4.0,2.4959058000240475,True,1,A,2023-08-24_14h12.49.175,exp3,2022.2.2,
,,,,,,,,,,,,,,,,,,,,,,,95,1716,Valid,signal,0,1,2202.5998943999293,1,2.0,6.614153600065038,True,1,A,2023-08-24_14h12.49.175,exp3,2022.2.2,
,,,,,,,,,,,,,,,,,,,,,,,96,1158,Valid,signal,0,1,2206.952499899955,1,4.0,2.9630180000094697,True,1,A,2023-08-24_14h12.49.175,exp3,2022.2.2,
,,,,,,,,,,,,,,,,,,,,,,,97,1716,Valid,noise,0,2,2210.7917284999858,1,4.0,2.546202400000766,True,1,A,2023-08-24_14h12.49.175,exp3,2022.2.2,
,,,,,,,,,,,,,,,,,,,,,,,98,-1716,Valid,noise,0,1,2214.968925699999,0,1.0,3.87957320001442,True,1,A,2023-08-24_14h12.49.175,exp3,2022.2.2,
,,,,,,,,,,,,,,,,,,,,,,,99,557,Valid,signal,0,1,2219.0959747000015,1,4.0,2.4956196999410167,True,1,A,2023-08-24_14h12.49.175,exp3,2022.2.2,
,,,,,,,,,,,,,,,,,,,,,,,100,1158,Valid,noise,0,1,2222.504934900033,0,4.0,2.579938599956222,True,1,A,2023-08-24_14h12.49.175,exp3,2022.2.2,
,,,,,,,,,,,,,,,,,,,,,,,101,2274,Valid,signal,0,1,2226.263702599972,1,4.0,2.5787894000532106,True,1,A,2023-08-24_14h12.49.175,exp3,2022.2.2,
,,,,,,,,,,,,,,,,,,,,,,,102,-557,Valid,noise,0,2,2229.928495299944,1,4.0,2.9630257999524474,True,1,A,2023-08-24_14h12.49.175,exp3,2022.2.2,
,,,,,,,,,,,,,,,,,,,,,,,103,-557,Valid,noise,0,2,2233.640203099989,1,4.0,2.7452332000248134,True,1,A,2023-08-24_14h12.49.175,exp3,2022.2.2,
,,,,,,,,,,,,,,,,,,,,,,,104,1716,Valid,signal,0,1,2237.5599136000383,1,4.0,2.746982100070454,True,1,A,2023-08-24_14h12.49.175,exp3,2022.2.2,
,,,,,,,,,,,,,,,,,,,,,,,105,1716,Valid,signal,0,1,2241.240733799932,1,4.0,2.379192400025204,True,1,A,2023-08-24_14h12.49.175,exp3,2022.2.2,
,,,,,,,,,,,,,,,,,,,,,,,106,557,Valid,noise,0,2,2244.4569418000174,1,4.0,2.562802200089209,True,1,A,2023-08-24_14h12.49.175,exp3,2022.2.2,
,,,,,,,,,,,,,,,,,,,,,,,107,-2274,Valid,noise,0,1,2250.6320810999605,0,1.0,5.196724200039171,True,1,A,2023-08-24_14h12.49.175,exp3,2022.2.2,
,,,,,,,,,,,,,,,,,,,,,,,108,-1716,Invalid,signal,0,1,2255.1275877999724,1,1.0,3.1466277999570593,True,1,A,2023-08-24_14h12.49.175,exp3,2022.2.2,
,,,,,,,,,,,,,,,,,,,,,,,109,-557,Valid,signal,0,2,2258.6478325999924,0,1.0,2.578854799969122,True,1,A,2023-08-24_14h12.49.175,exp3,2022.2.2,
,,,,,,,,,,,,,,,,,,,,,,,110,-2274,Valid,signal,0,2,2262.5043443999602,0,1.0,2.696228599990718,True,1,A,2023-08-24_14h12.49.175,exp3,2022.2.2,
,,,,,,,,,,,,,,,,,,,,,,,111,1716,Valid,noise,0,2,2265.75178719993,1,1.0,2.1458291999297217,True,1,A,2023-08-24_14h12.49.175,exp3,2022.2.2,
,,,,,,,,,,,,,,,,,,,,,,,112,1716,Invalid,signal,0,2,2273.2883225000114,0,1.0,6.898136000032537,True,1,A,2023-08-24_14h12.49.175,exp3,2022.2.2,
,,,,,,,,,,,,,,,,,,,,,,,113,-557,Valid,signal,0,1,2277.015680600016,1,2.0,3.5626588000450283,True,1,A,2023-08-24_14h12.49.175,exp3,2022.2.2,
,,,,,,,,,,,,,,,,,,,,,,,114,-557,Valid,signal,0,1,2281.352279799932,1,3.0,2.5795367000391707,True,1,A,2023-08-24_14h12.49.175,exp3,2022.2.2,
,,,,,,,,,,,,,,,,,,,,,,,115,-557,Valid,noise,0,2,2285.224134899967,1,2.0,2.662589499959722,True,1,A,2023-08-24_14h12.49.175,exp3,2022.2.2,
,,,,,,,,,,,,,,,,,,,,,,,116,-1716,Valid,noise,0,2,2288.744199400011,1,2.0,2.2977855000644922,True,1,A,2023-08-24_14h12.49.175,exp3,2022.2.2,
,,,,,,,,,,,,,,,,,,,,,,,117,-557,Invalid,noise,0,2,2291.9441649999353,1,3.0,2.512509600026533,True,1,A,2023-08-24_14h12.49.175,exp3,2022.2.2,
,,,,,,,,,,,,,,,,,,,,,,,118,2274,Valid,noise,0,2,2295.6078822999843,1,3.0,2.582936300081201,True,1,A,2023-08-24_14h12.49.175,exp3,2022.2.2,
,,,,,,,,,,,,,,,,,,,,,,,119,2274,Valid,noise,0,1,2300.7919121999876,0,1.0,4.557008399977349,True,1,A,2023-08-24_14h12.49.175,exp3,2022.2.2,
,,,,,,,,,,,,,,,,,,,,,,,120,-1716,Valid,signal,0,2,2308.776069399959,0,1.0,6.747878500027582,True,1,A,2023-08-24_14h12.49.175,exp3,2022.2.2,
,,,,,,,,,,,,,,,,,,,,,,,121,557,Valid,signal,0,1,2312.3916756000253,1,3.0,2.729899500031024,True,1,A,2023-08-24_14h12.49.175,exp3,2022.2.2,
,,,,,,,,,,,,,,,,,,,,,,,122,1158,Valid,noise,0,2,2319.575997600041,1,1.0,5.879283400019631,True,1,A,2023-08-24_14h12.49.175,exp3,2022.2.2,
,,,,,,,,,,,,,,,,,,,,,,,123,-1716,Valid,noise,0,2,2323.5275750000146,1,1.0,3.34379940002691,True,1,A,2023-08-24_14h12.49.175,exp3,2022.2.2,
,,,,,,,,,,,,,,,,,,,,,,,124,557,Invalid,signal,0,2,2327.720226800011,0,2.0,3.4272472999291494,True,1,A,2023-08-24_14h12.49.175,exp3,2022.2.2,
,,,,,,,,,,,,,,,,,,,,,,,125,-1716,Valid,signal,0,2,2333.848928500025,0,2.0,4.546519699972123,True,1,A,2023-08-24_14h12.49.175,exp3,2022.2.2,
,,,,,,,,,,,,,,,,,,,,,,,126,1158,Valid,signal,0,1,2338.120661099965,1,1.0,3.629739600000903,True,1,A,2023-08-24_14h12.49.175,exp3,2022.2.2,
,,,,,,,,,,,,,,,,,,,,,,,127,-2274,Valid,noise,0,1,2345.176355899952,0,2.0,6.064299499965273,True,1,A,2023-08-24_14h12.49.175,exp3,2022.2.2,
,,,,,,,,,,,,,,,,,,,,,,,128,2274,Valid,signal,0,1,2349.799988600018,1,1.0,3.496123799937777,True,1,A,2023-08-24_14h12.49.175,exp3,2022.2.2,
,,,,,,,,,,,,,,,,,,,,,,,129,-557,Invalid,signal,0,1,2356.023591699952,1,3.0,5.297493199934252,True,1,A,2023-08-24_14h12.49.175,exp3,2022.2.2,
,,,,,,,,,,,,,,,,,,,,,,,130,-2274,Valid,signal,0,2,2364.647661899973,0,1.0,8.397572799935006,True,1,A,2023-08-24_14h12.49.175,exp3,2022.2.2,
,,,,,,,,,,,,,,,,,,,,,,,131,-1716,Valid,noise,0,2,2369.4803375999327,1,3.0,3.2631043000146747,True,1,A,2023-08-24_14h12.49.175,exp3,2022.2.2,
,,,,,,,,,,,,,,,,,,,,,,,132,-1716,Invalid,signal,0,1,2375.783858300012,1,2.0,4.996689800056629,True,1,A,2023-08-24_14h12.49.175,exp3,2022.2.2,
,,,,,,,,,,,,,,,,,,,,,,,133,-2274,Valid,noise,0,1,2379.8156355999527,0,2.0,2.630160699947737,True,1,A,2023-08-24_14h12.49.175,exp3,2022.2.2,
,,,,,,,,,,,,,,,,,,,,,,,134,-1158,Invalid,noise,0,1,2383.000168999948,0,2.0,1.944919400033541,True,1,A,2023-08-24_14h12.49.175,exp3,2022.2.2,
,,,,,,,,,,,,,,,,,,,,,,,135,-557,Valid,signal,0,1,2385.879879599961,1,3.0,2.6032287999987602,True,1,A,2023-08-24_14h12.49.175,exp3,2022.2.2,
,,,,,,,,,,,,,,,,,,,,,,,136,-557,Valid,noise,0,2,2399.9915746999322,1,4.0,12.993086599977687,True,1,A,2023-08-24_14h12.49.175,exp3,2022.2.2,
,,,,,,,,,,,,,,,,,,,,,,,137,2274,Invalid,signal,0,2,2404.935993799998,0,1.0,4.396964399958961,True,1,A,2023-08-24_14h12.49.175,exp3,2022.2.2,
,,,,,,,,,,,,,,,,,,,,,,,138,-2274,Valid,signal,0,2,2409.5755408999394,0,1.0,3.2623993000015616,True,1,A,2023-08-24_14h12.49.175,exp3,2022.2.2,
,,,,,,,,,,,,,,,,,,,,,,,139,1158,Invalid,noise,0,2,2413.4314976999885,1,2.0,2.429404200054705,True,1,A,2023-08-24_14h12.49.175,exp3,2022.2.2,
,,,,,,,,,,,,,,,,,,,,,,,140,1158,Valid,signal,0,1,2416.8884734999738,1,4.0,2.7457871000515297,True,1,A,2023-08-24_14h12.49.175,exp3,2022.2.2,
,,,,,,,,,,,,,,,,,,,,,,,141,1716,Valid,noise,0,2,2432.1367021999904,1,3.0,14.217472199932672,True,1,A,2023-08-24_14h12.49.175,exp3,2022.2.2,
,,,,,,,,,,,,,,,,,,,,,,,142,-557,Invalid,noise,0,2,2435.7041079999763,1,3.0,2.0960573999909684,True,1,A,2023-08-24_14h12.49.175,exp3,2022.2.2,
,,,,,,,,,,,,,,,,,,,,,,,143,557,Valid,noise,0,2,2438.8234599000425,1,4.0,3.058016399969347,True,1,A,2023-08-24_14h12.49.175,exp3,2022.2.2,
,,,,,,,,,,,,,,,,,,,,,,,144,-1158,Valid,signal,0,1,2443.160765299981,1,2.0,2.979799799970351,True,1,A,2023-08-24_14h12.49.175,exp3,2022.2.2,
,,,,,,,,,,,,,,,,,,,,,,,145,-1158,Valid,noise,0,2,2447.096748599957,1,2.0,2.8463096000486985,True,1,A,2023-08-24_14h12.49.175,exp3,2022.2.2,
,,,,,,,,,,,,,,,,,,,,,,,146,-2274,Valid,signal,0,2,2450.4723929999745,0,1.0,3.800138199934736,True,1,A,2023-08-24_14h12.49.175,exp3,2022.2.2,
,,,,,,,,,,,,,,,,,,,,,,,147,557,Valid,signal,0,1,2455.8648106000037,1,3.0,2.7424118999624625,True,1,A,2023-08-24_14h12.49.175,exp3,2022.2.2,
,,,,,,,,,,,,,,,,,,,,,,,148,-1716,Valid,noise,0,2,2459.272713800019,1,1.0,4.0796423999127,True,1,A,2023-08-24_14h12.49.175,exp3,2022.2.2,
,,,,,,,,,,,,,,,,,,,,,,,149,-2274,Valid,noise,0,2,2464.3915359000093,1,1.0,2.4796831000130624,True,1,A,2023-08-24_14h12.49.175,exp3,2022.2.2,
,,,,,,,,,,,,,,,,,,,,,,,150,1716,Valid,signal,0,2,2474.439665600017,0,1.0,9.019960999954492,True,1,A,2023-08-24_14h12.49.175,exp3,2022.2.2,
,,,,,,,,,,,,,,,,,,,,,,,151,1158,Invalid,noise,0,2,2478.4084784000297,1,2.0,3.4412702000699937,True,1,A,2023-08-24_14h12.49.175,exp3,2022.2.2,
,,,,,,,,,,,,,,,,,,,,,,,152,-1158,Invalid,signal,0,1,2482.4722552999738,1,4.0,2.9625160000286996,True,1,A,2023-08-24_14h12.49.175,exp3,2022.2.2,
,,,,,,,,,,,,,,,,,,,,,,,153,-2274,Valid,noise,0,2,2486.5205179999466,1,3.0,2.579154000035487,True,1,A,2023-08-24_14h12.49.175,exp3,2022.2.2,
,,,,,,,,,,,,,,,,,,,,,,,154,557,Valid,noise,0,2,2490.0879437999683,1,4.0,2.5459536000853404,True,1,A,2023-08-24_14h12.49.175,exp3,2022.2.2,
,,,,,,,,,,,,,,,,,,,,,,,155,2274,Valid,signal,0,2,2493.464162499935,0,3.0,2.7123715000925586,True,1,A,2023-08-24_14h12.49.175,exp3,2022.2.2,
,,,,,,,,,,,,,,,,,,,,,,,156,2274,Valid,noise,0,2,2497.35149109998,1,1.0,2.662693600053899,True,1,A,2023-08-24_14h12.49.175,exp3,2022.2.2,
,,,,,,,,,,,,,,,,,,,,,,,157,1158,Valid,signal,0,1,2500.7439005999477,1,4.0,2.412930399994366,True,1,A,2023-08-24_14h12.49.175,exp3,2022.2.2,
,,,,,,,,,,,,,,,,,,,,,,,158,1158,Valid,noise,0,2,2504.3280836999766,1,3.0,2.4627427000086755,True,1,A,2023-08-24_14h12.49.175,exp3,2022.2.2,
,,,,,,,,,,,,,,,,,,,,,,,159,-1716,Valid,signal,0,2,2508.0883151000016,0,1.0,3.1253236000193283,True,1,A,2023-08-24_14h12.49.175,exp3,2022.2.2,
,,,,,,,,,,,,,,,,,,,,,,,160,-1158,Invalid,noise,0,1,2511.8960053999326,0,4.0,4.246119099901989,True,1,A,2023-08-24_14h12.49.175,exp3,2022.2.2,
,,,,,,,,,,,,,,,,,,,,,,,161,-2274,Valid,noise,0,1,2518.0561312999926,0,1.0,3.9301273999735713,True,1,A,2023-08-24_14h12.49.175,exp3,2022.2.2,
,,,,,,,,,,,,,,,,,,,,,,,162,1716,Valid,noise,0,2,2522.2481447000173,1,3.0,2.7291406999574974,True,1,A,2023-08-24_14h12.49.175,exp3,2022.2.2,
,,,,,,,,,,,,,,,,,,,,,,,163,2274,Invalid,signal,0,2,2525.8483401999692,0,1.0,2.595685699954629,True,1,A,2023-08-24_14h12.49.175,exp3,2022.2.2,
,,,,,,,,,,,,,,,,,,,,,,,164,1716,Invalid,noise,0,2,2529.3995418999693,1,1.0,2.1294061000226066,True,1,A,2023-08-24_14h12.49.175,exp3,2022.2.2,
,,,,,,,,,,,,,,,,,,,,,,,165,-1158,Valid,signal,0,1,2532.6961867999635,1,3.0,2.9302396998973563,True,1,A,2023-08-24_14h12.49.175,exp3,2022.2.2,
,,,,,,,,,,,,,,,,,,,,,,,166,557,Valid,noise,0,2,2536.487867399992,1,4.0,2.5451464999932796,True,1,A,2023-08-24_14h12.49.175,exp3,2022.2.2,
,,,,,,,,,,,,,,,,,,,,,,,167,2274,Valid,noise,0,2,2540.2165895000217,1,3.0,3.1628437999170274,True,1,A,2023-08-24_14h12.49.175,exp3,2022.2.2,
,,,,,,,,,,,,,,,,,,,,,,,168,-1716,Invalid,noise,0,1,2544.487596300023,0,4.0,3.7463087999494746,True,1,A,2023-08-24_14h12.49.175,exp3,2022.2.2,
,,,,,,,,,,,,,,,,,,,,,,,169,557,Valid,signal,0,1,2550.6962360999896,1,4.0,3.9586967000504956,True,1,A,2023-08-24_14h12.49.175,exp3,2022.2.2,
,,,,,,,,,,,,,,,,,,,,,,,170,1716,Valid,signal,0,1,2553.831813399971,1,4.0,1.9670737000415102,True,1,A,2023-08-24_14h12.49.175,exp3,2022.2.2,
,,,,,,,,,,,,,,,,,,,,,,,171,2274,Valid,noise,0,2,2556.967703500006,1,2.0,2.6291829999536276,True,1,A,2023-08-24_14h12.49.175,exp3,2022.2.2,
,,,,,,,,,,,,,,,,,,,,,,,172,1158,Valid,signal,0,1,2560.6002579000196,1,4.0,2.3131995000876486,True,1,A,2023-08-24_14h12.49.175,exp3,2022.2.2,
,,,,,,,,,,,,,,,,,,,,,,,173,-1158,Valid,noise,0,2,2563.768119599961,1,3.0,2.262454399955459,True,1,A,2023-08-24_14h12.49.175,exp3,2022.2.2,
,,,,,,,,,,,,,,,,,,,,,,,174,-557,Valid,noise,0,2,2570.0875973000075,1,4.0,6.1471921999473125,True,1,A,2023-08-24_14h12.49.175,exp3,2022.2.2,
,,,,,,,,,,,,,,,,,,,,,,,175,-1158,Valid,signal,0,1,2574.2966189999715,1,3.0,4.38010419998318,True,1,A,2023-08-24_14h12.49.175,exp3,2022.2.2,
,,,,,,,,,,,,,,,,,,,,,,,176,-557,Valid,noise,0,2,2582.8088149999385,1,4.0,5.513877099961974,True,1,A,2023-08-24_14h12.49.175,exp3,2022.2.2,
,,,,,,,,,,,,,,,,,,,,,,,2,-557,Valid,signal,0,1,2764.7286935999873,1,4.0,6.570156300091185,True,1,A,2023-08-24_14h12.49.175,exp3,2022.2.2,
,,,,,,,,,,,,,,,,,,,,,,,4,-1716,Invalid,noise,0,2,2769.4315257999697,1,2.0,2.979268499999307,True,1,A,2023-08-24_14h12.49.175,exp3,2022.2.2,
,,,,,,,,,,,,,,,,,,,,,,,6,557,Valid,signal,0,1,2772.8399933999754,1,4.0,3.412472700001672,True,1,A,2023-08-24_14h12.49.175,exp3,2022.2.2,
,,,,,,,,,,,,,,,,,,,,,,,8,2274,Valid,noise,0,2,2778.919523699966,1,1.0,4.717310199979693,True,1,A,2023-08-24_14h12.49.175,exp3,2022.2.2,
,,,,,,,,,,,,,,,,,,,,,,,10,557,Valid,noise,0,2,2783.1444329999504,1,4.0,2.9590620000381023,True,1,A,2023-08-24_14h12.49.175,exp3,2022.2.2,
,,,,,,,,,,,,,,,,,,,,,,,12,2274,Valid,noise,0,2,2786.5513158999966,1,1.0,2.312542400090024,True,1,A,2023-08-24_14h12.49.175,exp3,2022.2.2,
,,,,,,,,,,,,,,,,,,,,,,,14,-557,Valid,signal,0,2,2790.3274310000124,0,1.0,3.296546599944122,True,1,A,2023-08-24_14h12.49.175,exp3,2022.2.2,
,,,,,,,,,,,,,,,,,,,,,,,16,-2274,Valid,signal,0,2,2794.647775700025,0,1.0,2.2125501999398693,True,1,A,2023-08-24_14h12.49.175,exp3,2022.2.2,
,,,,,,,,,,,,,,,,,,,,,,,18,1158,Valid,noise,0,2,2797.911388699955,1,3.0,3.1250998000614345,True,1,A,2023-08-24_14h12.49.175,exp3,2022.2.2,
,,,,,,,,,,,,,,,,,,,,,,,20,2274,Invalid,noise,0,2,2801.575793099997,1,1.0,1.9325376999331638,True,1,A,2023-08-24_14h12.49.175,exp3,2022.2.2,
,,,,,,,,,,,,,,,,,,,,,,,22,557,Invalid,noise,0,2,2804.7602434999426,1,4.0,5.360481800045818,True,1,A,2023-08-24_14h12.49.175,exp3,2022.2.2,
,,,,,,,,,,,,,,,,,,,,,,,24,-1158,Invalid,signal,0,1,2812.328238899994,1,4.0,5.020924199954607,True,1,A,2023-08-24_14h12.49.175,exp3,2022.2.2,
,,,,,,,,,,,,,,,,,,,,,,,26,-557,Valid,signal,0,1,2817.60768690001,1,4.0,3.129731999943033,True,1,A,2023-08-24_14h12.49.175,exp3,2022.2.2,
,,,,,,,,,,,,,,,,,,,,,,,28,557,Valid,signal,0,1,2821.4158743000007,1,4.0,2.1793298999546096,True,1,A,2023-08-24_14h12.49.175,exp3,2022.2.2,
,,,,,,,,,,,,,,,,,,,,,,,30,557,Invalid,signal,0,1,2825.3193787999335,1,2.0,3.363246599910781,True,1,A,2023-08-24_14h12.49.175,exp3,2022.2.2,
,,,,,,,,,,,,,,,,,,,,,,,32,2274,Valid,noise,0,2,2828.5352589999675,1,1.0,2.37919490004424,True,1,A,2023-08-24_14h12.49.175,exp3,2022.2.2,
,,,,,,,,,,,,,,,,,,,,,,,34,2274,Valid,noise,0,2,2832.2966424000333,1,1.0,2.1957347999559715,True,1,A,2023-08-24_14h12.49.175,exp3,2022.2.2,
,,,,,,,,,,,,,,,,,,,,,,,36,-557,Valid,signal,0,1,2835.44847829995,1,3.0,2.6686450999695808,True,1,A,2023-08-24_14h12.49.175,exp3,2022.2.2,
,,,,,,,,,,,,,,,,,,,,,,,38,-1158,Valid,signal,0,1,2839.1285947999568,1,4.0,6.157750399899669,True,1,A,2023-08-24_14h12.49.175,exp3,2022.2.2,
,,,,,,,,,,,,,,,,,,,,,,,40,557,Valid,noise,0,2,2846.2646684999927,1,4.0,4.881270599900745,True,1,A,2023-08-24_14h12.49.175,exp3,2022.2.2,
,,,,,,,,,,,,,,,,,,,,,,,42,-2274,Valid,noise,0,2,2852.3919315999956,1,4.0,2.2783512000460178,True,1,A,2023-08-24_14h12.49.175,exp3,2022.2.2,
,,,,,,,,,,,,,,,,,,,,,,,44,557,Valid,noise,0,2,2855.303218899935,1,4.0,1.812684700009413,True,1,A,2023-08-24_14h12.49.175,exp3,2022.2.2,
,,,,,,,,,,,,,,,,,,,,,,,46,-2274,Invalid,signal,0,2,2858.168337900017,0,4.0,1.9123283000662923,True,1,A,2023-08-24_14h12.49.175,exp3,2022.2.2,
,,,,,,,,,,,,,,,,,,,,,,,48,-2274,Valid,signal,0,2,2861.159271900018,0,4.0,1.9458672000328079,True,1,A,2023-08-24_14h12.49.175,exp3,2022.2.2,
,,,,,,,,,,,,,,,,,,,,,,,50,1158,Valid,signal,0,2,2863.9272237000405,0,4.0,1.9793653000378981,True,1,A,2023-08-24_14h12.49.175,exp3,2022.2.2,
,,,,,,,,,,,,,,,,,,,,,,,52,-557,Valid,signal,0,1,2867.383973299933,1,4.0,3.5627939000260085,True,1,A,2023-08-24_14h12.49.175,exp3,2022.2.2,
,,,,,,,,,,,,,,,,,,,,,,,54,1716,Invalid,noise,0,2,2871.7999658999615,1,1.0,3.31272040004842,True,1,A,2023-08-24_14h12.49.175,exp3,2022.2.2,
,,,,,,,,,,,,,,,,,,,,,,,56,2274,Valid,noise,0,1,2876.776191999961,0,1.0,4.113271199981682,True,1,A,2023-08-24_14h12.49.175,exp3,2022.2.2,
,,,,,,,,,,,,,,,,,,,,,,,58,1158,Valid,signal,0,1,2881.815884699987,1,3.0,3.246190799982287,True,1,A,2023-08-24_14h12.49.175,exp3,2022.2.2,
,,,,,,,,,,,,,,,,,,,,,,,60,1716,Valid,noise,0,2,2885.43152319995,1,4.0,3.6354050000663847,True,1,A,2023-08-24_14h12.49.175,exp3,2022.2.2,
,,,,,,,,,,,,,,,,,,,,,,,62,-2274,Valid,noise,0,2,2890.5357455999474,1,2.0,2.9744230000069365,True,1,A,2023-08-24_14h12.49.175,exp3,2022.2.2,
,,,,,,,,,,,,,,,,,,,,,,,64,557,Valid,noise,0,2,2893.9274652000167,1,3.0,2.4122069000732154,True,1,A,2023-08-24_14h12.49.175,exp3,2022.2.2,
,,,,,,,,,,,,,,,,,,,,,,,66,1158,Valid,signal,0,1,2897.3675921999966,1,4.0,2.239407500019297,True,1,A,2023-08-24_14h12.49.175,exp3,2022.2.2,
,,,,,,,,,,,,,,,,,,,,,,,68,-557,Valid,noise,0,2,2900.6156068000128,1,4.0,1.9670096000190824,True,1,A,2023-08-24_14h12.49.175,exp3,2022.2.2,
,,,,,,,,,,,,,,,,,,,,,,,70,1158,Invalid,signal,0,1,2903.783847200044,1,4.0,2.2256671000504866,True,1,A,2023-08-24_14h12.49.175,exp3,2022.2.2,
,,,,,,,,,,,,,,,,,,,,,,,72,-2274,Invalid,noise,0,2,2907.4156740999897,1,1.0,3.5962373000802472,True,1,A,2023-08-24_14h12.49.175,exp3,2022.2.2,
,,,,,,,,,,,,,,,,,,,,,,,74,2274,Valid,signal,0,2,2911.8480490999646,0,2.0,2.667083300068043,True,1,A,2023-08-24_14h12.49.175,exp3,2022.2.2,
,,,,,,,,,,,,,,,,,,,,,,,76,557,Invalid,noise,0,2,2915.6083913000184,1,2.0,3.8502274999627843,True,1,A,2023-08-24_14h12.49.175,exp3,2022.2.2,
,,,,,,,,,,,,,,,,,,,,,,,78,557,Valid,signal,0,1,2921.7363402000046,1,4.0,4.238781800027937,True,1,A,2023-08-24_14h12.49.175,exp3,2022.2.2,
,,,,,,,,,,,,,,,,,,,,,,,80,-557,Invalid,noise,0,2,2925.78332769993,1,2.0,2.9956980999559164,True,1,A,2023-08-24_14h12.49.175,exp3,2022.2.2,
,,,,,,,,,,,,,,,,,,,,,,,82,2274,Valid,signal,0,1,2929.1120082999696,1,3.0,3.029935900005512,True,1,A,2023-08-24_14h12.49.175,exp3,2022.2.2,
,,,,,,,,,,,,,,,,,,,,,,,84,557,Valid,signal,0,1,2933.3513720000046,1,4.0,2.579655100009404,True,1,A,2023-08-24_14h12.49.175,exp3,2022.2.2,
,,,,,,,,,,,,,,,,,,,,,,,86,-1158,Valid,noise,0,2,2939.591301999928,1,2.0,5.012787899933755,True,1,A,2023-08-24_14h12.49.175,exp3,2022.2.2,
,,,,,,,,,,,,,,,,,,,,,,,88,1716,Invalid,signal,0,2,2942.903689400002,0,2.0,2.7128656998975202,True,1,A,2023-08-24_14h12.49.175,exp3,2022.2.2,
,,,,,,,,,,,,,,,,,,,,,,,90,-1158,Valid,noise,0,2,2946.631218400027,1,3.0,2.4796860000351444,True,1,A,2023-08-24_14h12.49.175,exp3,2022.2.2,
,,,,,,,,,,,,,,,,,,,,,,,92,-1158,Valid,noise,0,2,2950.1356996000395,1,3.0,2.162234300049022,True,1,A,2023-08-24_14h12.49.175,exp3,2022.2.2,
,,,,,,,,,,,,,,,,,,,,,,,94,-2274,Valid,noise,0,1,2953.09568139998,0,1.0,3.012945599970408,True,1,A,2023-08-24_14h12.49.175,exp3,2022.2.2,
,,,,,,,,,,,,,,,,,,,,,,,96,-1716,Valid,signal,0,1,2957.3677865999634,1,3.0,2.1937718000262976,True,1,A,2023-08-24_14h12.49.175,exp3,2022.2.2,
,,,,,,,,,,,,,,,,,,,,,,,98,-2274,Valid,signal,0,2,2960.5522292999667,0,2.0,2.2471895000198856,True,1,A,2023-08-24_14h12.49.175,exp3,2022.2.2,
,,,,,,,,,,,,,,,,,,,,,,,100,2274,Valid,signal,0,2,2963.928618999955,0,2.0,2.379381399950944,True,1,A,2023-08-24_14h12.49.175,exp3,2022.2.2,
,,,,,,,,,,,,,,,,,,,,,,,102,-557,Valid,noise,0,2,2967.0319551999564,1,4.0,2.5310660999966785,True,1,A,2023-08-24_14h12.49.175,exp3,2022.2.2,
,,,,,,,,,,,,,,,,,,,,,,,104,-2274,Valid,signal,0,2,2970.7592617000337,0,1.0,2.7438522999873385,True,1,A,2023-08-24_14h12.49.175,exp3,2022.2.2,
,,,,,,,,,,,,,,,,,,,,,,,106,-1158,Valid,noise,0,1,2974.9681650000275,0,1.0,2.746093799942173,True,1,A,2023-08-24_14h12.49.175,exp3,2022.2.2,
,,,,,,,,,,,,,,,,,,,,,,,108,-557,Valid,noise,0,2,2978.136174699932,1,3.0,2.96990599995479,True,1,A,2023-08-24_14h12.49.175,exp3,2022.2.2,
,,,,,,,,,,,,,,,,,,,,,,,110,-1158,Invalid,noise,0,2,2982.3273434999282,1,1.0,2.529882900067605,True,1,A,2023-08-24_14h12.49.175,exp3,2022.2.2,
,,,,,,,,,,,,,,,,,,,,,,,112,-557,Valid,signal,0,2,2985.6082970999996,0,2.0,2.884080499992706,True,1,A,2023-08-24_14h12.49.175,exp3,2022.2.2,
,,,,,,,,,,,,,,,,,,,,,,,114,-1158,Valid,signal,0,1,2990.4243984999484,1,2.0,3.104920400073752,True,1,A,2023-08-24_14h12.49.175,exp3,2022.2.2,
,,,,,,,,,,,,,,,,,,,,,,,116,1716,Valid,signal,0,1,2993.799610899936,1,3.0,2.6815031999722123,True,1,A,2023-08-24_14h12.49.175,exp3,2022.2.2,
,,,,,,,,,,,,,,,,,,,,,,,118,-1716,Valid,noise,0,1,2997.3513777999324,0,3.0,2.0622679999796674,True,1,A,2023-08-24_14h12.49.175,exp3,2022.2.2,
,,,,,,,,,,,,,,,,,,,,,,,120,1158,Invalid,noise,0,2,3000.439839999948,1,1.0,2.4795313000213355,True,1,A,2023-08-24_14h12.49.175,exp3,2022.2.2,
,,,,,,,,,,,,,,,,,,,,,,,122,1716,Valid,noise,0,1,3003.8641954999766,0,1.0,2.12950619996991,True,1,A,2023-08-24_14h12.49.175,exp3,2022.2.2,
,,,,,,,,,,,,,,,,,,,,,,,124,557,Valid,noise,0,2,3007.0802563999896,1,4.0,2.4473460000008345,True,1,A,2023-08-24_14h12.49.175,exp3,2022.2.2,
,,,,,,,,,,,,,,,,,,,,,,,126,1716,Valid,signal,0,1,3012.3594662999385,1,4.0,4.161329400027171,True,1,A,2023-08-24_14h12.49.175,exp3,2022.2.2,
,,,,,,,,,,,,,,,,,,,,,,,128,1716,Valid,noise,0,2,3016.280293699994,1,4.0,2.8792905000736937,True,1,A,2023-08-24_14h12.49.175,exp3,2022.2.2,
,,,,,,,,,,,,,,,,,,,,,,,130,-1716,Valid,noise,0,2,3019.799197699933,1,4.0,2.312449900084175,True,1,A,2023-08-24_14h12.49.175,exp3,2022.2.2,
,,,,,,,,,,,,,,,,,,,,,,,132,557,Valid,signal,0,1,3022.743142799998,1,3.0,2.162818699958734,True,1,A,2023-08-24_14h12.49.175,exp3,2022.2.2,
