trials.label,trials.startVal,trials.maxVal,trials.minVal,trials.startValSd,trials.pthreshold,trials.beta,trials.delta,trials.gamma,trials.grain,trials.stepSize,trials.range,trials.cue,trials.thisIndex,trials.thisRepN,trials.thisN,trials.direction,trials.stepType,trials.intensity,signalOpacity,level,trials.response,stair_eye_ok,nTrial,position,validity,Stimulus,orientation,response_key,response_rt,response_correct,confidence,confidence_rt,eye_ok,participant,session,date,expName,psychopyVersion,
high_opac_v,0.01,1,0.01,3,0.82,3.5,0.01,0,0.01,4,5,Valid,1,1,0,start,lin,0.01,0,0.01,1,True,,,,,,,,,,,,5,A,2023-08-31_12h01.55.986,exp3,2022.2.2,
low_opac_v,0.4,1,0.01,3,0.82,3.5,0.01,0,0.01,4,5,Valid,0,1,1,start,lin,0.4,0,0.4,1,True,,,,,,,,,,,,5,A,2023-08-31_12h01.55.986,exp3,2022.2.2,
low_opac_i,0.4,1,0.01,3,0.82,3.5,0.01,0,0.01,4,5,Invalid,2,1,2,start,lin,0.4,0.4,0.4,0,True,,,,,,,,,,,,5,A,2023-08-31_12h01.55.986,exp3,2022.2.2,
low_opac_i,0.4,1,0.01,3,0.82,3.5,0.01,0,0.01,4,5,Invalid,2,2,3,start,lin,1,0,1,1,True,,,,,,,,,,,,5,A,2023-08-31_12h01.55.986,exp3,2022.2.2,
high_opac_v,0.01,1,0.01,3,0.82,3.5,0.01,0,0.01,4,5,Valid,1,2,4,start,lin,0.01,0,0.01,1,True,,,,,,,,,,,,5,A,2023-08-31_12h01.55.986,exp3,2022.2.2,
low_opac_v,0.4,1,0.01,3,0.82,3.5,0.01,0,0.01,4,5,Valid,0,2,5,start,lin,0.01,0.01,0.01,0,True,,,,,,,,,,,,5,A,2023-08-31_12h01.55.986,exp3,2022.2.2,
low_opac_i,0.4,1,0.01,3,0.82,3.5,0.01,0,0.01,4,5,Invalid,2,3,6,start,lin,0.8091950431803865,0.8091950431803865,0.8091950431803865,1,True,,,,,,,,,,,,5,A,2023-08-31_12h01.55.986,exp3,2022.2.2,
low_opac_v,0.4,1,0.01,3,0.82,3.5,0.01,0,0.01,4,5,Valid,0,3,7,start,lin,0.3144098688205103,0,0.3144098688205103,1,True,,,,,,,,,,,,5,A,2023-08-31_12h01.55.986,exp3,2022.2.2,
high_opac_v,0.01,1,0.01,3,0.82,3.5,0.01,0,0.01,4,5,Valid,1,3,8,start,lin,0.01,0,0.01,1,True,,,,,,,,,,,,5,A,2023-08-31_12h01.55.986,exp3,2022.2.2,
low_opac_i,0.4,1,0.01,3,0.82,3.5,0.01,0,0.01,4,5,Invalid,2,4,9,start,lin,0.6973591848232542,0,0.6973591848232542,1,True,,,,,,,,,,,,5,A,2023-08-31_12h01.55.986,exp3,2022.2.2,
high_opac_v,0.01,1,0.01,3,0.82,3.5,0.01,0,0.01,4,5,Valid,1,4,10,start,lin,0.01,0.01,0.01,0,True,,,,,,,,,,,,5,A,2023-08-31_12h01.55.986,exp3,2022.2.2,
low_opac_v,0.4,1,0.01,3,0.82,3.5,0.01,0,0.01,4,5,Valid,0,4,11,start,lin,0.23561159539411833,0.23561159539411833,0.23561159539411833,1,True,,,,,,,,,,,,5,A,2023-08-31_12h01.55.986,exp3,2022.2.2,
low_opac_v,0.4,1,0.01,3,0.82,3.5,0.01,0,0.01,4,5,Valid,0,5,12,start,lin,0.1841780991895161,0.1841780991895161,0.1841780991895161,1,True,,,,,,,,,,,,5,A,2023-08-31_12h01.55.986,exp3,2022.2.2,
high_opac_v,0.01,1,0.01,3,0.82,3.5,0.01,0,0.01,4,5,Valid,1,5,13,start,lin,0.01,0,0.01,1,True,,,,,,,,,,,,5,A,2023-08-31_12h01.55.986,exp3,2022.2.2,
low_opac_i,0.4,1,0.01,3,0.82,3.5,0.01,0,0.01,4,5,Invalid,2,5,14,start,lin,0.6246282260865603,0,0.6246282260865603,0,True,,,,,,,,,,,,5,A,2023-08-31_12h01.55.986,exp3,2022.2.2,
low_opac_v,0.4,1,0.01,3,0.82,3.5,0.01,0,0.01,4,5,Valid,0,6,15,start,lin,0.14081453445857006,0,0.14081453445857006,1,True,,,,,,,,,,,,5,A,2023-08-31_12h01.55.986,exp3,2022.2.2,
low_opac_i,0.4,1,0.01,3,0.82,3.5,0.01,0,0.01,4,5,Invalid,2,6,16,start,lin,0.7538705781102062,0,0.7538705781102062,1,True,,,,,,,,,,,,5,A,2023-08-31_12h01.55.986,exp3,2022.2.2,
high_opac_v,0.01,1,0.01,3,0.82,3.5,0.01,0,0.01,4,5,Valid,1,6,17,start,lin,0.01,0.01,0.01,0,True,,,,,,,,,,,,5,A,2023-08-31_12h01.55.986,exp3,2022.2.2,
low_opac_v,0.4,1,0.01,3,0.82,3.5,0.01,0,0.01,4,5,Valid,0,7,18,start,lin,0.10410764613410528,0,0.10410764613410528,1,True,,,,,,,,,,,,5,A,2023-08-31_12h01.55.986,exp3,2022.2.2,
high_opac_v,0.01,1,0.01,3,0.82,3.5,0.01,0,0.01,4,5,Valid,1,7,19,start,lin,0.06336997635913784,0.06336997635913784,0.06336997635913784,0,True,,,,,,,,,,,,5,A,2023-08-31_12h01.55.986,exp3,2022.2.2,
low_opac_i,0.4,1,0.01,3,0.82,3.5,0.01,0,0.01,4,5,Invalid,2,7,20,start,lin,0.7243509351498023,0.7243509351498023,0.7243509351498023,1,True,,,,,,,,,,,,5,A,2023-08-31_12h01.55.986,exp3,2022.2.2,
low_opac_v,0.4,1,0.01,3,0.82,3.5,0.01,0,0.01,4,5,Valid,0,8,21,start,lin,0.06939770050553568,0.06939770050553568,0.06939770050553568,0,True,,,,,,,,,,,,5,A,2023-08-31_12h01.55.986,exp3,2022.2.2,
low_opac_i,0.4,1,0.01,3,0.82,3.5,0.01,0,0.01,4,5,Invalid,2,8,22,start,lin,0.7013354937577837,0,0.7013354937577837,1,True,,,,,,,,,,,,5,A,2023-08-31_12h01.55.986,exp3,2022.2.2,
high_opac_v,0.01,1,0.01,3,0.82,3.5,0.01,0,0.01,4,5,Valid,1,8,23,start,lin,0.11430419928944945,0,0.11430419928944945,1,True,,,,,,,,,,,,5,A,2023-08-31_12h01.55.986,exp3,2022.2.2,
low_opac_i,0.4,1,0.01,3,0.82,3.5,0.01,0,0.01,4,5,Invalid,2,9,24,start,lin,0.6826922083567717,0,0.6826922083567717,1,True,,,,,,,,,,,,5,A,2023-08-31_12h01.55.986,exp3,2022.2.2,
low_opac_v,0.4,1,0.01,3,0.82,3.5,0.01,0,0.01,4,5,Valid,0,9,25,start,lin,0.15355165060147863,0,0.15355165060147863,1,True,,,,,,,,,,,,5,A,2023-08-31_12h01.55.986,exp3,2022.2.2,
high_opac_v,0.01,1,0.01,3,0.82,3.5,0.01,0,0.01,4,5,Valid,1,9,26,start,lin,0.10119641149476435,0,0.10119641149476435,1,True,,,,,,,,,,,,5,A,2023-08-31_12h01.55.986,exp3,2022.2.2,
high_opac_v,0.01,1,0.01,3,0.82,3.5,0.01,0,0.01,4,5,Valid,1,10,27,start,lin,0.09040680930255712,0.09040680930255712,0.09040680930255712,0,True,,,,,,,,,,,,5,A,2023-08-31_12h01.55.986,exp3,2022.2.2,
low_opac_v,0.4,1,0.01,3,0.82,3.5,0.01,0,0.01,4,5,Valid,0,10,28,start,lin,0.1380266354329187,0,0.1380266354329187,1,True,,,,,,,,,,,,5,A,2023-08-31_12h01.55.986,exp3,2022.2.2,
low_opac_i,0.4,1,0.01,3,0.82,3.5,0.01,0,0.01,4,5,Invalid,2,10,29,start,lin,0.6664271855889383,0.6664271855889383,0.6664271855889383,1,True,,,,,,,,,,,,5,A,2023-08-31_12h01.55.986,exp3,2022.2.2,
low_opac_i,0.4,1,0.01,3,0.82,3.5,0.01,0,0.01,4,5,Invalid,2,11,30,start,lin,0.6526518728015515,0,0.6526518728015515,1,True,,,,,,,,,,,,5,A,2023-08-31_12h01.55.986,exp3,2022.2.2,
low_opac_v,0.4,1,0.01,3,0.82,3.5,0.01,0,0.01,4,5,Valid,0,11,31,start,lin,0.125004370058504,0.125004370058504,0.125004370058504,0,True,,,,,,,,,,,,5,A,2023-08-31_12h01.55.986,exp3,2022.2.2,
high_opac_v,0.01,1,0.01,3,0.82,3.5,0.01,0,0.01,4,5,Valid,1,11,32,start,lin,0.12537602498854872,0.12537602498854872,0.12537602498854872,0,True,,,,,,,,,,,,5,A,2023-08-31_12h01.55.986,exp3,2022.2.2,
low_opac_v,0.4,1,0.01,3,0.82,3.5,0.01,0,0.01,4,5,Valid,0,12,33,start,lin,0.16819613108444836,0,0.16819613108444836,1,True,,,,,,,,,,,,5,A,2023-08-31_12h01.55.986,exp3,2022.2.2,
high_opac_v,0.01,1,0.01,3,0.82,3.5,0.01,0,0.01,4,5,Valid,1,12,34,start,lin,0.1597101430023741,0,0.1597101430023741,1,True,,,,,,,,,,,,5,A,2023-08-31_12h01.55.986,exp3,2022.2.2,
low_opac_i,0.4,1,0.01,3,0.82,3.5,0.01,0,0.01,4,5,Invalid,2,12,35,start,lin,0.6394773696303891,0.6394773696303891,0.6394773696303891,1,True,,,,,,,,,,,,5,A,2023-08-31_12h01.55.986,exp3,2022.2.2,
low_opac_v,0.4,1,0.01,3,0.82,3.5,0.01,0,0.01,4,5,Valid,0,13,36,start,lin,0.15876615374805184,0.15876615374805184,0.15876615374805184,1,True,,,,,,,,,,,,5,A,2023-08-31_12h01.55.986,exp3,2022.2.2,
low_opac_i,0.4,1,0.01,3,0.82,3.5,0.01,0,0.01,4,5,Invalid,2,13,37,start,lin,0.6275349778682454,0.6275349778682454,0.6275349778682454,1,True,,,,,,,,,,,,5,A,2023-08-31_12h01.55.986,exp3,2022.2.2,
high_opac_v,0.01,1,0.01,3,0.82,3.5,0.01,0,0.01,4,5,Valid,1,13,38,start,lin,0.15125611731162902,0.15125611731162902,0.15125611731162902,0,True,,,,,,,,,,,,5,A,2023-08-31_12h01.55.986,exp3,2022.2.2,
low_opac_i,0.4,1,0.01,3,0.82,3.5,0.01,0,0.01,4,5,Invalid,2,14,39,start,lin,0.6164595136351187,0,0.6164595136351187,1,True,,,,,,,,,,,,5,A,2023-08-31_12h01.55.986,exp3,2022.2.2,
low_opac_v,0.4,1,0.01,3,0.82,3.5,0.01,0,0.01,4,5,Valid,0,14,40,start,lin,0.15021412572062715,0.15021412572062715,0.15021412572062715,0,True,,,,,,,,,,,,5,A,2023-08-31_12h01.55.986,exp3,2022.2.2,
high_opac_v,0.01,1,0.01,3,0.82,3.5,0.01,0,0.01,4,5,Valid,1,14,41,start,lin,0.180026371185209,0.180026371185209,0.180026371185209,0,True,,,,,,,,,,,,5,A,2023-08-31_12h01.55.986,exp3,2022.2.2,
high_opac_v,0.01,1,0.01,3,0.82,3.5,0.01,0,0.01,4,5,Valid,1,15,42,start,lin,0.20833689638844807,0.20833689638844807,0.20833689638844807,1,True,,,,,,,,,,,,5,A,2023-08-31_12h01.55.986,exp3,2022.2.2,
low_opac_i,0.4,1,0.01,3,0.82,3.5,0.01,0,0.01,4,5,Invalid,2,15,43,start,lin,0.6059632677866864,0,0.6059632677866864,0,True,,,,,,,,,,,,5,A,2023-08-31_12h01.55.986,exp3,2022.2.2,
low_opac_v,0.4,1,0.01,3,0.82,3.5,0.01,0,0.01,4,5,Valid,0,15,44,start,lin,0.1798771465181527,0,0.1798771465181527,1,True,,,,,,,,,,,,5,A,2023-08-31_12h01.55.986,exp3,2022.2.2,
high_opac_v,0.01,1,0.01,3,0.82,3.5,0.01,0,0.01,4,5,Valid,1,16,45,start,lin,0.20125837159414287,0.20125837159414287,0.20125837159414287,0,True,,,,,,,,,,,,5,A,2023-08-31_12h01.55.986,exp3,2022.2.2,
low_opac_i,0.4,1,0.01,3,0.82,3.5,0.01,0,0.01,4,5,Invalid,2,16,46,start,lin,0.642938107754766,0,0.642938107754766,1,True,,,,,,,,,,,,5,A,2023-08-31_12h01.55.986,exp3,2022.2.2,
low_opac_v,0.4,1,0.01,3,0.82,3.5,0.01,0,0.01,4,5,Valid,0,16,47,start,lin,0.1728879599686717,0,0.1728879599686717,1,True,,,,,,,,,,,,5,A,2023-08-31_12h01.55.986,exp3,2022.2.2,
low_opac_v,0.4,1,0.01,3,0.82,3.5,0.01,0,0.01,4,5,Valid,0,17,48,start,lin,0.16626040742953824,0.16626040742953824,0.16626040742953824,0,True,,,,,,,,,,,,5,A,2023-08-31_12h01.55.986,exp3,2022.2.2,
high_opac_v,0.01,1,0.01,3,0.82,3.5,0.01,0,0.01,4,5,Valid,1,17,49,start,lin,0.22629485692061624,0,0.22629485692061624,1,True,,,,,,,,,,,,5,A,2023-08-31_12h01.55.986,exp3,2022.2.2,
low_opac_i,0.4,1,0.01,3,0.82,3.5,0.01,0,0.01,4,5,Invalid,2,17,50,start,lin,0.6355351150006519,0,0.6355351150006519,1,True,,,,,,,,,,,,5,A,2023-08-31_12h01.55.986,exp3,2022.2.2,
low_opac_v,0.4,1,0.01,3,0.82,3.5,0.01,0,0.01,4,5,Valid,0,18,51,start,lin,0.19002795623628074,0,0.19002795623628074,1,True,,,,,,,,,,,,5,A,2023-08-31_12h01.55.986,exp3,2022.2.2,
high_opac_v,0.01,1,0.01,3,0.82,3.5,0.01,0,0.01,4,5,Valid,1,18,52,start,lin,0.220122313006335,0.220122313006335,0.220122313006335,0,True,,,,,,,,,,,,5,A,2023-08-31_12h01.55.986,exp3,2022.2.2,
low_opac_i,0.4,1,0.01,3,0.82,3.5,0.01,0,0.01,4,5,Invalid,2,18,53,start,lin,0.6289914723190967,0.6289914723190967,0.6289914723190967,1,True,,,,,,,,,,,,5,A,2023-08-31_12h01.55.986,exp3,2022.2.2,
low_opac_i,0.4,1,0.01,3,0.82,3.5,0.01,0,0.01,4,5,Invalid,2,19,54,start,lin,0.6226239759587838,0.6226239759587838,0.6226239759587838,1,True,,,,,,,,,,,,5,A,2023-08-31_12h01.55.986,exp3,2022.2.2,
high_opac_v,0.01,1,0.01,3,0.82,3.5,0.01,0,0.01,4,5,Valid,1,19,55,start,lin,0.24286072828268984,0.24286072828268984,0.24286072828268984,0,True,,,,,,,,,,,,5,A,2023-08-31_12h01.55.986,exp3,2022.2.2,
low_opac_v,0.4,1,0.01,3,0.82,3.5,0.01,0,0.01,4,5,Valid,0,19,56,start,lin,0.18450939418555184,0.18450939418555184,0.18450939418555184,0,True,,,,,,,,,,,,5,A,2023-08-31_12h01.55.986,exp3,2022.2.2,
low_opac_v,0.4,1,0.01,3,0.82,3.5,0.01,0,0.01,4,5,Valid,0,20,57,start,lin,0.20414701665300267,0,0.20414701665300267,1,True,,,,,,,,,,,,5,A,2023-08-31_12h01.55.986,exp3,2022.2.2,
high_opac_v,0.01,1,0.01,3,0.82,3.5,0.01,0,0.01,4,5,Valid,1,20,58,start,lin,0.2647684928620411,0.2647684928620411,0.2647684928620411,1,True,,,,,,,,,,,,5,A,2023-08-31_12h01.55.986,exp3,2022.2.2,
low_opac_i,0.4,1,0.01,3,0.82,3.5,0.01,0,0.01,4,5,Invalid,2,20,59,start,lin,0.616348708540455,0,0.616348708540455,1,True,,,,,,,,,,,,5,A,2023-08-31_12h01.55.986,exp3,2022.2.2,
high_opac_v,0.01,1,0.01,3,0.82,3.5,0.01,0,0.01,4,5,Valid,1,21,60,start,lin,0.2589418406551512,0,0.2589418406551512,1,True,,,,,,,,,,,,5,A,2023-08-31_12h01.55.986,exp3,2022.2.2,
low_opac_i,0.4,1,0.01,3,0.82,3.5,0.01,0,0.01,4,5,Invalid,2,21,61,start,lin,0.6106792838865893,0.6106792838865893,0.6106792838865893,1,True,,,,,,,,,,,,5,A,2023-08-31_12h01.55.986,exp3,2022.2.2,
low_opac_v,0.4,1,0.01,3,0.82,3.5,0.01,0,0.01,4,5,Valid,0,21,62,start,lin,0.19909666397095765,0.19909666397095765,0.19909666397095765,0,True,,,,,,,,,,,,5,A,2023-08-31_12h01.55.986,exp3,2022.2.2,
low_opac_i,0.4,1,0.01,3,0.82,3.5,0.01,0,0.01,4,5,Invalid,2,22,63,start,lin,0.6049807419527131,0,0.6049807419527131,1,True,,,,,,,,,,,,5,A,2023-08-31_12h01.55.986,exp3,2022.2.2,
low_opac_v,0.4,1,0.01,3,0.82,3.5,0.01,0,0.01,4,5,Valid,0,22,64,start,lin,0.21727077051269017,0,0.21727077051269017,1,True,,,,,,,,,,,,5,A,2023-08-31_12h01.55.986,exp3,2022.2.2,
high_opac_v,0.01,1,0.01,3,0.82,3.5,0.01,0,0.01,4,5,Valid,1,22,65,start,lin,0.253861538820376,0,0.253861538820376,1,True,,,,,,,,,,,,5,A,2023-08-31_12h01.55.986,exp3,2022.2.2,
high_opac_v,0.01,1,0.01,3,0.82,3.5,0.01,0,0.01,4,5,Valid,1,23,66,start,lin,0.2489097432071199,0,0.2489097432071199,1,True,,,,,,,,,,,,5,A,2023-08-31_12h01.55.986,exp3,2022.2.2,
low_opac_v,0.4,1,0.01,3,0.82,3.5,0.01,0,0.01,4,5,Valid,0,23,67,start,lin,0.2130261993088238,0,0.2130261993088238,1,True,,,,,,,,,,,,5,A,2023-08-31_12h01.55.986,exp3,2022.2.2,
low_opac_i,0.4,1,0.01,3,0.82,3.5,0.01,0,0.01,4,5,Invalid,2,23,68,start,lin,0.5992873533406715,0.5992873533406715,0.5992873533406715,1,True,,,,,,,,,,,,5,A,2023-08-31_12h01.55.986,exp3,2022.2.2,
low_opac_i,0.4,1,0.01,3,0.82,3.5,0.01,0,0.01,4,5,Invalid,2,24,69,start,lin,0.593988901584327,0.593988901584327,0.593988901584327,1,True,,,,,,,,,,,,5,A,2023-08-31_12h01.55.986,exp3,2022.2.2,
high_opac_v,0.01,1,0.01,3,0.82,3.5,0.01,0,0.01,4,5,Valid,1,24,70,start,lin,0.2445053606807676,0,0.2445053606807676,1,True,,,,,,,,,,,,5,A,2023-08-31_12h01.55.986,exp3,2022.2.2,
low_opac_v,0.4,1,0.01,3,0.82,3.5,0.01,0,0.01,4,5,Valid,0,24,71,start,lin,0.20877455260088476,0.20877455260088476,0.20877455260088476,1,True,,,,,,,,,,,,5,A,2023-08-31_12h01.55.986,exp3,2022.2.2,
low_opac_i,0.4,1,0.01,3,0.82,3.5,0.01,0,0.01,4,5,Invalid,2,25,72,start,lin,0.5885963743353808,0.5885963743353808,0.5885963743353808,1,True,,,,,,,,,,,,5,A,2023-08-31_12h01.55.986,exp3,2022.2.2,
high_opac_v,0.01,1,0.01,3,0.82,3.5,0.01,0,0.01,4,5,Valid,1,25,73,start,lin,0.24014014016940774,0,0.24014014016940774,1,True,,,,,,,,,,,,5,A,2023-08-31_12h01.55.986,exp3,2022.2.2,
low_opac_v,0.4,1,0.01,3,0.82,3.5,0.01,0,0.01,4,5,Valid,0,25,74,start,lin,0.2049173648109657,0.2049173648109657,0.2049173648109657,0,True,,,,,,,,,,,,5,A,2023-08-31_12h01.55.986,exp3,2022.2.2,
high_opac_v,0.01,1,0.01,3,0.82,3.5,0.01,0,0.01,4,5,Valid,1,26,75,start,lin,0.2361760056604082,0,0.2361760056604082,1,True,,,,,,,,,,,,5,A,2023-08-31_12h01.55.986,exp3,2022.2.2,
low_opac_v,0.4,1,0.01,3,0.82,3.5,0.01,0,0.01,4,5,Valid,0,26,76,start,lin,0.21926073082202777,0,0.21926073082202777,1,True,,,,,,,,,,,,5,A,2023-08-31_12h01.55.986,exp3,2022.2.2,
low_opac_i,0.4,1,0.01,3,0.82,3.5,0.01,0,0.01,4,5,Invalid,2,26,77,start,lin,0.5835316813797764,0,0.5835316813797764,1,True,,,,,,,,,,,,5,A,2023-08-31_12h01.55.986,exp3,2022.2.2,
low_opac_v,0.4,1,0.01,3,0.82,3.5,0.01,0,0.01,4,5,Valid,0,27,78,start,lin,0.21571877820558288,0,0.21571877820558288,1,True,,,,,,,,,,,,5,A,2023-08-31_12h01.55.986,exp3,2022.2.2,
low_opac_i,0.4,1,0.01,3,0.82,3.5,0.01,0,0.01,4,5,Invalid,2,27,79,start,lin,0.5782902156793382,0,0.5782902156793382,1,True,,,,,,,,,,,,5,A,2023-08-31_12h01.55.986,exp3,2022.2.2,
high_opac_v,0.01,1,0.01,3,0.82,3.5,0.01,0,0.01,4,5,Valid,1,27,80,start,lin,0.23255425458811615,0.23255425458811615,0.23255425458811615,1,True,,,,,,,,,,,,5,A,2023-08-31_12h01.55.986,exp3,2022.2.2,
high_opac_v,0.01,1,0.01,3,0.82,3.5,0.01,0,0.01,4,5,Valid,1,28,81,start,lin,0.22887172287791888,0,0.22887172287791888,0,True,,,,,,,,,,,,5,A,2023-08-31_12h01.55.986,exp3,2022.2.2,
low_opac_v,0.4,1,0.01,3,0.82,3.5,0.01,0,0.01,4,5,Valid,0,28,82,start,lin,0.21244335210120283,0,0.21244335210120283,1,True,,,,,,,,,,,,5,A,2023-08-31_12h01.55.986,exp3,2022.2.2,
low_opac_i,0.4,1,0.01,3,0.82,3.5,0.01,0,0.01,4,5,Invalid,2,28,83,start,lin,0.5733083465364234,0,0.5733083465364234,1,True,,,,,,,,,,,,5,A,2023-08-31_12h01.55.986,exp3,2022.2.2,
low_opac_i,0.4,1,0.01,3,0.82,3.5,0.01,0,0.01,4,5,Invalid,2,29,84,start,lin,0.5680672182307701,0.5680672182307701,0.5680672182307701,1,True,,,,,,,,,,,,5,A,2023-08-31_12h01.55.986,exp3,2022.2.2,
high_opac_v,0.01,1,0.01,3,0.82,3.5,0.01,0,0.01,4,5,Valid,1,29,85,start,lin,0.2426910635857493,0,0.2426910635857493,1,True,,,,,,,,,,,,5,A,2023-08-31_12h01.55.986,exp3,2022.2.2,
low_opac_v,0.4,1,0.01,3,0.82,3.5,0.01,0,0.01,4,5,Valid,0,29,86,start,lin,0.2090782716450924,0,0.2090782716450924,1,True,,,,,,,,,,,,5,A,2023-08-31_12h01.55.986,exp3,2022.2.2,
low_opac_i,0.4,1,0.01,3,0.82,3.5,0.01,0,0.01,4,5,Invalid,2,30,87,start,lin,0.5630155076114189,0.5630155076114189,0.5630155076114189,1,True,,,,,,,,,,,,5,A,2023-08-31_12h01.55.986,exp3,2022.2.2,
high_opac_v,0.01,1,0.01,3,0.82,3.5,0.01,0,0.01,4,5,Valid,1,30,88,start,lin,0.23929081554074635,0.23929081554074635,0.23929081554074635,1,True,,,,,,,,,,,,5,A,2023-08-31_12h01.55.986,exp3,2022.2.2,
low_opac_v,0.4,1,0.01,3,0.82,3.5,0.01,0,0.01,4,5,Valid,0,30,89,start,lin,0.2059713875187844,0,0.2059713875187844,1,True,,,,,,,,,,,,5,A,2023-08-31_12h01.55.986,exp3,2022.2.2,
low_opac_v,0.4,1,0.01,3,0.82,3.5,0.01,0,0.01,4,5,Valid,0,31,90,start,lin,0.2030742916712906,0.2030742916712906,0.2030742916712906,1,True,,,,,,,,,,,,5,A,2023-08-31_12h01.55.986,exp3,2022.2.2,
low_opac_i,0.4,1,0.01,3,0.82,3.5,0.01,0,0.01,4,5,Invalid,2,31,91,start,lin,0.5575929390636419,0,0.5575929390636419,1,True,,,,,,,,,,,,5,A,2023-08-31_12h01.55.986,exp3,2022.2.2,
high_opac_v,0.01,1,0.01,3,0.82,3.5,0.01,0,0.01,4,5,Valid,1,31,92,start,lin,0.2361596711059108,0.2361596711059108,0.2361596711059108,1,True,,,,,,,,,,,,5,A,2023-08-31_12h01.55.986,exp3,2022.2.2,
low_opac_v,0.4,1,0.01,3,0.82,3.5,0.01,0,0.01,4,5,Valid,0,32,93,start,lin,0.20007054475228145,0,0.20007054475228145,1,True,,,,,,,,,,,,5,A,2023-08-31_12h01.55.986,exp3,2022.2.2,
low_opac_i,0.4,1,0.01,3,0.82,3.5,0.01,0,0.01,4,5,Invalid,2,32,94,start,lin,0.5522946546328017,0,0.5522946546328017,1,True,,,,,,,,,,,,5,A,2023-08-31_12h01.55.986,exp3,2022.2.2,
high_opac_v,0.01,1,0.01,3,0.82,3.5,0.01,0,0.01,4,5,Valid,1,32,95,start,lin,0.23324860394191074,0.23324860394191074,0.23324860394191074,1,True,,,,,,,,,,,,5,A,2023-08-31_12h01.55.986,exp3,2022.2.2,
high_opac_v,0.01,1,0.01,3,0.82,3.5,0.01,0,0.01,4,5,Valid,1,33,96,start,lin,0.23023931169792516,0,0.23023931169792516,1,True,,,,,,,,,,,,5,A,2023-08-31_12h01.55.986,exp3,2022.2.2,
low_opac_v,0.4,1,0.01,3,0.82,3.5,0.01,0,0.01,4,5,Valid,0,33,97,start,lin,0.19724249338081523,0,0.19724249338081523,1,True,,,,,,,,,,,,5,A,2023-08-31_12h01.55.986,exp3,2022.2.2,
low_opac_i,0.4,1,0.01,3,0.82,3.5,0.01,0,0.01,4,5,Invalid,2,33,98,start,lin,0.5464359267599802,0.5464359267599802,0.5464359267599802,1,True,,,,,,,,,,,,5,A,2023-08-31_12h01.55.986,exp3,2022.2.2,
low_opac_v,0.4,1,0.01,3,0.82,3.5,0.01,0,0.01,4,5,Valid,0,34,99,start,lin,0.19460606426690422,0.19460606426690422,0.19460606426690422,1,True,,,,,,,,,,,,5,A,2023-08-31_12h01.55.986,exp3,2022.2.2,
low_opac_i,0.4,1,0.01,3,0.82,3.5,0.01,0,0.01,4,5,Invalid,2,34,100,start,lin,0.5406662049588946,0.5406662049588946,0.5406662049588946,1,True,,,,,,,,,,,,5,A,2023-08-31_12h01.55.986,exp3,2022.2.2,
high_opac_v,0.01,1,0.01,3,0.82,3.5,0.01,0,0.01,4,5,Valid,1,34,101,start,lin,0.22740790092502855,0.22740790092502855,0.22740790092502855,1,True,,,,,,,,,,,,5,A,2023-08-31_12h01.55.986,exp3,2022.2.2,
high_opac_v,0.01,1,0.01,3,0.82,3.5,0.01,0,0.01,4,5,Valid,1,35,102,start,lin,0.22477444114144818,0.22477444114144818,0.22477444114144818,1,True,,,,,,,,,,,,5,A,2023-08-31_12h01.55.986,exp3,2022.2.2,
low_opac_v,0.4,1,0.01,3,0.82,3.5,0.01,0,0.01,4,5,Valid,0,35,103,start,lin,0.1918823907756231,0.1918823907756231,0.1918823907756231,1,True,,,,,,,,,,,,5,A,2023-08-31_12h01.55.986,exp3,2022.2.2,
low_opac_i,0.4,1,0.01,3,0.82,3.5,0.01,0,0.01,4,5,Invalid,2,35,104,start,lin,0.5339866417052092,0,0.5339866417052092,1,True,,,,,,,,,,,,5,A,2023-08-31_12h01.55.986,exp3,2022.2.2,
low_opac_v,0.4,1,0.01,3,0.82,3.5,0.01,0,0.01,4,5,Valid,0,36,105,start,lin,0.18925309577921123,0,0.18925309577921123,1,True,,,,,,,,,,,,5,A,2023-08-31_12h01.55.986,exp3,2022.2.2,
low_opac_i,0.4,1,0.01,3,0.82,3.5,0.01,0,0.01,4,5,Invalid,2,36,106,start,lin,0.526381935516157,0,0.526381935516157,1,True,,,,,,,,,,,,5,A,2023-08-31_12h01.55.986,exp3,2022.2.2,
high_opac_v,0.01,1,0.01,3,0.82,3.5,0.01,0,0.01,4,5,Valid,1,36,107,start,lin,0.2220600588927114,0,0.2220600588927114,1,True,,,,,,,,,,,,5,A,2023-08-31_12h01.55.986,exp3,2022.2.2,
low_opac_i,0.4,1,0.01,3,0.82,3.5,0.01,0,0.01,4,5,Invalid,2,37,108,start,lin,0.5183459191524261,0,0.5183459191524261,1,True,,,,,,,,,,,,5,A,2023-08-31_12h01.55.986,exp3,2022.2.2,
low_opac_v,0.4,1,0.01,3,0.82,3.5,0.01,0,0.01,4,5,Valid,0,37,109,start,lin,0.1867793825551255,0.1867793825551255,0.1867793825551255,1,True,,,,,,,,,,,,5,A,2023-08-31_12h01.55.986,exp3,2022.2.2,
high_opac_v,0.01,1,0.01,3,0.82,3.5,0.01,0,0.01,4,5,Valid,1,37,110,start,lin,0.21944284270290002,0,0.21944284270290002,1,True,,,,,,,,,,,,5,A,2023-08-31_12h01.55.986,exp3,2022.2.2,
high_opac_v,0.01,1,0.01,3,0.82,3.5,0.01,0,0.01,4,5,Valid,1,38,111,start,lin,0.21698036005639734,0,0.21698036005639734,1,True,,,,,,,,,,,,5,A,2023-08-31_12h01.55.986,exp3,2022.2.2,
low_opac_i,0.4,1,0.01,3,0.82,3.5,0.01,0,0.01,4,5,Invalid,2,38,112,start,lin,0.5085509238075457,0,0.5085509238075457,1,True,,,,,,,,,,,,5,A,2023-08-31_12h01.55.986,exp3,2022.2.2,
low_opac_v,0.4,1,0.01,3,0.82,3.5,0.01,0,0.01,4,5,Valid,0,38,113,start,lin,0.1844493853005496,0.1844493853005496,0.1844493853005496,1,True,,,,,,,,,,,,5,A,2023-08-31_12h01.55.986,exp3,2022.2.2,
low_opac_i,0.4,1,0.01,3,0.82,3.5,0.01,0,0.01,4,5,Invalid,2,39,114,start,lin,0.496059931256116,0,0.496059931256116,1,True,,,,,,,,,,,,5,A,2023-08-31_12h01.55.986,exp3,2022.2.2,
low_opac_v,0.4,1,0.01,3,0.82,3.5,0.01,0,0.01,4,5,Valid,0,39,115,start,lin,0.1820217910647737,0,0.1820217910647737,1,True,,,,,,,,,,,,5,A,2023-08-31_12h01.55.986,exp3,2022.2.2,
high_opac_v,0.01,1,0.01,3,0.82,3.5,0.01,0,0.01,4,5,Valid,1,39,116,start,lin,0.21466505611876613,0.21466505611876613,0.21466505611876613,0,True,,,,,,,,,,,,5,A,2023-08-31_12h01.55.986,exp3,2022.2.2,
high_opac_v,0.01,1,0.01,3,0.82,3.5,0.01,0,0.01,4,5,Valid,1,40,117,start,lin,0.22381794348406,0,0.22381794348406,1,True,,,,,,,,,,,,5,A,2023-08-31_12h01.55.986,exp3,2022.2.2,
low_opac_i,0.4,1,0.01,3,0.82,3.5,0.01,0,0.01,4,5,Invalid,2,40,118,start,lin,0.47984466454402774,0,0.47984466454402774,1,True,,,,,,,,,,,,5,A,2023-08-31_12h01.55.986,exp3,2022.2.2,
low_opac_v,0.4,1,0.01,3,0.82,3.5,0.01,0,0.01,4,5,Valid,0,40,119,start,lin,0.17965919127669727,0.17965919127669727,0.17965919127669727,1,True,,,,,,,,,,,,5,A,2023-08-31_12h01.55.986,exp3,2022.2.2,
low_opac_v,0.4,1,0.01,3,0.82,3.5,0.01,0,0.01,4,5,Valid,0,41,120,start,lin,0.177407227292926,0,0.177407227292926,1,True,,,,,,,,,,,,5,A,2023-08-31_12h01.55.986,exp3,2022.2.2,
low_opac_i,0.4,1,0.01,3,0.82,3.5,0.01,0,0.01,4,5,Invalid,2,41,121,start,lin,0.4550786783701401,0,0.4550786783701401,1,True,,,,,,,,,,,,5,A,2023-08-31_12h01.55.986,exp3,2022.2.2,
high_opac_v,0.01,1,0.01,3,0.82,3.5,0.01,0,0.01,4,5,Valid,1,41,122,start,lin,0.2215060707099581,0,0.2215060707099581,1,True,,,,,,,,,,,,5,A,2023-08-31_12h01.55.986,exp3,2022.2.2,
high_opac_v,0.01,1,0.01,3,0.82,3.5,0.01,0,0.01,4,5,Valid,1,42,123,start,lin,0.21925679890126454,0,0.21925679890126454,1,True,,,,,,,,,,,,5,A,2023-08-31_12h01.55.986,exp3,2022.2.2,
low_opac_i,0.4,1,0.01,3,0.82,3.5,0.01,0,0.01,4,5,Invalid,2,42,124,start,lin,0.4218000218469457,0.4218000218469457,0.4218000218469457,1,True,,,,,,,,,,,,5,A,2023-08-31_12h01.55.986,exp3,2022.2.2,
low_opac_v,0.4,1,0.01,3,0.82,3.5,0.01,0,0.01,4,5,Valid,0,42,125,start,lin,0.17528199937542602,0,0.17528199937542602,1,True,,,,,,,,,,,,5,A,2023-08-31_12h01.55.986,exp3,2022.2.2,
high_opac_v,0.01,1,0.01,3,0.82,3.5,0.01,0,0.01,4,5,Valid,1,43,126,start,lin,0.21713304993396892,0.21713304993396892,0.21713304993396892,1,True,,,,,,,,,,,,5,A,2023-08-31_12h01.55.986,exp3,2022.2.2,
low_opac_v,0.4,1,0.01,3,0.82,3.5,0.01,0,0.01,4,5,Valid,0,43,127,start,lin,0.17324825928139923,0.17324825928139923,0.17324825928139923,1,True,,,,,,,,,,,,5,A,2023-08-31_12h01.55.986,exp3,2022.2.2,
low_opac_i,0.4,1,0.01,3,0.82,3.5,0.01,0,0.01,4,5,Invalid,2,43,128,start,lin,0.3733624727646777,0.3733624727646777,0.3733624727646777,1,True,,,,,,,,,,,,5,A,2023-08-31_12h01.55.986,exp3,2022.2.2,
low_opac_v,0.4,1,0.01,3,0.82,3.5,0.01,0,0.01,4,5,Valid,0,44,129,start,lin,0.17109646523433206,0.17109646523433206,0.17109646523433206,1,True,,,,,,,,,,,,5,A,2023-08-31_12h01.55.986,exp3,2022.2.2,
high_opac_v,0.01,1,0.01,3,0.82,3.5,0.01,0,0.01,4,5,Valid,1,44,130,start,lin,0.21512504771054344,0,0.21512504771054344,1,True,,,,,,,,,,,,5,A,2023-08-31_12h01.55.986,exp3,2022.2.2,
low_opac_i,0.4,1,0.01,3,0.82,3.5,0.01,0,0.01,4,5,Invalid,2,44,131,start,lin,0.1892737872543684,0.1892737872543684,0.1892737872543684,1,True,,,,,,,,,,,,5,A,2023-08-31_12h01.55.986,exp3,2022.2.2,
low_opac_i,0.4,1,0.01,3,0.82,3.5,0.01,0,0.01,4,5,Invalid,2,45,132,start,lin,0.01,0.01,0.01,0,True,,,,,,,,,,,,5,A,2023-08-31_12h01.55.986,exp3,2022.2.2,
low_opac_v,0.4,1,0.01,3,0.82,3.5,0.01,0,0.01,4,5,Valid,0,45,133,start,lin,0.16898577438825352,0.16898577438825352,0.16898577438825352,1,True,,,,,,,,,,,,5,A,2023-08-31_12h01.55.986,exp3,2022.2.2,
high_opac_v,0.01,1,0.01,3,0.82,3.5,0.01,0,0.01,4,5,Valid,1,45,134,start,lin,0.21320103863202133,0,0.21320103863202133,1,True,,,,,,,,,,,,5,A,2023-08-31_12h01.55.986,exp3,2022.2.2,
high_opac_v,0.01,1,0.01,3,0.82,3.5,0.01,0,0.01,4,5,Valid,1,46,135,start,lin,0.21116433635562878,0.21116433635562878,0.21116433635562878,1,True,,,,,,,,,,,,5,A,2023-08-31_12h01.55.986,exp3,2022.2.2,
low_opac_v,0.4,1,0.01,3,0.82,3.5,0.01,0,0.01,4,5,Valid,0,46,136,start,lin,0.16698114424881022,0,0.16698114424881022,1,True,,,,,,,,,,,,5,A,2023-08-31_12h01.55.986,exp3,2022.2.2,
low_opac_i,0.4,1,0.01,3,0.82,3.5,0.01,0,0.01,4,5,Invalid,2,46,137,start,lin,0.35992113050490965,0,0.35992113050490965,1,True,,,,,,,,,,,,5,A,2023-08-31_12h01.55.986,exp3,2022.2.2,
low_opac_i,0.4,1,0.01,3,0.82,3.5,0.01,0,0.01,4,5,Invalid,2,47,138,start,lin,0.334236348428958,0.334236348428958,0.334236348428958,1,True,,,,,,,,,,,,5,A,2023-08-31_12h01.55.986,exp3,2022.2.2,
high_opac_v,0.01,1,0.01,3,0.82,3.5,0.01,0,0.01,4,5,Valid,1,47,139,start,lin,0.20916745357670322,0,0.20916745357670322,1,True,,,,,,,,,,,,5,A,2023-08-31_12h01.55.986,exp3,2022.2.2,
low_opac_v,0.4,1,0.01,3,0.82,3.5,0.01,0,0.01,4,5,Valid,0,47,140,start,lin,0.16507424911441618,0.16507424911441618,0.16507424911441618,0,True,,,,,,,,,,,,5,A,2023-08-31_12h01.55.986,exp3,2022.2.2,
high_opac_v,0.01,1,0.01,3,0.82,3.5,0.01,0,0.01,4,5,Valid,1,48,141,start,lin,0.20727219380161685,0,0.20727219380161685,1,True,,,,,,,,,,,,5,A,2023-08-31_12h01.55.986,exp3,2022.2.2,
low_opac_i,0.4,1,0.01,3,0.82,3.5,0.01,0,0.01,4,5,Invalid,2,48,142,start,lin,0.30286696801476787,0.30286696801476787,0.30286696801476787,1,True,,,,,,,,,,,,5,A,2023-08-31_12h01.55.986,exp3,2022.2.2,
low_opac_v,0.4,1,0.01,3,0.82,3.5,0.01,0,0.01,4,5,Valid,0,48,143,start,lin,0.17324691567218742,0,0.17324691567218742,1,True,,,,,,,,,,,,5,A,2023-08-31_12h01.55.986,exp3,2022.2.2,
low_opac_i,0.4,1,0.01,3,0.82,3.5,0.01,0,0.01,4,5,Invalid,2,49,144,start,lin,0.2589025999619228,0.2589025999619228,0.2589025999619228,1,True,,,,,,,,,,,,5,A,2023-08-31_12h01.55.986,exp3,2022.2.2,
low_opac_v,0.4,1,0.01,3,0.82,3.5,0.01,0,0.01,4,5,Valid,0,49,145,start,lin,0.17135550091805493,0.17135550091805493,0.17135550091805493,0,True,,,,,,,,,,,,5,A,2023-08-31_12h01.55.986,exp3,2022.2.2,
high_opac_v,0.01,1,0.01,3,0.82,3.5,0.01,0,0.01,4,5,Valid,1,49,146,start,lin,0.20547182410987808,0,0.20547182410987808,1,True,,,,,,,,,,,,5,A,2023-08-31_12h01.55.986,exp3,2022.2.2,
high_opac_v,0.01,1,0.01,3,0.82,3.5,0.01,0,0.01,4,5,Valid,1,50,147,start,lin,0.20374140271482366,0.20374140271482366,0.20374140271482366,1,True,,,,,,,,,,,,5,A,2023-08-31_12h01.55.986,exp3,2022.2.2,
low_opac_i,0.4,1,0.01,3,0.82,3.5,0.01,0,0.01,4,5,Invalid,2,50,148,start,lin,0.2023591455550887,0,0.2023591455550887,1,True,,,,,,,,,,,,5,A,2023-08-31_12h01.55.986,exp3,2022.2.2,
low_opac_v,0.4,1,0.01,3,0.82,3.5,0.01,0,0.01,4,5,Valid,0,50,149,start,lin,0.17861066187371286,0.17861066187371286,0.17861066187371286,1,True,,,,,,,,,,,,5,A,2023-08-31_12h01.55.986,exp3,2022.2.2,
high_opac_v,0.01,1,0.01,3,0.82,3.5,0.01,0,0.01,4,5,Valid,1,51,150,start,lin,0.20190701247827883,0,0.20190701247827883,0,True,,,,,,,,,,,,5,A,2023-08-31_12h01.55.986,exp3,2022.2.2,
low_opac_i,0.4,1,0.01,3,0.82,3.5,0.01,0,0.01,4,5,Invalid,2,51,151,start,lin,0.149739216163418,0.149739216163418,0.149739216163418,0,True,,,,,,,,,,,,5,A,2023-08-31_12h01.55.986,exp3,2022.2.2,
low_opac_v,0.4,1,0.01,3,0.82,3.5,0.01,0,0.01,4,5,Valid,0,51,152,start,lin,0.17689043536650706,0.17689043536650706,0.17689043536650706,0,True,,,,,,,,,,,,5,A,2023-08-31_12h01.55.986,exp3,2022.2.2,
high_opac_v,0.01,1,0.01,3,0.82,3.5,0.01,0,0.01,4,5,Valid,1,52,153,start,lin,0.20892379816281115,0,0.20892379816281115,1,True,,,,,,,,,,,,5,A,2023-08-31_12h01.55.986,exp3,2022.2.2,
low_opac_v,0.4,1,0.01,3,0.82,3.5,0.01,0,0.01,4,5,Valid,0,52,154,start,lin,0.1840525427372379,0.1840525427372379,0.1840525427372379,1,True,,,,,,,,,,,,5,A,2023-08-31_12h01.55.986,exp3,2022.2.2,
low_opac_i,0.4,1,0.01,3,0.82,3.5,0.01,0,0.01,4,5,Invalid,2,52,155,start,lin,0.27057916711750857,0,0.27057916711750857,0,True,,,,,,,,,,,,5,A,2023-08-31_12h01.55.986,exp3,2022.2.2,
low_opac_i,0.4,1,0.01,3,0.82,3.5,0.01,0,0.01,4,5,Invalid,2,53,156,start,lin,0.32991305535218624,0,0.32991305535218624,0,True,,,,,,,,,,,,5,A,2023-08-31_12h01.55.986,exp3,2022.2.2,
high_opac_v,0.01,1,0.01,3,0.82,3.5,0.01,0,0.01,4,5,Valid,1,53,157,start,lin,0.20724009633835005,0,0.20724009633835005,0,True,,,,,,,,,,,,5,A,2023-08-31_12h01.55.986,exp3,2022.2.2,
low_opac_v,0.4,1,0.01,3,0.82,3.5,0.01,0,0.01,4,5,Valid,0,53,158,start,lin,0.18236257091338937,0,0.18236257091338937,0,True,,,,,,,,,,,,5,A,2023-08-31_12h01.55.986,exp3,2022.2.2,
high_opac_v,0.01,1,0.01,3,0.82,3.5,0.01,0,0.01,4,5,Valid,1,54,159,start,lin,0.21420107737495622,0,0.21420107737495622,1,True,,,,,,,,,,,,5,A,2023-08-31_12h01.55.986,exp3,2022.2.2,
low_opac_i,0.4,1,0.01,3,0.82,3.5,0.01,0,0.01,4,5,Invalid,2,54,160,start,lin,0.3622130138194499,0.3622130138194499,0.3622130138194499,1,True,,,,,,,,,,,,5,A,2023-08-31_12h01.55.986,exp3,2022.2.2,
low_opac_v,0.4,1,0.01,3,0.82,3.5,0.01,0,0.01,4,5,Valid,0,54,161,start,lin,0.18881895692130715,0,0.18881895692130715,1,True,,,,,,,,,,,,5,A,2023-08-31_12h01.55.986,exp3,2022.2.2,
low_opac_i,0.4,1,0.01,3,0.82,3.5,0.01,0,0.01,4,5,Invalid,2,55,162,start,lin,0.3553273953390908,0,0.3553273953390908,1,True,,,,,,,,,,,,5,A,2023-08-31_12h01.55.986,exp3,2022.2.2,
high_opac_v,0.01,1,0.01,3,0.82,3.5,0.01,0,0.01,4,5,Valid,1,55,163,start,lin,0.21255287620042984,0,0.21255287620042984,1,True,,,,,,,,,,,,5,A,2023-08-31_12h01.55.986,exp3,2022.2.2,
low_opac_v,0.4,1,0.01,3,0.82,3.5,0.01,0,0.01,4,5,Valid,0,55,164,start,lin,0.18725742212263524,0,0.18725742212263524,1,True,,,,,,,,,,,,5,A,2023-08-31_12h01.55.986,exp3,2022.2.2,
low_opac_i,0.4,1,0.01,3,0.82,3.5,0.01,0,0.01,4,5,Invalid,2,56,165,start,lin,0.3492549956262288,0.3492549956262288,0.3492549956262288,1,True,,,,,,,,,,,,5,A,2023-08-31_12h01.55.986,exp3,2022.2.2,
low_opac_v,0.4,1,0.01,3,0.82,3.5,0.01,0,0.01,4,5,Valid,0,56,166,start,lin,0.18576592967453695,0.18576592967453695,0.18576592967453695,1,True,,,,,,,,,,,,5,A,2023-08-31_12h01.55.986,exp3,2022.2.2,
high_opac_v,0.01,1,0.01,3,0.82,3.5,0.01,0,0.01,4,5,Valid,1,56,167,start,lin,0.2109320486687861,0,0.2109320486687861,1,True,,,,,,,,,,,,5,A,2023-08-31_12h01.55.986,exp3,2022.2.2,
low_opac_v,0.4,1,0.01,3,0.82,3.5,0.01,0,0.01,4,5,Valid,0,57,168,start,lin,0.18432752416439244,0.18432752416439244,0.18432752416439244,1,True,,,,,,,,,,,,5,A,2023-08-31_12h01.55.986,exp3,2022.2.2,
high_opac_v,0.01,1,0.01,3,0.82,3.5,0.01,0,0.01,4,5,Valid,1,57,169,start,lin,0.2093278940947014,0,0.2093278940947014,1,True,,,,,,,,,,,,5,A,2023-08-31_12h01.55.986,exp3,2022.2.2,
low_opac_i,0.4,1,0.01,3,0.82,3.5,0.01,0,0.01,4,5,Invalid,2,57,170,start,lin,0.3433186817365653,0,0.3433186817365653,1,True,,,,,,,,,,,,5,A,2023-08-31_12h01.55.986,exp3,2022.2.2,
high_opac_v,0.01,1,0.01,3,0.82,3.5,0.01,0,0.01,4,5,Valid,1,58,171,start,lin,0.2077952282439533,0.2077952282439533,0.2077952282439533,1,True,,,,,,,,,,,,5,A,2023-08-31_12h01.55.986,exp3,2022.2.2,
low_opac_i,0.4,1,0.01,3,0.82,3.5,0.01,0,0.01,4,5,Invalid,2,58,172,start,lin,0.3374342611064013,0,0.3374342611064013,1,True,,,,,,,,,,,,5,A,2023-08-31_12h01.55.986,exp3,2022.2.2,
low_opac_v,0.4,1,0.01,3,0.82,3.5,0.01,0,0.01,4,5,Valid,0,58,173,start,lin,0.18280140514527107,0,0.18280140514527107,1,True,,,,,,,,,,,,5,A,2023-08-31_12h01.55.986,exp3,2022.2.2,
low_opac_v,0.4,1,0.01,3,0.82,3.5,0.01,0,0.01,4,5,Valid,0,59,174,start,lin,0.18129931186544476,0,0.18129931186544476,1,True,,,,,,,,,,,,5,A,2023-08-31_12h01.55.986,exp3,2022.2.2,
high_opac_v,0.01,1,0.01,3,0.82,3.5,0.01,0,0.01,4,5,Valid,1,59,175,start,lin,0.2063338002171538,0.2063338002171538,0.2063338002171538,1,True,,,,,,,,,,,,5,A,2023-08-31_12h01.55.986,exp3,2022.2.2,
low_opac_i,0.4,1,0.01,3,0.82,3.5,0.01,0,0.01,4,5,Invalid,2,59,176,start,lin,0.3320722197489727,0.3320722197489727,0.3320722197489727,1,True,,,,,,,,,,,,5,A,2023-08-31_12h01.55.986,exp3,2022.2.2,
low_opac_i,0.4,1,0.01,3,0.82,3.5,0.01,0,0.01,4,5,Invalid,2,60,177,start,lin,0.3266229514356292,0.3266229514356292,0.3266229514356292,1,True,,,,,,,,,,,,5,A,2023-08-31_12h01.55.986,exp3,2022.2.2,
low_opac_v,0.4,1,0.01,3,0.82,3.5,0.01,0,0.01,4,5,Valid,0,60,178,start,lin,0.17980582044122456,0.17980582044122456,0.17980582044122456,1,True,,,,,,,,,,,,5,A,2023-08-31_12h01.55.986,exp3,2022.2.2,
high_opac_v,0.01,1,0.01,3,0.82,3.5,0.01,0,0.01,4,5,Valid,1,60,179,start,lin,0.2049272402614317,0,0.2049272402614317,1,True,,,,,,,,,,,,5,A,2023-08-31_12h01.55.986,exp3,2022.2.2,
low_opac_v,0.4,1,0.01,3,0.82,3.5,0.01,0,0.01,4,5,Valid,0,61,180,start,lin,0.17835887505723452,0.17835887505723452,0.17835887505723452,1,True,,,,,,,,,,,,5,A,2023-08-31_12h01.55.986,exp3,2022.2.2,
low_opac_i,0.4,1,0.01,3,0.82,3.5,0.01,0,0.01,4,5,Invalid,2,61,181,start,lin,0.3216000094431689,0,0.3216000094431689,1,True,,,,,,,,,,,,5,A,2023-08-31_12h01.55.986,exp3,2022.2.2,
high_opac_v,0.01,1,0.01,3,0.82,3.5,0.01,0,0.01,4,5,Valid,1,61,182,start,lin,0.20343910785397193,0.20343910785397193,0.20343910785397193,0,True,,,,,,,,,,,,5,A,2023-08-31_12h01.55.986,exp3,2022.2.2,
low_opac_v,0.4,1,0.01,3,0.82,3.5,0.01,0,0.01,4,5,Valid,0,62,183,start,lin,0.17698079825947582,0.17698079825947582,0.17698079825947582,1,True,,,,,,,,,,,,5,A,2023-08-31_12h01.55.986,exp3,2022.2.2,
high_opac_v,0.01,1,0.01,3,0.82,3.5,0.01,0,0.01,4,5,Valid,1,62,184,start,lin,0.20910939382200397,0,0.20910939382200397,1,True,,,,,,,,,,,,5,A,2023-08-31_12h01.55.986,exp3,2022.2.2,
low_opac_i,0.4,1,0.01,3,0.82,3.5,0.01,0,0.01,4,5,Invalid,2,62,185,start,lin,0.31640844473167407,0.31640844473167407,0.31640844473167407,1,True,,,,,,,,,,,,5,A,2023-08-31_12h01.55.986,exp3,2022.2.2,
high_opac_v,0.01,1,0.01,3,0.82,3.5,0.01,0,0.01,4,5,Valid,1,63,186,start,lin,0.20771782248711496,0,0.20771782248711496,1,True,,,,,,,,,,,,5,A,2023-08-31_12h01.55.986,exp3,2022.2.2,
low_opac_v,0.4,1,0.01,3,0.82,3.5,0.01,0,0.01,4,5,Valid,0,63,187,start,lin,0.17565694066633852,0.17565694066633852,0.17565694066633852,1,True,,,,,,,,,,,,5,A,2023-08-31_12h01.55.986,exp3,2022.2.2,
low_opac_i,0.4,1,0.01,3,0.82,3.5,0.01,0,0.01,4,5,Invalid,2,63,188,start,lin,0.3115804482996558,0,0.3115804482996558,1,True,,,,,,,,,,,,5,A,2023-08-31_12h01.55.986,exp3,2022.2.2,
low_opac_i,0.4,1,0.01,3,0.82,3.5,0.01,0,0.01,4,5,Invalid,2,64,189,start,lin,0.3065279662699583,0,0.3065279662699583,1,True,,,,,,,,,,,,5,A,2023-08-31_12h01.55.986,exp3,2022.2.2,
high_opac_v,0.01,1,0.01,3,0.82,3.5,0.01,0,0.01,4,5,Valid,1,64,190,start,lin,0.2063869793097309,0,0.2063869793097309,1,True,,,,,,,,,,,,5,A,2023-08-31_12h01.55.986,exp3,2022.2.2,
low_opac_v,0.4,1,0.01,3,0.82,3.5,0.01,0,0.01,4,5,Valid,0,64,191,start,lin,0.17437430330031536,0.17437430330031536,0.17437430330031536,1,True,,,,,,,,,,,,5,A,2023-08-31_12h01.55.986,exp3,2022.2.2,
low_opac_v,0.4,1,0.01,3,0.82,3.5,0.01,0,0.01,4,5,Valid,0,65,192,start,lin,0.17300837046827436,0.17300837046827436,0.17300837046827436,0,True,,,,,,,,,,,,5,A,2023-08-31_12h01.55.986,exp3,2022.2.2,
low_opac_i,0.4,1,0.01,3,0.82,3.5,0.01,0,0.01,4,5,Invalid,2,65,193,start,lin,0.3017925984097307,0.3017925984097307,0.3017925984097307,1,True,,,,,,,,,,,,5,A,2023-08-31_12h01.55.986,exp3,2022.2.2,
high_opac_v,0.01,1,0.01,3,0.82,3.5,0.01,0,0.01,4,5,Valid,1,65,194,start,lin,0.20510340059461765,0.20510340059461765,0.20510340059461765,1,True,,,,,,,,,,,,5,A,2023-08-31_12h01.55.986,exp3,2022.2.2,
low_opac_v,0.4,1,0.01,3,0.82,3.5,0.01,0,0.01,4,5,Valid,0,66,195,start,lin,0.1782402347500503,0,0.1782402347500503,1,True,,,,,,,,,,,,5,A,2023-08-31_12h01.55.986,exp3,2022.2.2,
low_opac_i,0.4,1,0.01,3,0.82,3.5,0.01,0,0.01,4,5,Invalid,2,66,196,start,lin,0.29679347503860964,0.29679347503860964,0.29679347503860964,1,True,,,,,,,,,,,,5,A,2023-08-31_12h01.55.986,exp3,2022.2.2,
high_opac_v,0.01,1,0.01,3,0.82,3.5,0.01,0,0.01,4,5,Valid,1,66,197,start,lin,0.20385506413032206,0.20385506413032206,0.20385506413032206,1,True,,,,,,,,,,,,5,A,2023-08-31_12h01.55.986,exp3,2022.2.2,
low_opac_i,0.4,1,0.01,3,0.82,3.5,0.01,0,0.01,4,5,Invalid,2,67,198,start,lin,0.292072165762723,0.292072165762723,0.292072165762723,1,True,,,,,,,,,,,,5,A,2023-08-31_12h01.55.986,exp3,2022.2.2,
low_opac_v,0.4,1,0.01,3,0.82,3.5,0.01,0,0.01,4,5,Valid,0,67,199,start,lin,0.17697816771523622,0.17697816771523622,0.17697816771523622,1,True,,,,,,,,,,,,5,A,2023-08-31_12h01.55.986,exp3,2022.2.2,
high_opac_v,0.01,1,0.01,3,0.82,3.5,0.01,0,0.01,4,5,Valid,1,67,200,start,lin,0.20252012462552071,0.20252012462552071,0.20252012462552071,1,True,,,,,,,,,,,,5,A,2023-08-31_12h01.55.986,exp3,2022.2.2,
high_opac_v,0.01,1,0.01,3,0.82,3.5,0.01,0,0.01,4,5,Valid,1,68,201,start,lin,0.20119831311844127,0,0.20119831311844127,1,True,,,,,,,,,,,,5,A,2023-08-31_12h01.55.986,exp3,2022.2.2,
low_opac_i,0.4,1,0.01,3,0.82,3.5,0.01,0,0.01,4,5,Invalid,2,68,202,start,lin,0.2870609839899685,0,0.2870609839899685,1,True,,,,,,,,,,,,5,A,2023-08-31_12h01.55.986,exp3,2022.2.2,
low_opac_v,0.4,1,0.01,3,0.82,3.5,0.01,0,0.01,4,5,Valid,0,68,203,start,lin,0.1757631911757329,0,0.1757631911757329,1,True,,,,,,,,,,,,5,A,2023-08-31_12h01.55.986,exp3,2022.2.2,
low_opac_i,0.4,1,0.01,3,0.82,3.5,0.01,0,0.01,4,5,Invalid,2,69,204,start,lin,0.28229440172777853,0.28229440172777853,0.28229440172777853,0,True,,,,,,,,,,,,5,A,2023-08-31_12h01.55.986,exp3,2022.2.2,
high_opac_v,0.01,1,0.01,3,0.82,3.5,0.01,0,0.01,4,5,Valid,1,69,205,start,lin,0.1998774306259823,0.1998774306259823,0.1998774306259823,1,True,,,,,,,,,,,,5,A,2023-08-31_12h01.55.986,exp3,2022.2.2,
low_opac_v,0.4,1,0.01,3,0.82,3.5,0.01,0,0.01,4,5,Valid,0,69,206,start,lin,0.17458440534626857,0.17458440534626857,0.17458440534626857,0,True,,,,,,,,,,,,5,A,2023-08-31_12h01.55.986,exp3,2022.2.2,
low_opac_v,0.4,1,0.01,3,0.82,3.5,0.01,0,0.01,4,5,Valid,0,70,207,start,lin,0.17946049522657054,0,0.17946049522657054,1,True,,,,,,,,,,,,5,A,2023-08-31_12h01.55.986,exp3,2022.2.2,
low_opac_i,0.4,1,0.01,3,0.82,3.5,0.01,0,0.01,4,5,Invalid,2,70,208,start,lin,0.30042960016675635,0.30042960016675635,0.30042960016675635,1,True,,,,,,,,,,,,5,A,2023-08-31_12h01.55.986,exp3,2022.2.2,
high_opac_v,0.01,1,0.01,3,0.82,3.5,0.01,0,0.01,4,5,Valid,1,70,209,start,lin,0.19858729142003312,0.19858729142003312,0.19858729142003312,1,True,,,,,,,,,,,,5,A,2023-08-31_12h01.55.986,exp3,2022.2.2,
high_opac_v,0.01,1,0.01,3,0.82,3.5,0.01,0,0.01,4,5,Valid,1,71,210,start,lin,0.19735573247373722,0.19735573247373722,0.19735573247373722,1,True,,,,,,,,,,,,5,A,2023-08-31_12h01.55.986,exp3,2022.2.2,
low_opac_v,0.4,1,0.01,3,0.82,3.5,0.01,0,0.01,4,5,Valid,0,71,211,start,lin,0.17824114837494082,0.17824114837494082,0.17824114837494082,1,True,,,,,,,,,,,,5,A,2023-08-31_12h01.55.986,exp3,2022.2.2,
low_opac_i,0.4,1,0.01,3,0.82,3.5,0.01,0,0.01,4,5,Invalid,2,71,212,start,lin,0.29665195428358526,0.29665195428358526,0.29665195428358526,1,True,,,,,,,,,,,,5,A,2023-08-31_12h01.55.986,exp3,2022.2.2,
high_opac_v,0.01,1,0.01,3,0.82,3.5,0.01,0,0.01,4,5,Valid,1,72,213,start,lin,0.19617116159055803,0.19617116159055803,0.19617116159055803,0,True,,,,,,,,,,,,5,A,2023-08-31_12h01.55.986,exp3,2022.2.2,
low_opac_i,0.4,1,0.01,3,0.82,3.5,0.01,0,0.01,4,5,Invalid,2,72,214,start,lin,0.293096289145653,0.293096289145653,0.293096289145653,1,True,,,,,,,,,,,,5,A,2023-08-31_12h01.55.986,exp3,2022.2.2,
low_opac_v,0.4,1,0.01,3,0.82,3.5,0.01,0,0.01,4,5,Valid,0,72,215,start,lin,0.1770743639140756,0.1770743639140756,0.1770743639140756,1,True,,,,,,,,,,,,5,A,2023-08-31_12h01.55.986,exp3,2022.2.2,
high_opac_v,0.01,1,0.01,3,0.82,3.5,0.01,0,0.01,4,5,Valid,1,73,216,start,lin,0.20134681222051862,0,0.20134681222051862,1,True,,,,,,,,,,,,5,A,2023-08-31_12h01.55.986,exp3,2022.2.2,
low_opac_v,0.4,1,0.01,3,0.82,3.5,0.01,0,0.01,4,5,Valid,0,73,217,start,lin,0.1759497589791491,0,0.1759497589791491,1,True,,,,,,,,,,,,5,A,2023-08-31_12h01.55.986,exp3,2022.2.2,
low_opac_i,0.4,1,0.01,3,0.82,3.5,0.01,0,0.01,4,5,Invalid,2,73,218,start,lin,0.2893524535377341,0,0.2893524535377341,1,True,,,,,,,,,,,,5,A,2023-08-31_12h01.55.986,exp3,2022.2.2,
low_opac_i,0.4,1,0.01,3,0.82,3.5,0.01,0,0.01,4,5,Invalid,2,74,219,start,lin,0.2857181289184462,0.2857181289184462,0.2857181289184462,1,True,,,,,,,,,,,,5,A,2023-08-31_12h01.55.986,exp3,2022.2.2,
high_opac_v,0.01,1,0.01,3,0.82,3.5,0.01,0,0.01,4,5,Valid,1,74,220,start,lin,0.20012841980440277,0,0.20012841980440277,0,True,,,,,,,,,,,,5,A,2023-08-31_12h01.55.986,exp3,2022.2.2,
low_opac_v,0.4,1,0.01,3,0.82,3.5,0.01,0,0.01,4,5,Valid,0,74,221,start,lin,0.17485800048378486,0.17485800048378486,0.17485800048378486,1,True,,,,,,,,,,,,5,A,2023-08-31_12h01.55.986,exp3,2022.2.2,
high_opac_v,0.01,1,0.01,3,0.82,3.5,0.01,0,0.01,4,5,Valid,1,75,222,start,lin,0.2048955388883818,0,0.2048955388883818,1,True,,,,,,,,,,,,5,A,2023-08-31_12h01.55.986,exp3,2022.2.2,
low_opac_i,0.4,1,0.01,3,0.82,3.5,0.01,0,0.01,4,5,Invalid,2,75,223,start,lin,0.2822781768936708,0.2822781768936708,0.2822781768936708,1,True,,,,,,,,,,,,5,A,2023-08-31_12h01.55.986,exp3,2022.2.2,
low_opac_v,0.4,1,0.01,3,0.82,3.5,0.01,0,0.01,4,5,Valid,0,75,224,start,lin,0.17369498904296787,0.17369498904296787,0.17369498904296787,1,True,,,,,,,,,,,,5,A,2023-08-31_12h01.55.986,exp3,2022.2.2,
,,,,,,,,,,,,,,,,,,,,,,,0,-1158,Valid,signal,0,2,957.0324615999125,0,2.0,20.07943130005151,True,5,A,2023-08-31_12h01.55.986,exp3,2022.2.2,
,,,,,,,,,,,,,,,,,,,,,,,0,1158,Valid,noise,0,2,963.9918115998153,1,3.0,5.196285300189629,True,5,A,2023-08-31_12h01.55.986,exp3,2022.2.2,
,,,,,,,,,,,,,,,,,,,,,,,0,557,Valid,signal,0,2,969.4966021997388,0,3.0,3.4131626000162214,True,5,A,2023-08-31_12h01.55.986,exp3,2022.2.2,
,,,,,,,,,,,,,,,,,,,,,,,0,557,Valid,noise,0,2,973.5764894997701,1,4.0,3.0796006000600755,True,5,A,2023-08-31_12h01.55.986,exp3,2022.2.2,
,,,,,,,,,,,,,,,,,,,,,,,0,-2274,Invalid,signal,0,2,979.3677103999071,0,2.0,4.2969524001237005,True,5,A,2023-08-31_12h01.55.986,exp3,2022.2.2,
,,,,,,,,,,,,,,,,,,,,,,,0,2274,Valid,noise,0,2,984.8086894997396,1,1.0,4.730527600040659,True,5,A,2023-08-31_12h01.55.986,exp3,2022.2.2,
,,,,,,,,,,,,,,,,,,,,,,,0,-2274,Valid,signal,0,2,991.1918539998587,0,1.0,5.564046199899167,True,5,A,2023-08-31_12h01.55.986,exp3,2022.2.2,
,,,,,,,,,,,,,,,,,,,,,,,0,-1716,Valid,noise,0,2,996.4243373998906,1,3.0,4.013046100037172,True,5,A,2023-08-31_12h01.55.986,exp3,2022.2.2,
,,,,,,,,,,,,,,,,,,,,,,,0,1158,Valid,noise,0,2,1000.424545099726,1,3.0,2.8960722000338137,True,5,A,2023-08-31_12h01.55.986,exp3,2022.2.2,
,,,,,,,,,,,,,,,,,,,,,,,0,1716,Invalid,noise,0,2,1005.0479118998628,1,3.0,3.596578099997714,True,5,A,2023-08-31_12h01.55.986,exp3,2022.2.2,
,,,,,,,,,,,,,,,,,,,,,,,0,557,Valid,signal,0,1,1009.1922493998427,1,3.0,4.096953199943528,True,5,A,2023-08-31_12h01.55.986,exp3,2022.2.2,
,,,,,,,,,,,,,,,,,,,,,,,0,-2274,Valid,noise,0,2,1015.7526971998159,1,2.0,4.646469200029969,True,5,A,2023-08-31_12h01.55.986,exp3,2022.2.2,
,,,,,,,,,,,,,,,,,,,,,,,0,1158,Valid,signal,0,1,1019.5766578998882,1,4.0,2.6634267999324948,True,5,A,2023-08-31_12h01.55.986,exp3,2022.2.2,
,,,,,,,,,,,,,,,,,,,,,,,0,557,Valid,signal,0,1,1023.896139399847,1,3.0,3.7794506000354886,True,5,A,2023-08-31_12h01.55.986,exp3,2022.2.2,
,,,,,,,,,,,,,,,,,,,,,,,0,1716,Valid,noise,0,2,1028.7605309998617,1,2.0,3.7796208998188376,True,5,A,2023-08-31_12h01.55.986,exp3,2022.2.2,
,,,,,,,,,,,,,,,,,,,,,,,0,1158,Valid,noise,0,2,1033.6886969998013,1,3.0,3.463887899881229,True,5,A,2023-08-31_12h01.55.986,exp3,2022.2.2,
,,,,,,,,,,,,,,,,,,,,,,,0,-557,Valid,noise,0,2,1037.528898099903,1,4.0,3.6123705999925733,True,5,A,2023-08-31_12h01.55.986,exp3,2022.2.2,
,,,,,,,,,,,,,,,,,,,,,,,0,557,Valid,signal,0,1,1041.8969909998123,1,3.0,3.0132242999970913,True,5,A,2023-08-31_12h01.55.986,exp3,2022.2.2,
,,,,,,,,,,,,,,,,,,,,,,,0,1716,Valid,signal,0,1,1046.1848290998023,1,2.0,3.046721399994567,True,5,A,2023-08-31_12h01.55.986,exp3,2022.2.2,
,,,,,,,,,,,,,,,,,,,,,,,0,1716,Invalid,signal,0,1,1051.0316386998165,1,1.0,4.4630763998720795,True,5,A,2023-08-31_12h01.55.986,exp3,2022.2.2,
,,,,,,,,,,,,,,,,,,,,,,,0,557,Valid,noise,0,2,1057.4317241997924,1,4.0,4.730078000109643,True,5,A,2023-08-31_12h01.55.986,exp3,2022.2.2,
,,,,,,,,,,,,,,,,,,,,,,,0,1716,Valid,noise,0,2,1061.2082909997553,1,3.0,2.9633061999920756,True,5,A,2023-08-31_12h01.55.986,exp3,2022.2.2,
,,,,,,,,,,,,,,,,,,,,,,,0,1158,Invalid,signal,0,1,1065.6249666998629,1,3.0,4.113342100055888,True,5,A,2023-08-31_12h01.55.986,exp3,2022.2.2,
,,,,,,,,,,,,,,,,,,,,,,,0,-2274,Valid,signal,0,2,1072.0399217999075,0,1.0,4.847343900008127,True,5,A,2023-08-31_12h01.55.986,exp3,2022.2.2,
,,,,,,,,,,,,,,,,,,,,,,,0,-1716,Invalid,noise,0,1,1077.5763011998497,0,1.0,5.546962900087237,True,5,A,2023-08-31_12h01.55.986,exp3,2022.2.2,
,,,,,,,,,,,,,,,,,,,,,,,0,1158,Valid,signal,0,1,1083.193000299856,1,2.0,3.6964594000019133,True,5,A,2023-08-31_12h01.55.986,exp3,2022.2.2,
,,,,,,,,,,,,,,,,,,,,,,,0,1158,Invalid,signal,0,1,1087.6243920999113,1,3.0,3.1289548000786453,True,5,A,2023-08-31_12h01.55.986,exp3,2022.2.2,
,,,,,,,,,,,,,,,,,,,,,,,0,1716,Valid,signal,0,1,1091.7847703997977,1,2.0,2.8464406998828053,True,5,A,2023-08-31_12h01.55.986,exp3,2022.2.2,
,,,,,,,,,,,,,,,,,,,,,,,0,-1716,Valid,signal,0,2,1096.5358808997553,0,1.0,5.564300199970603,True,5,A,2023-08-31_12h01.55.986,exp3,2022.2.2,
,,,,,,,,,,,,,,,,,,,,,,,0,2274,Valid,noise,0,2,1102.2965226997621,1,1.0,3.2457181999925524,True,5,A,2023-08-31_12h01.55.986,exp3,2022.2.2,
,,,,,,,,,,,,,,,,,,,,,,,0,-1158,Valid,signal,0,1,1106.6489017999265,1,1.0,3.4136031998787075,True,5,A,2023-08-31_12h01.55.986,exp3,2022.2.2,
,,,,,,,,,,,,,,,,,,,,,,,0,-2274,Valid,signal,0,2,1111.9286723998375,0,1.0,5.297714299988002,True,5,A,2023-08-31_12h01.55.986,exp3,2022.2.2,
,,,,,,,,,,,,,,,,,,,,,,,0,-2274,Valid,signal,0,2,1117.7207264997996,0,1.0,3.9624938000924885,True,5,A,2023-08-31_12h01.55.986,exp3,2022.2.2,
,,,,,,,,,,,,,,,,,,,,,,,0,2274,Invalid,noise,0,2,1123.8489150998648,1,2.0,4.779865700053051,True,5,A,2023-08-31_12h01.55.986,exp3,2022.2.2,
,,,,,,,,,,,,,,,,,,,,,,,0,1158,Invalid,noise,0,2,1128.232697499916,1,2.0,3.330549799837172,True,5,A,2023-08-31_12h01.55.986,exp3,2022.2.2,
,,,,,,,,,,,,,,,,,,,,,,,0,-1716,Valid,noise,0,2,1132.3601930998266,1,2.0,3.196257800096646,True,5,A,2023-08-31_12h01.55.986,exp3,2022.2.2,
,,,,,,,,,,,,,,,,,,,,,,,0,2274,Valid,signal,0,2,1136.520880999742,0,2.0,3.3792035998776555,True,5,A,2023-08-31_12h01.55.986,exp3,2022.2.2,
,,,,,,,,,,,,,,,,,,,,,,,0,-2274,Valid,signal,0,2,1141.7203921996988,0,2.0,3.846328399842605,True,5,A,2023-08-31_12h01.55.986,exp3,2022.2.2,
,,,,,,,,,,,,,,,,,,,,,,,0,-1158,Valid,noise,0,2,1145.5277586998418,1,2.0,2.662809900008142,True,5,A,2023-08-31_12h01.55.986,exp3,2022.2.2,
,,,,,,,,,,,,,,,,,,,,,,,0,1158,Valid,signal,0,1,1149.1279516997747,1,2.0,3.8636292000301182,True,5,A,2023-08-31_12h01.55.986,exp3,2022.2.2,
,,,,,,,,,,,,,,,,,,,,,,,0,-557,Valid,noise,0,2,1154.1521107999142,1,4.0,3.2962892001960427,True,5,A,2023-08-31_12h01.55.986,exp3,2022.2.2,
,,,,,,,,,,,,,,,,,,,,,,,0,557,Valid,noise,0,2,1158.600884599844,1,4.0,4.146762800170109,True,5,A,2023-08-31_12h01.55.986,exp3,2022.2.2,
,,,,,,,,,,,,,,,,,,,,,,,0,-2274,Valid,noise,0,2,1163.6238235998899,1,4.0,3.196684000082314,True,5,A,2023-08-31_12h01.55.986,exp3,2022.2.2,
,,,,,,,,,,,,,,,,,,,,,,,0,-1716,Valid,signal,0,2,1170.1043587997556,0,3.0,5.413923899875954,True,5,A,2023-08-31_12h01.55.986,exp3,2022.2.2,
,,,,,,,,,,,,,,,,,,,,,,,0,2274,Valid,signal,0,1,1176.2155753998086,1,1.0,5.047266999958083,True,5,A,2023-08-31_12h01.55.986,exp3,2022.2.2,
,,,,,,,,,,,,,,,,,,,,,,,0,-1716,Valid,signal,0,1,1180.4727751999162,1,1.0,4.029714200180024,True,5,A,2023-08-31_12h01.55.986,exp3,2022.2.2,
,,,,,,,,,,,,,,,,,,,,,,,0,557,Invalid,signal,0,1,1186.0396069998387,1,2.0,4.247168800095096,True,5,A,2023-08-31_12h01.55.986,exp3,2022.2.2,
,,,,,,,,,,,,,,,,,,,,,,,0,1158,Valid,noise,0,2,1191.0955631998368,1,2.0,3.5461544001009315,True,5,A,2023-08-31_12h01.55.986,exp3,2022.2.2,
,,,,,,,,,,,,,,,,,,,,,,,0,-1158,Valid,noise,0,2,1195.1758489997592,1,2.0,3.1132431998848915,True,5,A,2023-08-31_12h01.55.986,exp3,2022.2.2,
,,,,,,,,,,,,,,,,,,,,,,,0,-557,Valid,signal,0,1,1199.095851799706,1,3.0,3.0790760000236332,True,5,A,2023-08-31_12h01.55.986,exp3,2022.2.2,
,,,,,,,,,,,,,,,,,,,,,,,0,557,Valid,signal,0,1,1204.1363274997566,1,3.0,3.9801616999320686,True,5,A,2023-08-31_12h01.55.986,exp3,2022.2.2,
,,,,,,,,,,,,,,,,,,,,,,,0,-1158,Valid,signal,0,1,1208.0723599998746,1,3.0,2.746764900162816,True,5,A,2023-08-31_12h01.55.986,exp3,2022.2.2,
,,,,,,,,,,,,,,,,,,,,,,,0,1716,Valid,signal,0,1,1213.7515009997878,1,2.0,5.379873999860138,True,5,A,2023-08-31_12h01.55.986,exp3,2022.2.2,
,,,,,,,,,,,,,,,,,,,,,,,0,-2274,Invalid,signal,0,1,1218.3283847998828,1,2.0,3.847106499830261,True,5,A,2023-08-31_12h01.55.986,exp3,2022.2.2,
,,,,,,,,,,,,,,,,,,,,,,,0,-557,Valid,signal,0,1,1224.1035681997892,1,3.0,4.096300499979407,True,5,A,2023-08-31_12h01.55.986,exp3,2022.2.2,
,,,,,,,,,,,,,,,,,,,,,,,0,-2274,Valid,noise,0,2,1228.935873299837,1,2.0,3.846471899887547,True,5,A,2023-08-31_12h01.55.986,exp3,2022.2.2,
,,,,,,,,,,,,,,,,,,,,,,,0,-2274,Valid,noise,0,1,1233.6404009999242,0,1.0,3.413817800115794,True,5,A,2023-08-31_12h01.55.986,exp3,2022.2.2,
,,,,,,,,,,,,,,,,,,,,,,,0,1716,Valid,signal,0,1,1237.4475029997993,1,2.0,3.0792007001582533,True,5,A,2023-08-31_12h01.55.986,exp3,2022.2.2,
,,,,,,,,,,,,,,,,,,,,,,,0,-1158,Valid,signal,0,1,1241.4482453998644,1,2.0,2.579571799840778,True,5,A,2023-08-31_12h01.55.986,exp3,2022.2.2,
,,,,,,,,,,,,,,,,,,,,,,,0,-1158,Valid,noise,0,2,1245.5122406997252,1,2.0,3.0628988998942077,True,5,A,2023-08-31_12h01.55.986,exp3,2022.2.2,
,,,,,,,,,,,,,,,,,,,,,,,0,-1716,Valid,noise,0,2,1249.2716203997843,1,2.0,2.746431500185281,True,5,A,2023-08-31_12h01.55.986,exp3,2022.2.2,
,,,,,,,,,,,,,,,,,,,,,,,0,-557,Invalid,noise,0,2,1253.1445902998094,1,4.0,3.212368099950254,True,5,A,2023-08-31_12h01.55.986,exp3,2022.2.2,
,,,,,,,,,,,,,,,,,,,,,,,0,-1716,Valid,signal,0,1,1257.575632999884,1,2.0,3.7465621000155807,True,5,A,2023-08-31_12h01.55.986,exp3,2022.2.2,
,,,,,,,,,,,,,,,,,,,,,,,0,-2274,Valid,noise,0,2,1265.432197699789,1,1.0,6.497872799867764,True,5,A,2023-08-31_12h01.55.986,exp3,2022.2.2,
,,,,,,,,,,,,,,,,,,,,,,,0,-557,Valid,signal,0,2,1269.4804034999106,0,1.0,3.1792826000601053,True,5,A,2023-08-31_12h01.55.986,exp3,2022.2.2,
,,,,,,,,,,,,,,,,,,,,,,,0,-1716,Valid,noise,0,2,1275.1760841999203,1,2.0,4.613615100039169,True,5,A,2023-08-31_12h01.55.986,exp3,2022.2.2,
,,,,,,,,,,,,,,,,,,,,,,,0,2274,Valid,signal,0,2,1279.9281361997128,0,2.0,3.3469851000700146,True,5,A,2023-08-31_12h01.55.986,exp3,2022.2.2,
,,,,,,,,,,,,,,,,,,,,,,,0,-2274,Invalid,noise,0,2,1287.7995265997015,1,2.0,6.797329399967566,True,5,A,2023-08-31_12h01.55.986,exp3,2022.2.2,
,,,,,,,,,,,,,,,,,,,,,,,0,1158,Valid,noise,0,2,1292.4403547998518,1,3.0,3.7802265000063926,True,5,A,2023-08-31_12h01.55.986,exp3,2022.2.2,
,,,,,,,,,,,,,,,,,,,,,,,0,1158,Valid,signal,0,1,1296.0882723997347,1,3.0,2.729413199936971,True,5,A,2023-08-31_12h01.55.986,exp3,2022.2.2,
,,,,,,,,,,,,,,,,,,,,,,,0,1158,Invalid,noise,0,2,1300.8882968998514,1,2.0,3.730055799940601,True,5,A,2023-08-31_12h01.55.986,exp3,2022.2.2,
,,,,,,,,,,,,,,,,,,,,,,,0,-557,Valid,noise,0,2,1304.647553499788,1,4.0,4.363189300056547,True,5,A,2023-08-31_12h01.55.986,exp3,2022.2.2,
,,,,,,,,,,,,,,,,,,,,,,,0,557,Valid,signal,0,1,1309.9288194999099,1,4.0,2.5963294999673963,True,5,A,2023-08-31_12h01.55.986,exp3,2022.2.2,
,,,,,,,,,,,,,,,,,,,,,,,0,557,Valid,noise,0,2,1313.688442699844,1,4.0,2.7461274000816047,True,5,A,2023-08-31_12h01.55.986,exp3,2022.2.2,
,,,,,,,,,,,,,,,,,,,,,,,0,557,Valid,noise,0,2,1317.2885418997612,1,4.0,2.8293681000359356,True,5,A,2023-08-31_12h01.55.986,exp3,2022.2.2,
,,,,,,,,,,,,,,,,,,,,,,,0,2274,Valid,noise,0,2,1321.4160705998074,1,3.0,3.263253399869427,True,5,A,2023-08-31_12h01.55.986,exp3,2022.2.2,
,,,,,,,,,,,,,,,,,,,,,,,0,2274,Invalid,noise,0,2,1326.216166799888,1,3.0,3.446290699997917,True,5,A,2023-08-31_12h01.55.986,exp3,2022.2.2,
,,,,,,,,,,,,,,,,,,,,,,,0,-1158,Valid,noise,0,2,1329.9440037999302,1,4.0,3.596857399912551,True,5,A,2023-08-31_12h01.55.986,exp3,2022.2.2,
,,,,,,,,,,,,,,,,,,,,,,,0,-1716,Invalid,signal,0,1,1334.840720999753,1,2.0,3.2464273998048156,True,5,A,2023-08-31_12h01.55.986,exp3,2022.2.2,
,,,,,,,,,,,,,,,,,,,,,,,0,1716,Valid,signal,0,1,1339.1438495998736,1,2.0,3.146400000201538,True,5,A,2023-08-31_12h01.55.986,exp3,2022.2.2,
,,,,,,,,,,,,,,,,,,,,,,,0,-557,Valid,signal,0,1,1343.0485482998192,1,3.0,2.9293974000029266,True,5,A,2023-08-31_12h01.55.986,exp3,2022.2.2,
,,,,,,,,,,,,,,,,,,,,,,,0,-1158,Valid,signal,0,1,1346.7275265997741,1,3.0,2.6290923999622464,True,5,A,2023-08-31_12h01.55.986,exp3,2022.2.2,
,,,,,,,,,,,,,,,,,,,,,,,0,-1158,Valid,noise,0,2,1351.992625199724,1,4.0,4.163683800026774,True,5,A,2023-08-31_12h01.55.986,exp3,2022.2.2,
,,,,,,,,,,,,,,,,,,,,,,,0,1716,Invalid,noise,0,2,1355.608665799722,1,2.0,3.4459985999856144,True,5,A,2023-08-31_12h01.55.986,exp3,2022.2.2,
,,,,,,,,,,,,,,,,,,,,,,,0,1158,Valid,noise,0,2,1360.3128633997403,1,3.0,3.029771599918604,True,5,A,2023-08-31_12h01.55.986,exp3,2022.2.2,
,,,,,,,,,,,,,,,,,,,,,,,0,-557,Invalid,signal,0,1,1364.2958109998144,1,3.0,3.0136160000693053,True,5,A,2023-08-31_12h01.55.986,exp3,2022.2.2,
,,,,,,,,,,,,,,,,,,,,,,,0,-1716,Valid,signal,0,1,1368.871790499892,1,1.0,3.729517800034955,True,5,A,2023-08-31_12h01.55.986,exp3,2022.2.2,
,,,,,,,,,,,,,,,,,,,,,,,0,557,Valid,signal,0,1,1372.7756015998311,1,3.0,2.5627637000288814,True,5,A,2023-08-31_12h01.55.986,exp3,2022.2.2,
,,,,,,,,,,,,,,,,,,,,,,,0,-1158,Invalid,noise,0,1,1378.0238972997759,0,2.0,4.497324700001627,True,5,A,2023-08-31_12h01.55.986,exp3,2022.2.2,
,,,,,,,,,,,,,,,,,,,,,,,0,-1716,Valid,noise,0,2,1382.8079897998832,1,3.0,3.595836899941787,True,5,A,2023-08-31_12h01.55.986,exp3,2022.2.2,
,,,,,,,,,,,,,,,,,,,,,,,0,-2274,Invalid,noise,0,1,1387.1437856997363,0,1.0,4.830192900029942,True,5,A,2023-08-31_12h01.55.986,exp3,2022.2.2,
,,,,,,,,,,,,,,,,,,,,,,,0,-557,Valid,noise,0,2,1392.4727783997077,1,4.0,3.580226399935782,True,5,A,2023-08-31_12h01.55.986,exp3,2022.2.2,
,,,,,,,,,,,,,,,,,,,,,,,0,-557,Valid,signal,0,1,1397.0316205997951,1,3.0,2.762301499955356,True,5,A,2023-08-31_12h01.55.986,exp3,2022.2.2,
,,,,,,,,,,,,,,,,,,,,,,,0,557,Invalid,signal,0,1,1400.9358158998657,1,3.0,2.9629728000145406,True,5,A,2023-08-31_12h01.55.986,exp3,2022.2.2,
,,,,,,,,,,,,,,,,,,,,,,,0,1716,Valid,signal,0,1,1404.8717245997395,1,2.0,2.913374900119379,True,5,A,2023-08-31_12h01.55.986,exp3,2022.2.2,
,,,,,,,,,,,,,,,,,,,,,,,0,1158,Valid,signal,0,1,1408.6318735997193,1,2.0,2.8627458000555634,True,5,A,2023-08-31_12h01.55.986,exp3,2022.2.2,
,,,,,,,,,,,,,,,,,,,,,,,0,557,Valid,noise,0,2,1417.0801083997358,1,4.0,8.347587999887764,True,5,A,2023-08-31_12h01.55.986,exp3,2022.2.2,
,,,,,,,,,,,,,,,,,,,,,,,0,-557,Valid,signal,0,1,1421.896326399874,1,3.0,3.030030000023544,True,5,A,2023-08-31_12h01.55.986,exp3,2022.2.2,
,,,,,,,,,,,,,,,,,,,,,,,0,-1716,Valid,signal,0,1,1425.8805863999296,1,2.0,3.2958982000127435,True,5,A,2023-08-31_12h01.55.986,exp3,2022.2.2,
,,,,,,,,,,,,,,,,,,,,,,,0,1716,Valid,signal,0,1,1430.3759236996993,1,2.0,2.879674799973145,True,5,A,2023-08-31_12h01.55.986,exp3,2022.2.2,
,,,,,,,,,,,,,,,,,,,,,,,0,-557,Valid,signal,0,1,1434.0724154997151,1,3.0,3.9963219999335706,True,5,A,2023-08-31_12h01.55.986,exp3,2022.2.2,
,,,,,,,,,,,,,,,,,,,,,,,0,-1158,Valid,signal,0,1,1439.047985999845,1,3.0,3.063487100182101,True,5,A,2023-08-31_12h01.55.986,exp3,2022.2.2,
,,,,,,,,,,,,,,,,,,,,,,,0,2274,Valid,signal,0,2,1444.3758565997705,0,1.0,4.129436400020495,True,5,A,2023-08-31_12h01.55.986,exp3,2022.2.2,
,,,,,,,,,,,,,,,,,,,,,,,0,-557,Valid,noise,0,2,1448.3287002998404,1,4.0,3.196577399969101,True,5,A,2023-08-31_12h01.55.986,exp3,2022.2.2,
,,,,,,,,,,,,,,,,,,,,,,,0,2274,Valid,signal,0,2,1455.0960467997938,0,1.0,5.430592100135982,True,5,A,2023-08-31_12h01.55.986,exp3,2022.2.2,
,,,,,,,,,,,,,,,,,,,,,,,0,1716,Valid,noise,0,2,1459.2079998997506,1,4.0,4.21415810007602,True,5,A,2023-08-31_12h01.55.986,exp3,2022.2.2,
,,,,,,,,,,,,,,,,,,,,,,,0,-1716,Valid,noise,0,2,1464.296356599778,1,4.0,2.9291064999997616,True,5,A,2023-08-31_12h01.55.986,exp3,2022.2.2,
,,,,,,,,,,,,,,,,,,,,,,,0,-1158,Invalid,signal,0,1,1468.1835011998191,1,3.0,3.246072999900207,True,5,A,2023-08-31_12h01.55.986,exp3,2022.2.2,
,,,,,,,,,,,,,,,,,,,,,,,0,2274,Valid,signal,0,2,1473.4167576998007,0,1.0,4.0136198999825865,True,5,A,2023-08-31_12h01.55.986,exp3,2022.2.2,
,,,,,,,,,,,,,,,,,,,,,,,0,1158,Valid,signal,0,1,1477.4003620997537,1,2.0,7.281065100105479,True,5,A,2023-08-31_12h01.55.986,exp3,2022.2.2,
,,,,,,,,,,,,,,,,,,,,,,,0,557,Valid,noise,0,1,1485.4647351999301,0,1.0,3.130071199964732,True,5,A,2023-08-31_12h01.55.986,exp3,2022.2.2,
,,,,,,,,,,,,,,,,,,,,,,,0,-1158,Valid,signal,0,1,1489.7683598997537,1,2.0,3.3462421998847276,True,5,A,2023-08-31_12h01.55.986,exp3,2022.2.2,
,,,,,,,,,,,,,,,,,,,,,,,0,1716,Valid,noise,0,2,1495.0153778998647,1,2.0,3.696684599854052,True,5,A,2023-08-31_12h01.55.986,exp3,2022.2.2,
,,,,,,,,,,,,,,,,,,,,,,,0,2274,Valid,noise,0,2,1499.7367261997424,1,1.0,3.8295165000017732,True,5,A,2023-08-31_12h01.55.986,exp3,2022.2.2,
,,,,,,,,,,,,,,,,,,,,,,,0,2274,Valid,signal,0,2,1503.976145999739,0,2.0,2.980171199887991,True,5,A,2023-08-31_12h01.55.986,exp3,2022.2.2,
,,,,,,,,,,,,,,,,,,,,,,,0,-2274,Valid,noise,0,1,1508.711934799794,0,1.0,4.096036900067702,True,5,A,2023-08-31_12h01.55.986,exp3,2022.2.2,
,,,,,,,,,,,,,,,,,,,,,,,0,-557,Valid,signal,0,1,1512.7754162997007,1,4.0,3.5970052001066506,True,5,A,2023-08-31_12h01.55.986,exp3,2022.2.2,
,,,,,,,,,,,,,,,,,,,,,,,0,1158,Valid,signal,0,1,1517.2555650998838,1,3.0,2.912607599981129,True,5,A,2023-08-31_12h01.55.986,exp3,2022.2.2,
,,,,,,,,,,,,,,,,,,,,,,,0,-1158,Valid,noise,0,2,1521.8322447997052,1,1.0,3.379672300070524,True,5,A,2023-08-31_12h01.55.986,exp3,2022.2.2,
,,,,,,,,,,,,,,,,,,,,,,,0,-1158,Valid,noise,0,2,1526.8564640998375,1,1.0,4.530767499934882,True,5,A,2023-08-31_12h01.55.986,exp3,2022.2.2,
,,,,,,,,,,,,,,,,,,,,,,,0,1158,Valid,noise,0,2,1531.3846885997336,1,3.0,3.812875100178644,True,5,A,2023-08-31_12h01.55.986,exp3,2022.2.2,
,,,,,,,,,,,,,,,,,,,,,,,0,2274,Valid,noise,0,2,1536.232003199868,1,3.0,3.17938069999218,True,5,A,2023-08-31_12h01.55.986,exp3,2022.2.2,
,,,,,,,,,,,,,,,,,,,,,,,0,-557,Valid,noise,0,2,1540.152475599898,1,3.0,3.0133531000465155,True,5,A,2023-08-31_12h01.55.986,exp3,2022.2.2,
,,,,,,,,,,,,,,,,,,,,,,,0,2274,Valid,signal,0,2,1544.392700499855,0,3.0,3.162614299915731,True,5,A,2023-08-31_12h01.55.986,exp3,2022.2.2,
,,,,,,,,,,,,,,,,,,,,,,,0,-1158,Invalid,signal,0,1,1548.6962915998884,1,3.0,3.329442600021139,True,5,A,2023-08-31_12h01.55.986,exp3,2022.2.2,
,,,,,,,,,,,,,,,,,,,,,,,0,1158,Valid,signal,0,1,1552.647334799869,1,3.0,2.930469000013545,True,5,A,2023-08-31_12h01.55.986,exp3,2022.2.2,
,,,,,,,,,,,,,,,,,,,,,,,0,-1716,Valid,signal,0,1,1557.3352947998792,1,2.0,4.746335500152782,True,5,A,2023-08-31_12h01.55.986,exp3,2022.2.2,
,,,,,,,,,,,,,,,,,,,,,,,0,-1158,Valid,signal,0,1,1562.2960491997655,1,3.0,2.729576100129634,True,5,A,2023-08-31_12h01.55.986,exp3,2022.2.2,
,,,,,,,,,,,,,,,,,,,,,,,0,1716,Valid,noise,0,2,1566.5357196999248,1,3.0,3.1298767998814583,True,5,A,2023-08-31_12h01.55.986,exp3,2022.2.2,
,,,,,,,,,,,,,,,,,,,,,,,0,1158,Valid,noise,0,1,1570.7602320997976,0,2.0,3.296214399859309,True,5,A,2023-08-31_12h01.55.986,exp3,2022.2.2,
,,,,,,,,,,,,,,,,,,,,,,,0,-2274,Valid,signal,0,2,1574.8242895998992,0,2.0,2.8465437998529524,True,5,A,2023-08-31_12h01.55.986,exp3,2022.2.2,
,,,,,,,,,,,,,,,,,,,,,,,0,2274,Valid,noise,0,2,1578.7446558997035,1,2.0,3.162480300059542,True,5,A,2023-08-31_12h01.55.986,exp3,2022.2.2,
,,,,,,,,,,,,,,,,,,,,,,,0,1716,Valid,noise,0,1,1582.855529999826,0,1.0,3.129854300059378,True,5,A,2023-08-31_12h01.55.986,exp3,2022.2.2,
,,,,,,,,,,,,,,,,,,,,,,,0,-1158,Invalid,noise,0,1,1587.784189999802,0,1.0,4.213128299918026,True,5,A,2023-08-31_12h01.55.986,exp3,2022.2.2,
,,,,,,,,,,,,,,,,,,,,,,,0,557,Invalid,noise,0,2,1592.4723516998347,1,4.0,3.5466418000869453,True,5,A,2023-08-31_12h01.55.986,exp3,2022.2.2,
,,,,,,,,,,,,,,,,,,,,,,,0,-557,Invalid,signal,0,1,1596.775546599878,1,4.0,3.1292884999420494,True,5,A,2023-08-31_12h01.55.986,exp3,2022.2.2,
,,,,,,,,,,,,,,,,,,,,,,,0,1716,Valid,noise,0,2,1600.9038696999196,1,3.0,3.529858099995181,True,5,A,2023-08-31_12h01.55.986,exp3,2022.2.2,
,,,,,,,,,,,,,,,,,,,,,,,0,1716,Valid,signal,0,1,1605.1755368998274,1,3.0,3.46310199983418,True,5,A,2023-08-31_12h01.55.986,exp3,2022.2.2,
,,,,,,,,,,,,,,,,,,,,,,,0,-2274,Valid,signal,0,2,1610.6324562998489,0,1.0,3.93031769990921,True,5,A,2023-08-31_12h01.55.986,exp3,2022.2.2,
,,,,,,,,,,,,,,,,,,,,,,,0,2274,Valid,signal,0,2,1614.7919494998641,0,2.0,2.878962399903685,True,5,A,2023-08-31_12h01.55.986,exp3,2022.2.2,
,,,,,,,,,,,,,,,,,,,,,,,0,-1716,Valid,noise,0,2,1618.6159106998239,1,2.0,2.913353699957952,True,5,A,2023-08-31_12h01.55.986,exp3,2022.2.2,
,,,,,,,,,,,,,,,,,,,,,,,0,-2274,Valid,noise,0,2,1622.6966037997045,1,1.0,3.245035900035873,True,5,A,2023-08-31_12h01.55.986,exp3,2022.2.2,
,,,,,,,,,,,,,,,,,,,,,,,0,-2274,Valid,noise,0,2,1627.3997628998477,1,1.0,3.380226199980825,True,5,A,2023-08-31_12h01.55.986,exp3,2022.2.2,
,,,,,,,,,,,,,,,,,,,,,,,0,557,Valid,signal,0,1,1631.175999699859,1,4.0,3.4130293000489473,True,5,A,2023-08-31_12h01.55.986,exp3,2022.2.2,
,,,,,,,,,,,,,,,,,,,,,,,0,-1716,Invalid,signal,0,1,1636.264779099729,1,2.0,3.579798199934885,True,5,A,2023-08-31_12h01.55.986,exp3,2022.2.2,
,,,,,,,,,,,,,,,,,,,,,,,0,557,Valid,signal,0,1,1639.9605269997846,1,3.0,4.480485699838027,True,5,A,2023-08-31_12h01.55.986,exp3,2022.2.2,
,,,,,,,,,,,,,,,,,,,,,,,0,-2274,Valid,noise,0,2,1645.7359625997487,1,2.0,2.9962226999923587,True,5,A,2023-08-31_12h01.55.986,exp3,2022.2.2,
,,,,,,,,,,,,,,,,,,,,,,,0,1716,Invalid,signal,0,2,1650.0875298997853,0,2.0,3.363519199891016,True,5,A,2023-08-31_12h01.55.986,exp3,2022.2.2,
,,,,,,,,,,,,,,,,,,,,,,,0,2274,Invalid,signal,0,2,1654.8238297998905,0,1.0,3.8465361001435667,True,5,A,2023-08-31_12h01.55.986,exp3,2022.2.2,
,,,,,,,,,,,,,,,,,,,,,,,0,-1716,Valid,signal,0,1,1659.544622299727,1,1.0,3.9296341999433935,True,5,A,2023-08-31_12h01.55.986,exp3,2022.2.2,
,,,,,,,,,,,,,,,,,,,,,,,0,2274,Valid,noise,0,2,1663.895909199724,1,2.0,2.962925599887967,True,5,A,2023-08-31_12h01.55.986,exp3,2022.2.2,
,,,,,,,,,,,,,,,,,,,,,,,0,1716,Valid,signal,0,1,1667.6877202999312,1,2.0,2.7464113000314683,True,5,A,2023-08-31_12h01.55.986,exp3,2022.2.2,
,,,,,,,,,,,,,,,,,,,,,,,0,-1716,Valid,signal,0,1,1671.7196156997234,1,3.0,3.129955800017342,True,5,A,2023-08-31_12h01.55.986,exp3,2022.2.2,
,,,,,,,,,,,,,,,,,,,,,,,0,-1716,Valid,noise,0,1,1675.8647307998035,0,1.0,3.1130204999353737,True,5,A,2023-08-31_12h01.55.986,exp3,2022.2.2,
,,,,,,,,,,,,,,,,,,,,,,,0,557,Invalid,noise,0,2,1679.9282794997562,1,4.0,3.028952799970284,True,5,A,2023-08-31_12h01.55.986,exp3,2022.2.2,
,,,,,,,,,,,,,,,,,,,,,,,0,-2274,Valid,signal,0,2,1683.6563451997936,0,2.0,2.979736699955538,True,5,A,2023-08-31_12h01.55.986,exp3,2022.2.2,
,,,,,,,,,,,,,,,,,,,,,,,0,557,Valid,noise,0,2,1687.8314336996991,1,4.0,4.746923099970445,True,5,A,2023-08-31_12h01.55.986,exp3,2022.2.2,
,,,,,,,,,,,,,,,,,,,,,,,0,557,Valid,noise,0,2,1693.271340899868,1,4.0,2.6124002998694777,True,5,A,2023-08-31_12h01.55.986,exp3,2022.2.2,
,,,,,,,,,,,,,,,,,,,,,,,0,1158,Valid,signal,0,1,1697.032039199723,1,3.0,4.09675920009613,True,5,A,2023-08-31_12h01.55.986,exp3,2022.2.2,
,,,,,,,,,,,,,,,,,,,,,,,0,-1158,Valid,noise,0,2,1702.1993163998704,1,4.0,2.8134443000890315,True,5,A,2023-08-31_12h01.55.986,exp3,2022.2.2,
,,,,,,,,,,,,,,,,,,,,,,,0,-557,Valid,noise,0,2,1706.1035602998454,1,4.0,2.979199199937284,True,5,A,2023-08-31_12h01.55.986,exp3,2022.2.2,
,,,,,,,,,,,,,,,,,,,,,,,0,-1158,Valid,signal,0,1,1709.992039699806,1,2.0,2.9962534999940544,True,5,A,2023-08-31_12h01.55.986,exp3,2022.2.2,
,,,,,,,,,,,,,,,,,,,,,,,0,-557,Invalid,noise,0,2,1714.151402699761,1,4.0,3.2960323998704553,True,5,A,2023-08-31_12h01.55.986,exp3,2022.2.2,
,,,,,,,,,,,,,,,,,,,,,,,0,-557,Valid,noise,0,2,1717.9915939997882,1,4.0,2.663461900083348,True,5,A,2023-08-31_12h01.55.986,exp3,2022.2.2,
,,,,,,,,,,,,,,,,,,,,,,,0,-1716,Invalid,noise,0,2,1722.6318855998106,1,2.0,3.7460328999441117,True,5,A,2023-08-31_12h01.55.986,exp3,2022.2.2,
,,,,,,,,,,,,,,,,,,,,,,,0,-2274,Valid,signal,0,2,1726.9673431997653,0,1.0,3.2799380000215024,True,5,A,2023-08-31_12h01.55.986,exp3,2022.2.2,
,,,,,,,,,,,,,,,,,,,,,,,0,2274,Invalid,signal,0,2,1731.5914273997769,0,1.0,3.4962615000549704,True,5,A,2023-08-31_12h01.55.986,exp3,2022.2.2,
,,,,,,,,,,,,,,,,,,,,,,,0,1158,Valid,noise,0,2,1735.4160252998117,1,2.0,2.5960197001695633,True,5,A,2023-08-31_12h01.55.986,exp3,2022.2.2,
,,,,,,,,,,,,,,,,,,,,,,,0,1716,Valid,noise,0,2,1738.9519407998305,1,2.0,2.645768300164491,True,5,A,2023-08-31_12h01.55.986,exp3,2022.2.2,
,,,,,,,,,,,,,,,,,,,,,,,0,2274,Valid,noise,0,2,1742.6797018998768,1,3.0,3.046767999883741,True,5,A,2023-08-31_12h01.55.986,exp3,2022.2.2,
,,,,,,,,,,,,,,,,,,,,,,,0,-1158,Valid,noise,0,2,1746.5522955998313,1,3.0,2.6122890000697225,True,5,A,2023-08-31_12h01.55.986,exp3,2022.2.2,
,,,,,,,,,,,,,,,,,,,,,,,0,2274,Valid,noise,0,2,1750.28001939971,1,3.0,2.6793573000468314,True,5,A,2023-08-31_12h01.55.986,exp3,2022.2.2,
,,,,,,,,,,,,,,,,,,,,,,,0,1716,Valid,noise,0,2,1753.736495199846,1,3.0,2.51300279982388,True,5,A,2023-08-31_12h01.55.986,exp3,2022.2.2,
,,,,,,,,,,,,,,,,,,,,,,,0,-557,Valid,signal,0,1,1757.6238036998548,1,3.0,2.8799102001357824,True,5,A,2023-08-31_12h01.55.986,exp3,2022.2.2,
,,,,,,,,,,,,,,,,,,,,,,,0,-1716,Valid,noise,0,1,1762.7117773997597,0,1.0,4.063825699966401,True,5,A,2023-08-31_12h01.55.986,exp3,2022.2.2,
,,,,,,,,,,,,,,,,,,,,,,,0,-557,Valid,noise,0,2,1766.3597465998027,1,4.0,3.1124104000627995,True,5,A,2023-08-31_12h01.55.986,exp3,2022.2.2,
,,,,,,,,,,,,,,,,,,,,,,,1,1158,Invalid,signal,0,1,1957.3682582997717,1,2.0,64.14672120008618,True,5,A,2023-08-31_12h01.55.986,exp3,2022.2.2,
,,,,,,,,,,,,,,,,,,,,,,,2,-1158,Valid,signal,0,1,1963.288211299805,1,2.0,3.529780500102788,True,5,A,2023-08-31_12h01.55.986,exp3,2022.2.2,
,,,,,,,,,,,,,,,,,,,,,,,3,2274,Valid,signal,0,2,1967.87931749993,0,2.0,3.2464965998660773,True,5,A,2023-08-31_12h01.55.986,exp3,2022.2.2,
,,,,,,,,,,,,,,,,,,,,,,,4,1158,Valid,noise,0,2,1972.007338399766,1,3.0,4.029710500035435,True,5,A,2023-08-31_12h01.55.986,exp3,2022.2.2,
,,,,,,,,,,,,,,,,,,,,,,,5,2274,Valid,noise,0,2,1977.2402551998384,1,1.0,3.4299647000152618,True,5,A,2023-08-31_12h01.55.986,exp3,2022.2.2,
,,,,,,,,,,,,,,,,,,,,,,,6,-1716,Valid,signal,0,1,1981.400210299762,1,2.0,3.646792800165713,True,5,A,2023-08-31_12h01.55.986,exp3,2022.2.2,
,,,,,,,,,,,,,,,,,,,,,,,7,1716,Invalid,signal,0,1,1986.5513458997011,1,2.0,5.280742299975827,True,5,A,2023-08-31_12h01.55.986,exp3,2022.2.2,
,,,,,,,,,,,,,,,,,,,,,,,8,1158,Valid,noise,0,1,1992.7920106998645,0,1.0,4.262716800207272,True,5,A,2023-08-31_12h01.55.986,exp3,2022.2.2,
,,,,,,,,,,,,,,,,,,,,,,,9,1158,Valid,signal,0,1,1997.5431654998101,1,2.0,2.6293575998861343,True,5,A,2023-08-31_12h01.55.986,exp3,2022.2.2,
,,,,,,,,,,,,,,,,,,,,,,,10,-2274,Valid,noise,0,2,2001.5271868999116,1,2.0,2.9629077001009136,True,5,A,2023-08-31_12h01.55.986,exp3,2022.2.2,
,,,,,,,,,,,,,,,,,,,,,,,11,557,Valid,noise,0,2,2005.3515642997809,1,3.0,3.1134004001505673,True,5,A,2023-08-31_12h01.55.986,exp3,2022.2.2,
,,,,,,,,,,,,,,,,,,,,,,,12,1716,Invalid,noise,0,2,2009.6242039997596,1,1.0,4.096387499943376,True,5,A,2023-08-31_12h01.55.986,exp3,2022.2.2,
,,,,,,,,,,,,,,,,,,,,,,,13,557,Valid,signal,0,1,2014.4391780998558,1,4.0,3.346586000174284,True,5,A,2023-08-31_12h01.55.986,exp3,2022.2.2,
,,,,,,,,,,,,,,,,,,,,,,,14,557,Valid,signal,0,1,2018.9519247997086,1,4.0,2.74648050009273,True,5,A,2023-08-31_12h01.55.986,exp3,2022.2.2,
,,,,,,,,,,,,,,,,,,,,,,,15,-1158,Valid,noise,0,2,2022.9352217998821,1,3.0,3.1128243000712246,True,5,A,2023-08-31_12h01.55.986,exp3,2022.2.2,
,,,,,,,,,,,,,,,,,,,,,,,16,-557,Valid,signal,0,1,2026.5994512997568,1,3.0,2.696380899986252,True,5,A,2023-08-31_12h01.55.986,exp3,2022.2.2,
,,,,,,,,,,,,,,,,,,,,,,,17,-557,Valid,noise,0,2,2030.5998649997637,1,3.0,2.863526500063017,True,5,A,2023-08-31_12h01.55.986,exp3,2022.2.2,
,,,,,,,,,,,,,,,,,,,,,,,18,-2274,Valid,noise,0,2,2034.2958353997674,1,3.0,2.6623094000387937,True,5,A,2023-08-31_12h01.55.986,exp3,2022.2.2,
,,,,,,,,,,,,,,,,,,,,,,,19,557,Valid,noise,0,2,2039.5438297998626,1,4.0,4.380090799881145,True,5,A,2023-08-31_12h01.55.986,exp3,2022.2.2,
,,,,,,,,,,,,,,,,,,,,,,,20,557,Valid,signal,0,1,2043.3362956997007,1,3.0,2.846091700019315,True,5,A,2023-08-31_12h01.55.986,exp3,2022.2.2,
,,,,,,,,,,,,,,,,,,,,,,,21,-2274,Valid,noise,0,1,2047.607559299795,0,1.0,5.680590300122276,True,5,A,2023-08-31_12h01.55.986,exp3,2022.2.2,
,,,,,,,,,,,,,,,,,,,,,,,22,1716,Valid,signal,0,1,2054.087177099893,1,1.0,2.9132716001477093,True,5,A,2023-08-31_12h01.55.986,exp3,2022.2.2,
,,,,,,,,,,,,,,,,,,,,,,,23,-2274,Valid,signal,0,1,2061.0004383998457,1,1.0,5.614189399871975,True,5,A,2023-08-31_12h01.55.986,exp3,2022.2.2,
,,,,,,,,,,,,,,,,,,,,,,,24,1158,Valid,noise,0,1,2064.4392462999094,0,1.0,2.96280450001359,True,5,A,2023-08-31_12h01.55.986,exp3,2022.2.2,
,,,,,,,,,,,,,,,,,,,,,,,25,-557,Valid,signal,0,1,2068.3595941998065,1,3.0,2.9291717000305653,True,5,A,2023-08-31_12h01.55.986,exp3,2022.2.2,
,,,,,,,,,,,,,,,,,,,,,,,26,-557,Valid,signal,0,1,2072.3116592997685,1,3.0,2.896667700028047,True,5,A,2023-08-31_12h01.55.986,exp3,2022.2.2,
,,,,,,,,,,,,,,,,,,,,,,,27,1158,Valid,signal,0,1,2076.184498099843,1,3.0,2.512643799884245,True,5,A,2023-08-31_12h01.55.986,exp3,2022.2.2,
,,,,,,,,,,,,,,,,,,,,,,,28,1158,Invalid,signal,0,1,2080.0871659999248,1,2.0,3.696694999933243,True,5,A,2023-08-31_12h01.55.986,exp3,2022.2.2,
,,,,,,,,,,,,,,,,,,,,,,,29,-557,Valid,noise,0,2,2084.3271922997665,1,4.0,2.8464704998768866,True,5,A,2023-08-31_12h01.55.986,exp3,2022.2.2,
,,,,,,,,,,,,,,,,,,,,,,,30,-557,Valid,noise,0,2,2088.2313472998794,1,4.0,2.6294615999795496,True,5,A,2023-08-31_12h01.55.986,exp3,2022.2.2,
,,,,,,,,,,,,,,,,,,,,,,,31,2274,Valid,signal,0,2,2091.9753850998823,0,4.0,2.7295657999347895,True,5,A,2023-08-31_12h01.55.986,exp3,2022.2.2,
,,,,,,,,,,,,,,,,,,,,,,,32,-1158,Valid,signal,0,1,2095.559730099747,1,3.0,2.7631510000210255,True,5,A,2023-08-31_12h01.55.986,exp3,2022.2.2,
,,,,,,,,,,,,,,,,,,,,,,,33,-557,Valid,signal,0,1,2099.207677999744,1,3.0,2.5287152000237256,True,5,A,2023-08-31_12h01.55.986,exp3,2022.2.2,
,,,,,,,,,,,,,,,,,,,,,,,34,2274,Valid,signal,0,2,2103.2393648999278,0,2.0,3.0131349000148475,True,5,A,2023-08-31_12h01.55.986,exp3,2022.2.2,
,,,,,,,,,,,,,,,,,,,,,,,35,2274,Valid,signal,0,2,2107.015492099803,0,2.0,2.5463672999758273,True,5,A,2023-08-31_12h01.55.986,exp3,2022.2.2,
,,,,,,,,,,,,,,,,,,,,,,,36,-1158,Valid,noise,0,1,2110.6792020997964,0,2.0,2.6629403000697494,True,5,A,2023-08-31_12h01.55.986,exp3,2022.2.2,
,,,,,,,,,,,,,,,,,,,,,,,37,-2274,Invalid,signal,0,2,2115.687666799873,0,1.0,7.764117900049314,True,5,A,2023-08-31_12h01.55.986,exp3,2022.2.2,
,,,,,,,,,,,,,,,,,,,,,,,38,-1158,Valid,noise,0,2,2122.968429699773,1,3.0,2.4796435001771897,True,5,A,2023-08-31_12h01.55.986,exp3,2022.2.2,
,,,,,,,,,,,,,,,,,,,,,,,39,-1716,Valid,noise,0,2,2126.359815799864,1,3.0,2.5630200000014156,True,5,A,2023-08-31_12h01.55.986,exp3,2022.2.2,
,,,,,,,,,,,,,,,,,,,,,,,40,-557,Invalid,noise,0,2,2129.9120527997147,1,3.0,3.0293258000165224,True,5,A,2023-08-31_12h01.55.986,exp3,2022.2.2,
,,,,,,,,,,,,,,,,,,,,,,,41,-557,Valid,noise,0,2,2133.9763931997586,1,4.0,2.596233199816197,True,5,A,2023-08-31_12h01.55.986,exp3,2022.2.2,
,,,,,,,,,,,,,,,,,,,,,,,42,1158,Invalid,noise,0,2,2137.5912223998457,1,3.0,2.8298961999826133,True,5,A,2023-08-31_12h01.55.986,exp3,2022.2.2,
,,,,,,,,,,,,,,,,,,,,,,,43,1716,Valid,noise,0,2,2141.3037158998195,1,3.0,2.529585300013423,True,5,A,2023-08-31_12h01.55.986,exp3,2022.2.2,
,,,,,,,,,,,,,,,,,,,,,,,44,1716,Valid,noise,0,2,2144.919855799759,1,3.0,2.3629276000428945,True,5,A,2023-08-31_12h01.55.986,exp3,2022.2.2,
,,,,,,,,,,,,,,,,,,,,,,,45,-557,Invalid,noise,0,2,2148.1997285997495,1,4.0,2.345579700078815,True,5,A,2023-08-31_12h01.55.986,exp3,2022.2.2,
,,,,,,,,,,,,,,,,,,,,,,,46,1158,Valid,noise,0,2,2151.5764155997895,1,4.0,2.5465609000530094,True,5,A,2023-08-31_12h01.55.986,exp3,2022.2.2,
,,,,,,,,,,,,,,,,,,,,,,,47,2274,Invalid,noise,0,2,2155.1118795997463,1,3.0,2.3952967999503016,True,5,A,2023-08-31_12h01.55.986,exp3,2022.2.2,
,,,,,,,,,,,,,,,,,,,,,,,48,557,Valid,noise,0,2,2158.5521772997454,1,4.0,3.462989600142464,True,5,A,2023-08-31_12h01.55.986,exp3,2022.2.2,
,,,,,,,,,,,,,,,,,,,,,,,49,2274,Valid,noise,0,2,2163.0322672997136,1,4.0,2.6136849001049995,True,5,A,2023-08-31_12h01.55.986,exp3,2022.2.2,
,,,,,,,,,,,,,,,,,,,,,,,50,557,Valid,signal,0,1,2168.3443935997784,1,2.0,4.529678200138733,True,5,A,2023-08-31_12h01.55.986,exp3,2022.2.2,
,,,,,,,,,,,,,,,,,,,,,,,51,1716,Valid,noise,0,2,2173.7521680998616,1,2.0,4.6967015999834985,True,5,A,2023-08-31_12h01.55.986,exp3,2022.2.2,
,,,,,,,,,,,,,,,,,,,,,,,52,2274,Valid,noise,0,2,2179.256454899907,1,2.0,3.696795399999246,True,5,A,2023-08-31_12h01.55.986,exp3,2022.2.2,
,,,,,,,,,,,,,,,,,,,,,,,53,1716,Valid,signal,0,1,2182.8403367998544,1,2.0,2.5628560001496226,True,5,A,2023-08-31_12h01.55.986,exp3,2022.2.2,
,,,,,,,,,,,,,,,,,,,,,,,54,1716,Valid,noise,0,2,2186.6633850997314,1,3.0,3.0963080001529306,True,5,A,2023-08-31_12h01.55.986,exp3,2022.2.2,
,,,,,,,,,,,,,,,,,,,,,,,55,1716,Valid,signal,0,1,2190.5192269997206,1,3.0,2.346148599870503,True,5,A,2023-08-31_12h01.55.986,exp3,2022.2.2,
,,,,,,,,,,,,,,,,,,,,,,,56,-1158,Invalid,noise,0,2,2195.2878168998286,1,2.0,4.397251300048083,True,5,A,2023-08-31_12h01.55.986,exp3,2022.2.2,
,,,,,,,,,,,,,,,,,,,,,,,57,-557,Valid,signal,0,1,2199.207235899754,1,3.0,3.1797048998996615,True,5,A,2023-08-31_12h01.55.986,exp3,2022.2.2,
,,,,,,,,,,,,,,,,,,,,,,,58,1716,Valid,signal,0,1,2203.383984899847,1,3.0,2.2455207998864353,True,5,A,2023-08-31_12h01.55.986,exp3,2022.2.2,
,,,,,,,,,,,,,,,,,,,,,,,59,1158,Valid,noise,0,2,2206.9030653997324,1,3.0,2.5294933000113815,True,5,A,2023-08-31_12h01.55.986,exp3,2022.2.2,
,,,,,,,,,,,,,,,,,,,,,,,60,2274,Valid,noise,0,2,2212.1360384998843,1,1.0,5.147281900048256,True,5,A,2023-08-31_12h01.55.986,exp3,2022.2.2,
,,,,,,,,,,,,,,,,,,,,,,,61,557,Valid,signal,0,1,2216.4072195996996,1,2.0,3.462819900130853,True,5,A,2023-08-31_12h01.55.986,exp3,2022.2.2,
,,,,,,,,,,,,,,,,,,,,,,,62,-557,Valid,noise,0,2,2220.824135299772,1,4.0,3.0802394000347704,True,5,A,2023-08-31_12h01.55.986,exp3,2022.2.2,
,,,,,,,,,,,,,,,,,,,,,,,63,-1716,Valid,signal,0,1,2224.9831067998894,1,2.0,2.9462694998364896,True,5,A,2023-08-31_12h01.55.986,exp3,2022.2.2,
,,,,,,,,,,,,,,,,,,,,,,,64,-557,Valid,signal,0,1,2228.695234899875,1,1.0,2.4955561000388116,True,5,A,2023-08-31_12h01.55.986,exp3,2022.2.2,
,,,,,,,,,,,,,,,,,,,,,,,65,1158,Invalid,noise,0,2,2232.8069871996995,1,1.0,3.4133909998927265,True,5,A,2023-08-31_12h01.55.986,exp3,2022.2.2,
,,,,,,,,,,,,,,,,,,,,,,,66,-2274,Valid,signal,0,2,2236.71131269983,0,1.0,2.796268800040707,True,5,A,2023-08-31_12h01.55.986,exp3,2022.2.2,
,,,,,,,,,,,,,,,,,,,,,,,67,557,Valid,noise,0,2,2240.280151799787,1,4.0,2.913081099977717,True,5,A,2023-08-31_12h01.55.986,exp3,2022.2.2,
,,,,,,,,,,,,,,,,,,,,,,,68,1716,Invalid,signal,0,1,2245.2071449998766,1,1.0,4.763031499926001,True,5,A,2023-08-31_12h01.55.986,exp3,2022.2.2,
,,,,,,,,,,,,,,,,,,,,,,,69,2274,Valid,signal,0,1,2250.4881039997563,1,1.0,7.731576499994844,True,5,A,2023-08-31_12h01.55.986,exp3,2022.2.2,
,,,,,,,,,,,,,,,,,,,,,,,70,2274,Invalid,signal,0,1,2259.2558292998,1,1.0,3.3467127999756485,True,5,A,2023-08-31_12h01.55.986,exp3,2022.2.2,
,,,,,,,,,,,,,,,,,,,,,,,71,1716,Valid,noise,0,1,2263.191478599794,0,1.0,3.7629019001033157,True,5,A,2023-08-31_12h01.55.986,exp3,2022.2.2,
,,,,,,,,,,,,,,,,,,,,,,,72,-557,Valid,noise,0,2,2268.1202119998634,1,4.0,3.0968306998256594,True,5,A,2023-08-31_12h01.55.986,exp3,2022.2.2,
,,,,,,,,,,,,,,,,,,,,,,,73,-1158,Valid,noise,0,2,2272.167084499728,1,4.0,2.812578000128269,True,5,A,2023-08-31_12h01.55.986,exp3,2022.2.2,
,,,,,,,,,,,,,,,,,,,,,,,74,-1716,Valid,noise,0,2,2275.800355399726,1,3.0,2.562368999933824,True,5,A,2023-08-31_12h01.55.986,exp3,2022.2.2,
,,,,,,,,,,,,,,,,,,,,,,,75,-557,Valid,signal,0,1,2279.6718354998156,1,1.0,2.896706399973482,True,5,A,2023-08-31_12h01.55.986,exp3,2022.2.2,
,,,,,,,,,,,,,,,,,,,,,,,76,-1716,Invalid,signal,0,1,2283.5602661997546,1,1.0,2.7796509999316186,True,5,A,2023-08-31_12h01.55.986,exp3,2022.2.2,
,,,,,,,,,,,,,,,,,,,,,,,77,557,Invalid,signal,0,1,2287.5756606997456,1,3.0,3.295788000104949,True,5,A,2023-08-31_12h01.55.986,exp3,2022.2.2,
,,,,,,,,,,,,,,,,,,,,,,,78,1716,Invalid,noise,0,2,2292.135031199781,1,1.0,3.0799298000056297,True,5,A,2023-08-31_12h01.55.986,exp3,2022.2.2,
,,,,,,,,,,,,,,,,,,,,,,,79,1716,Valid,noise,0,2,2295.7195775997825,1,2.0,3.1464289999566972,True,5,A,2023-08-31_12h01.55.986,exp3,2022.2.2,
,,,,,,,,,,,,,,,,,,,,,,,80,-2274,Valid,signal,0,2,2299.9436233998276,0,2.0,3.1132511000614613,True,5,A,2023-08-31_12h01.55.986,exp3,2022.2.2,
,,,,,,,,,,,,,,,,,,,,,,,81,-1716,Valid,signal,0,1,2304.0556199997663,1,2.0,2.8625057998578995,True,5,A,2023-08-31_12h01.55.986,exp3,2022.2.2,
,,,,,,,,,,,,,,,,,,,,,,,82,557,Valid,noise,0,2,2307.703161599813,1,4.0,3.7802406998816878,True,5,A,2023-08-31_12h01.55.986,exp3,2022.2.2,
,,,,,,,,,,,,,,,,,,,,,,,83,2274,Valid,signal,0,2,2312.6000175997615,0,3.0,2.946318299975246,True,5,A,2023-08-31_12h01.55.986,exp3,2022.2.2,
,,,,,,,,,,,,,,,,,,,,,,,84,2274,Valid,noise,0,2,2316.4236326997634,1,3.0,2.629252600017935,True,5,A,2023-08-31_12h01.55.986,exp3,2022.2.2,
,,,,,,,,,,,,,,,,,,,,,,,85,557,Valid,signal,0,1,2320.2148769998457,1,1.0,2.5958806998096406,True,5,A,2023-08-31_12h01.55.986,exp3,2022.2.2,
,,,,,,,,,,,,,,,,,,,,,,,86,-2274,Invalid,noise,0,1,2324.8719898997806,0,2.0,4.229994100052863,True,5,A,2023-08-31_12h01.55.986,exp3,2022.2.2,
,,,,,,,,,,,,,,,,,,,,,,,87,-1158,Invalid,signal,0,1,2328.968296499923,1,3.0,2.9299595998600125,True,5,A,2023-08-31_12h01.55.986,exp3,2022.2.2,
,,,,,,,,,,,,,,,,,,,,,,,88,2274,Valid,signal,0,1,2333.160102599766,1,2.0,5.063684399938211,True,5,A,2023-08-31_12h01.55.986,exp3,2022.2.2,
,,,,,,,,,,,,,,,,,,,,,,,89,-2274,Valid,signal,0,1,2339.2871205997653,1,1.0,3.446597300004214,True,5,A,2023-08-31_12h01.55.986,exp3,2022.2.2,
,,,,,,,,,,,,,,,,,,,,,,,90,2274,Valid,noise,0,1,2347.768342899857,0,1.0,7.681758900173008,True,5,A,2023-08-31_12h01.55.986,exp3,2022.2.2,
,,,,,,,,,,,,,,,,,,,,,,,91,-1158,Valid,signal,0,1,2352.2155276997946,1,3.0,3.462581400061026,True,5,A,2023-08-31_12h01.55.986,exp3,2022.2.2,
,,,,,,,,,,,,,,,,,,,,,,,92,-2274,Invalid,signal,0,2,2357.1442827999126,0,1.0,3.763123999815434,True,5,A,2023-08-31_12h01.55.986,exp3,2022.2.2,
,,,,,,,,,,,,,,,,,,,,,,,93,-1158,Valid,noise,0,1,2361.6876901998185,0,1.0,3.1797904998529702,True,5,A,2023-08-31_12h01.55.986,exp3,2022.2.2,
,,,,,,,,,,,,,,,,,,,,,,,94,1716,Valid,noise,0,2,2365.575856699841,1,2.0,2.9295355000067502,True,5,A,2023-08-31_12h01.55.986,exp3,2022.2.2,
,,,,,,,,,,,,,,,,,,,,,,,95,-1158,Invalid,noise,0,2,2369.7520444998518,1,2.0,3.0803264998830855,True,5,A,2023-08-31_12h01.55.986,exp3,2022.2.2,
,,,,,,,,,,,,,,,,,,,,,,,96,1716,Valid,noise,0,2,2373.65531249973,1,1.0,3.1293683000840247,True,5,A,2023-08-31_12h01.55.986,exp3,2022.2.2,
,,,,,,,,,,,,,,,,,,,,,,,97,1158,Valid,signal,0,1,2377.7997658997774,1,1.0,2.9126917000394315,True,5,A,2023-08-31_12h01.55.986,exp3,2022.2.2,
,,,,,,,,,,,,,,,,,,,,,,,98,-2274,Valid,noise,0,1,2387.8639318998903,0,1.0,9.115531699964777,True,5,A,2023-08-31_12h01.55.986,exp3,2022.2.2,
,,,,,,,,,,,,,,,,,,,,,,,99,-2274,Valid,noise,0,1,2391.783866699785,0,1.0,2.896162600023672,True,5,A,2023-08-31_12h01.55.986,exp3,2022.2.2,
,,,,,,,,,,,,,,,,,,,,,,,100,-557,Valid,signal,0,1,2395.478875099914,1,1.0,2.7464637998491526,True,5,A,2023-08-31_12h01.55.986,exp3,2022.2.2,
,,,,,,,,,,,,,,,,,,,,,,,101,1716,Valid,signal,0,1,2399.384209099924,1,2.0,3.1462906999513507,True,5,A,2023-08-31_12h01.55.986,exp3,2022.2.2,
,,,,,,,,,,,,,,,,,,,,,,,102,1158,Valid,noise,0,2,2403.7196405997965,1,2.0,3.646534999832511,True,5,A,2023-08-31_12h01.55.986,exp3,2022.2.2,
,,,,,,,,,,,,,,,,,,,,,,,103,1158,Valid,signal,0,1,2408.1674591999035,1,3.0,2.5961309999693185,True,5,A,2023-08-31_12h01.55.986,exp3,2022.2.2,
,,,,,,,,,,,,,,,,,,,,,,,104,-557,Invalid,signal,0,1,2411.959900399903,1,2.0,4.180380800040439,True,5,A,2023-08-31_12h01.55.986,exp3,2022.2.2,
,,,,,,,,,,,,,,,,,,,,,,,105,-1158,Valid,signal,0,1,2418.4398412997834,1,3.0,5.213688800111413,True,5,A,2023-08-31_12h01.55.986,exp3,2022.2.2,
,,,,,,,,,,,,,,,,,,,,,,,106,2274,Valid,noise,0,2,2423.4309689998627,1,2.0,3.5458903000690043,True,5,A,2023-08-31_12h01.55.986,exp3,2022.2.2,
,,,,,,,,,,,,,,,,,,,,,,,107,-2274,Valid,signal,0,1,2427.9756149998866,1,1.0,3.2635207001585513,True,5,A,2023-08-31_12h01.55.986,exp3,2022.2.2,
,,,,,,,,,,,,,,,,,,,,,,,108,1716,Valid,signal,0,1,2433.799316099845,1,2.0,5.197389199864119,True,5,A,2023-08-31_12h01.55.986,exp3,2022.2.2,
,,,,,,,,,,,,,,,,,,,,,,,109,-1716,Valid,signal,0,1,2439.5913107998203,1,1.0,4.396105600055307,True,5,A,2023-08-31_12h01.55.986,exp3,2022.2.2,
,,,,,,,,,,,,,,,,,,,,,,,110,557,Valid,noise,0,2,2443.735848299926,1,4.0,3.0796942999586463,True,5,A,2023-08-31_12h01.55.986,exp3,2022.2.2,
,,,,,,,,,,,,,,,,,,,,,,,111,2274,Valid,signal,0,2,2448.6475772997364,0,1.0,3.646314200013876,True,5,A,2023-08-31_12h01.55.986,exp3,2022.2.2,
,,,,,,,,,,,,,,,,,,,,,,,112,-1158,Valid,noise,0,2,2452.4712855997495,1,3.0,3.329866399988532,True,5,A,2023-08-31_12h01.55.986,exp3,2022.2.2,
,,,,,,,,,,,,,,,,,,,,,,,113,-1716,Valid,signal,0,2,2457.8470645998605,0,1.0,4.080316100036725,True,5,A,2023-08-31_12h01.55.986,exp3,2022.2.2,
,,,,,,,,,,,,,,,,,,,,,,,114,1158,Valid,noise,0,2,2461.831882599741,1,3.0,6.14741380000487,True,5,A,2023-08-31_12h01.55.986,exp3,2022.2.2,
,,,,,,,,,,,,,,,,,,,,,,,115,557,Valid,signal,0,1,2470.616318799788,1,2.0,5.364126999862492,True,5,A,2023-08-31_12h01.55.986,exp3,2022.2.2,
,,,,,,,,,,,,,,,,,,,,,,,116,-1716,Valid,signal,0,1,2475.607321599731,1,2.0,3.1791811001021415,True,5,A,2023-08-31_12h01.55.986,exp3,2022.2.2,
,,,,,,,,,,,,,,,,,,,,,,,117,1716,Valid,signal,0,1,2479.415162399877,1,2.0,2.8462982999626547,True,5,A,2023-08-31_12h01.55.986,exp3,2022.2.2,
,,,,,,,,,,,,,,,,,,,,,,,118,-1158,Valid,noise,0,1,2484.2314594998024,0,2.0,7.631491599837318,True,5,A,2023-08-31_12h01.55.986,exp3,2022.2.2,
,,,,,,,,,,,,,,,,,,,,,,,119,-2274,Valid,signal,0,1,2494.7762871999294,1,1.0,5.413705200189725,True,5,A,2023-08-31_12h01.55.986,exp3,2022.2.2,
,,,,,,,,,,,,,,,,,,,,,,,120,-1158,Valid,signal,0,1,2498.2322625997476,1,3.0,2.896443400066346,True,5,A,2023-08-31_12h01.55.986,exp3,2022.2.2,
,,,,,,,,,,,,,,,,,,,,,,,121,557,Valid,signal,0,1,2502.2795233998913,1,3.0,2.345968300011009,True,5,A,2023-08-31_12h01.55.986,exp3,2022.2.2,
,,,,,,,,,,,,,,,,,,,,,,,122,-557,Valid,signal,0,1,2505.496116799768,1,3.0,2.162924100179225,True,5,A,2023-08-31_12h01.55.986,exp3,2022.2.2,
,,,,,,,,,,,,,,,,,,,,,,,123,-1716,Invalid,signal,0,1,2508.7589529997203,1,3.0,2.229253599885851,True,5,A,2023-08-31_12h01.55.986,exp3,2022.2.2,
,,,,,,,,,,,,,,,,,,,,,,,124,1158,Valid,signal,0,1,2511.9109302998986,1,3.0,2.129311600001529,True,5,A,2023-08-31_12h01.55.986,exp3,2022.2.2,
,,,,,,,,,,,,,,,,,,,,,,,125,1158,Valid,signal,0,1,2515.1109224997927,1,3.0,2.1963402999099344,True,5,A,2023-08-31_12h01.55.986,exp3,2022.2.2,
,,,,,,,,,,,,,,,,,,,,,,,126,-1158,Valid,signal,0,1,2518.247004899895,1,3.0,2.1123744999058545,True,5,A,2023-08-31_12h01.55.986,exp3,2022.2.2,
,,,,,,,,,,,,,,,,,,,,,,,127,-1716,Valid,noise,0,2,2521.6234194997232,1,3.0,2.479243600042537,True,5,A,2023-08-31_12h01.55.986,exp3,2022.2.2,
,,,,,,,,,,,,,,,,,,,,,,,128,-2274,Invalid,noise,0,2,2525.8963102998678,1,1.0,3.4635647998657078,True,5,A,2023-08-31_12h01.55.986,exp3,2022.2.2,
,,,,,,,,,,,,,,,,,,,,,,,129,-1716,Valid,signal,0,1,2529.751734599704,1,3.0,2.8625864000059664,True,5,A,2023-08-31_12h01.55.986,exp3,2022.2.2,
,,,,,,,,,,,,,,,,,,,,,,,130,2274,Valid,noise,0,2,2533.591921399813,1,2.0,2.8964468999765813,True,5,A,2023-08-31_12h01.55.986,exp3,2022.2.2,
,,,,,,,,,,,,,,,,,,,,,,,131,-1158,Valid,signal,0,1,2537.2389471998904,1,2.0,2.629256200045347,True,5,A,2023-08-31_12h01.55.986,exp3,2022.2.2,
,,,,,,,,,,,,,,,,,,,,,,,132,-2274,Valid,noise,0,2,2540.9190976999234,1,1.0,2.729441700037569,True,5,A,2023-08-31_12h01.55.986,exp3,2022.2.2,
,,,,,,,,,,,,,,,,,,,,,,,133,-557,Valid,noise,0,2,2544.375475999899,1,4.0,2.8130318000912666,True,5,A,2023-08-31_12h01.55.986,exp3,2022.2.2,
,,,,,,,,,,,,,,,,,,,,,,,134,1158,Valid,signal,0,1,2548.4393695998006,1,3.0,2.5963994001504034,True,5,A,2023-08-31_12h01.55.986,exp3,2022.2.2,
,,,,,,,,,,,,,,,,,,,,,,,135,-2274,Valid,signal,0,2,2552.2955648999196,0,3.0,2.7625924998428673,True,5,A,2023-08-31_12h01.55.986,exp3,2022.2.2,
,,,,,,,,,,,,,,,,,,,,,,,136,-1716,Valid,signal,0,2,2555.799040999729,0,3.0,2.412389399949461,True,5,A,2023-08-31_12h01.55.986,exp3,2022.2.2,
,,,,,,,,,,,,,,,,,,,,,,,137,-1716,Valid,noise,0,2,2559.3362275997642,1,3.0,2.8291870998218656,True,5,A,2023-08-31_12h01.55.986,exp3,2022.2.2,
,,,,,,,,,,,,,,,,,,,,,,,138,557,Valid,noise,0,2,2562.8868896998465,1,3.0,2.529848200036213,True,5,A,2023-08-31_12h01.55.986,exp3,2022.2.2,
,,,,,,,,,,,,,,,,,,,,,,,139,557,Valid,noise,0,2,2566.488216999918,1,3.0,2.379026899812743,True,5,A,2023-08-31_12h01.55.986,exp3,2022.2.2,
,,,,,,,,,,,,,,,,,,,,,,,140,-1158,Valid,noise,0,2,2570.295612699818,1,3.0,3.763265199959278,True,5,A,2023-08-31_12h01.55.986,exp3,2022.2.2,
,,,,,,,,,,,,,,,,,,,,,,,141,-1158,Valid,signal,0,1,2574.7440528997686,1,3.0,2.4459098000079393,True,5,A,2023-08-31_12h01.55.986,exp3,2022.2.2,
,,,,,,,,,,,,,,,,,,,,,,,142,-2274,Valid,noise,0,2,2578.359675299842,1,3.0,2.613019100157544,True,5,A,2023-08-31_12h01.55.986,exp3,2022.2.2,
,,,,,,,,,,,,,,,,,,,,,,,143,-1716,Valid,noise,0,2,2581.9118691997137,1,3.0,2.8126833999995142,True,5,A,2023-08-31_12h01.55.986,exp3,2022.2.2,
,,,,,,,,,,,,,,,,,,,,,,,144,1158,Valid,signal,0,1,2585.607757799793,1,3.0,2.34686559997499,True,5,A,2023-08-31_12h01.55.986,exp3,2022.2.2,
,,,,,,,,,,,,,,,,,,,,,,,145,-557,Valid,noise,0,2,2588.616154599702,1,4.0,2.295310900080949,True,5,A,2023-08-31_12h01.55.986,exp3,2022.2.2,
,,,,,,,,,,,,,,,,,,,,,,,146,1158,Valid,noise,0,2,2592.3117222997826,1,4.0,2.6132004000246525,True,5,A,2023-08-31_12h01.55.986,exp3,2022.2.2,
,,,,,,,,,,,,,,,,,,,,,,,147,-2274,Valid,signal,0,2,2595.8469951997977,0,2.0,2.529005300020799,True,5,A,2023-08-31_12h01.55.986,exp3,2022.2.2,
,,,,,,,,,,,,,,,,,,,,,,,148,-1158,Invalid,signal,0,1,2599.5593326997478,1,3.0,2.62972900015302,True,5,A,2023-08-31_12h01.55.986,exp3,2022.2.2,
,,,,,,,,,,,,,,,,,,,,,,,149,2274,Valid,noise,0,1,2602.9514384998474,0,1.0,5.196943199960515,True,5,A,2023-08-31_12h01.55.986,exp3,2022.2.2,
,,,,,,,,,,,,,,,,,,,,,,,150,-2274,Valid,noise,0,2,2611.2068772998173,1,3.0,4.53007259988226,True,5,A,2023-08-31_12h01.55.986,exp3,2022.2.2,
,,,,,,,,,,,,,,,,,,,,,,,151,-1716,Valid,noise,0,2,2614.951477599796,1,3.0,2.59600119991228,True,5,A,2023-08-31_12h01.55.986,exp3,2022.2.2,
,,,,,,,,,,,,,,,,,,,,,,,152,557,Valid,noise,0,2,2618.374954199884,1,4.0,2.779837899841368,True,5,A,2023-08-31_12h01.55.986,exp3,2022.2.2,
,,,,,,,,,,,,,,,,,,,,,,,153,-2274,Valid,noise,0,2,2622.359197499929,1,3.0,2.679159700172022,True,5,A,2023-08-31_12h01.55.986,exp3,2022.2.2,
,,,,,,,,,,,,,,,,,,,,,,,154,557,Valid,signal,0,1,2626.1028033997864,1,3.0,2.712856800062582,True,5,A,2023-08-31_12h01.55.986,exp3,2022.2.2,
,,,,,,,,,,,,,,,,,,,,,,,155,-1158,Valid,signal,0,1,2630.0556887998246,1,3.0,2.87985200015828,True,5,A,2023-08-31_12h01.55.986,exp3,2022.2.2,
,,,,,,,,,,,,,,,,,,,,,,,156,-1716,Invalid,noise,0,1,2633.9107545998413,0,3.0,2.7627614000812173,True,5,A,2023-08-31_12h01.55.986,exp3,2022.2.2,
,,,,,,,,,,,,,,,,,,,,,,,157,-1716,Valid,signal,0,1,2637.3518773997203,1,3.0,2.3793097999878228,True,5,A,2023-08-31_12h01.55.986,exp3,2022.2.2,
,,,,,,,,,,,,,,,,,,,,,,,158,557,Invalid,signal,0,1,2640.9029818999115,1,3.0,2.513105500023812,True,5,A,2023-08-31_12h01.55.986,exp3,2022.2.2,
,,,,,,,,,,,,,,,,,,,,,,,159,-1716,Invalid,noise,0,2,2644.8876686997246,1,2.0,3.513273000018671,True,5,A,2023-08-31_12h01.55.986,exp3,2022.2.2,
,,,,,,,,,,,,,,,,,,,,,,,160,-1716,Valid,noise,0,2,2648.647932799766,1,3.0,2.4291912999469787,True,5,A,2023-08-31_12h01.55.986,exp3,2022.2.2,
,,,,,,,,,,,,,,,,,,,,,,,161,-557,Invalid,signal,0,1,2652.182868699776,1,4.0,2.863343099830672,True,5,A,2023-08-31_12h01.55.986,exp3,2022.2.2,
,,,,,,,,,,,,,,,,,,,,,,,162,-1158,Valid,noise,0,2,2656.5032412998844,1,2.0,2.9791027000173926,True,5,A,2023-08-31_12h01.55.986,exp3,2022.2.2,
,,,,,,,,,,,,,,,,,,,,,,,163,-2274,Valid,signal,0,2,2660.007238799706,0,2.0,2.5293001998215914,True,5,A,2023-08-31_12h01.55.986,exp3,2022.2.2,
,,,,,,,,,,,,,,,,,,,,,,,164,1716,Valid,signal,0,1,2663.5911565998103,1,2.0,2.5458007000852376,True,5,A,2023-08-31_12h01.55.986,exp3,2022.2.2,
,,,,,,,,,,,,,,,,,,,,,,,165,-1716,Valid,noise,0,2,2667.4792225998826,1,2.0,2.762677599908784,True,5,A,2023-08-31_12h01.55.986,exp3,2022.2.2,
,,,,,,,,,,,,,,,,,,,,,,,166,557,Invalid,noise,0,2,2671.1909127999097,1,4.0,3.7965510999783874,True,5,A,2023-08-31_12h01.55.986,exp3,2022.2.2,
,,,,,,,,,,,,,,,,,,,,,,,167,557,Invalid,noise,0,2,2676.166758299805,1,4.0,3.129727100022137,True,5,A,2023-08-31_12h01.55.986,exp3,2022.2.2,
,,,,,,,,,,,,,,,,,,,,,,,168,-557,Valid,noise,0,2,2679.8000083998777,1,4.0,2.6962488999124616,True,5,A,2023-08-31_12h01.55.986,exp3,2022.2.2,
,,,,,,,,,,,,,,,,,,,,,,,169,2274,Valid,signal,0,2,2683.5587727997918,0,4.0,4.096718499902636,True,5,A,2023-08-31_12h01.55.986,exp3,2022.2.2,
,,,,,,,,,,,,,,,,,,,,,,,170,-1716,Valid,noise,0,2,2688.391666199779,1,3.0,2.2626925001386553,True,5,A,2023-08-31_12h01.55.986,exp3,2022.2.2,
,,,,,,,,,,,,,,,,,,,,,,,171,2274,Invalid,signal,0,2,2691.943733899854,0,2.0,2.796549800084904,True,5,A,2023-08-31_12h01.55.986,exp3,2022.2.2,
,,,,,,,,,,,,,,,,,,,,,,,172,1716,Valid,signal,0,1,2695.7039349998813,1,2.0,2.6626575000118464,True,5,A,2023-08-31_12h01.55.986,exp3,2022.2.2,
,,,,,,,,,,,,,,,,,,,,,,,173,1158,Valid,signal,0,1,2699.2552283997647,1,3.0,2.412654799874872,True,5,A,2023-08-31_12h01.55.986,exp3,2022.2.2,
,,,,,,,,,,,,,,,,,,,,,,,174,1158,Valid,noise,0,2,2702.7277121997904,1,3.0,2.429189399816096,True,5,A,2023-08-31_12h01.55.986,exp3,2022.2.2,
,,,,,,,,,,,,,,,,,,,,,,,175,2274,Invalid,noise,0,2,2706.5200780997984,1,2.0,3.896546000149101,True,5,A,2023-08-31_12h01.55.986,exp3,2022.2.2,
,,,,,,,,,,,,,,,,,,,,,,,176,1716,Valid,noise,0,2,2713.159627699759,1,2.0,4.596684300107881,True,5,A,2023-08-31_12h01.55.986,exp3,2022.2.2,
,,,,,,,,,,,,,,,,,,,,,,,2,1716,Valid,noise,0,1,2841.0466765998863,0,1.0,6.555340100079775,True,5,A,2023-08-31_12h01.55.986,exp3,2022.2.2,
,,,,,,,,,,,,,,,,,,,,,,,4,-1716,Invalid,signal,0,1,2846.2637079998385,1,2.0,3.7636021999642253,True,5,A,2023-08-31_12h01.55.986,exp3,2022.2.2,
,,,,,,,,,,,,,,,,,,,,,,,6,-1158,Valid,signal,0,1,2850.887614299776,1,3.0,2.679054700070992,True,5,A,2023-08-31_12h01.55.986,exp3,2022.2.2,
,,,,,,,,,,,,,,,,,,,,,,,8,-1716,Valid,signal,0,1,2854.4712524998467,1,3.0,2.595718099968508,True,5,A,2023-08-31_12h01.55.986,exp3,2022.2.2,
,,,,,,,,,,,,,,,,,,,,,,,10,1716,Valid,signal,0,1,2858.118907299824,1,3.0,2.7628321000374854,True,5,A,2023-08-31_12h01.55.986,exp3,2022.2.2,
,,,,,,,,,,,,,,,,,,,,,,,12,-1716,Valid,noise,0,2,2862.214952599723,1,2.0,2.729569199960679,True,5,A,2023-08-31_12h01.55.986,exp3,2022.2.2,
,,,,,,,,,,,,,,,,,,,,,,,14,2274,Invalid,noise,0,2,2866.022598199779,1,2.0,6.430432099848986,True,5,A,2023-08-31_12h01.55.986,exp3,2022.2.2,
,,,,,,,,,,,,,,,,,,,,,,,16,1158,Valid,signal,0,1,2872.902636299841,1,2.0,2.395851799985394,True,5,A,2023-08-31_12h01.55.986,exp3,2022.2.2,
,,,,,,,,,,,,,,,,,,,,,,,18,-2274,Valid,noise,0,1,2877.495569099905,0,3.0,3.7968133001122624,True,5,A,2023-08-31_12h01.55.986,exp3,2022.2.2,
,,,,,,,,,,,,,,,,,,,,,,,20,-2274,Valid,signal,0,2,2881.6716784997843,0,1.0,3.446457600221038,True,5,A,2023-08-31_12h01.55.986,exp3,2022.2.2,
,,,,,,,,,,,,,,,,,,,,,,,22,-557,Invalid,signal,0,1,2886.071753599914,1,3.0,5.080487800063565,True,5,A,2023-08-31_12h01.55.986,exp3,2022.2.2,
,,,,,,,,,,,,,,,,,,,,,,,24,-557,Invalid,noise,0,2,2891.6880752998404,1,4.0,2.362647500121966,True,5,A,2023-08-31_12h01.55.986,exp3,2022.2.2,
,,,,,,,,,,,,,,,,,,,,,,,26,1158,Valid,noise,0,2,2894.920104299905,1,4.0,2.3958349998574704,True,5,A,2023-08-31_12h01.55.986,exp3,2022.2.2,
,,,,,,,,,,,,,,,,,,,,,,,28,-1716,Valid,signal,0,1,2898.7749668997712,1,2.0,2.779918699990958,True,5,A,2023-08-31_12h01.55.986,exp3,2022.2.2,
,,,,,,,,,,,,,,,,,,,,,,,30,-1158,Valid,signal,0,1,2902.3119652997702,1,2.0,2.946267999941483,True,5,A,2023-08-31_12h01.55.986,exp3,2022.2.2,
,,,,,,,,,,,,,,,,,,,,,,,32,557,Valid,noise,0,2,2906.1355198998936,1,4.0,2.6632920000702143,True,5,A,2023-08-31_12h01.55.986,exp3,2022.2.2,
,,,,,,,,,,,,,,,,,,,,,,,34,1716,Valid,noise,0,2,2909.8799965998624,1,3.0,4.279703000094742,True,5,A,2023-08-31_12h01.55.986,exp3,2022.2.2,
,,,,,,,,,,,,,,,,,,,,,,,36,-1716,Valid,noise,0,2,2915.5919657999184,1,1.0,2.796008500037715,True,5,A,2023-08-31_12h01.55.986,exp3,2022.2.2,
,,,,,,,,,,,,,,,,,,,,,,,38,1716,Valid,noise,0,2,2918.951501699863,1,3.0,2.2619892999064177,True,5,A,2023-08-31_12h01.55.986,exp3,2022.2.2,
,,,,,,,,,,,,,,,,,,,,,,,40,-1716,Valid,signal,0,1,2922.598910899833,1,2.0,2.5459360000677407,True,5,A,2023-08-31_12h01.55.986,exp3,2022.2.2,
,,,,,,,,,,,,,,,,,,,,,,,42,-557,Valid,noise,0,2,2925.6872635998297,1,4.0,2.2630441000219434,True,5,A,2023-08-31_12h01.55.986,exp3,2022.2.2,
,,,,,,,,,,,,,,,,,,,,,,,44,2274,Valid,signal,0,2,2929.239923799876,0,1.0,2.6460770999547094,True,5,A,2023-08-31_12h01.55.986,exp3,2022.2.2,
,,,,,,,,,,,,,,,,,,,,,,,46,-1158,Valid,signal,0,1,2932.886959799798,1,2.0,2.563152200076729,True,5,A,2023-08-31_12h01.55.986,exp3,2022.2.2,
,,,,,,,,,,,,,,,,,,,,,,,48,-557,Valid,signal,0,1,2936.2468559998088,1,1.0,2.3627326998393983,True,5,A,2023-08-31_12h01.55.986,exp3,2022.2.2,
,,,,,,,,,,,,,,,,,,,,,,,50,2274,Valid,signal,0,2,2939.975910199806,0,2.0,2.5960270001087338,True,5,A,2023-08-31_12h01.55.986,exp3,2022.2.2,
,,,,,,,,,,,,,,,,,,,,,,,52,2274,Valid,signal,0,2,2943.255811699899,0,2.0,2.2627588000614196,True,5,A,2023-08-31_12h01.55.986,exp3,2022.2.2,
,,,,,,,,,,,,,,,,,,,,,,,54,1716,Valid,signal,0,1,2946.518653499894,1,2.0,2.262444300111383,True,5,A,2023-08-31_12h01.55.986,exp3,2022.2.2,
,,,,,,,,,,,,,,,,,,,,,,,56,557,Valid,noise,0,2,2949.8956040998455,1,4.0,2.8470734001602978,True,5,A,2023-08-31_12h01.55.986,exp3,2022.2.2,
,,,,,,,,,,,,,,,,,,,,,,,58,1158,Valid,signal,0,1,2953.670832599746,1,2.0,2.378521400038153,True,5,A,2023-08-31_12h01.55.986,exp3,2022.2.2,
,,,,,,,,,,,,,,,,,,,,,,,60,2274,Valid,signal,0,1,2957.4146762997843,1,3.0,2.913089199922979,True,5,A,2023-08-31_12h01.55.986,exp3,2022.2.2,
,,,,,,,,,,,,,,,,,,,,,,,62,-1158,Valid,noise,0,2,2961.287108699791,1,3.0,2.5628764999564737,True,5,A,2023-08-31_12h01.55.986,exp3,2022.2.2,
,,,,,,,,,,,,,,,,,,,,,,,64,-557,Valid,signal,0,1,2966.7274542998057,1,3.0,4.679848399944603,True,5,A,2023-08-31_12h01.55.986,exp3,2022.2.2,
,,,,,,,,,,,,,,,,,,,,,,,66,-2274,Invalid,signal,0,2,2970.343116299715,0,2.0,2.37980019999668,True,5,A,2023-08-31_12h01.55.986,exp3,2022.2.2,
,,,,,,,,,,,,,,,,,,,,,,,68,557,Valid,noise,0,2,2973.5112416998018,1,4.0,3.396608700044453,True,5,A,2023-08-31_12h01.55.986,exp3,2022.2.2,
,,,,,,,,,,,,,,,,,,,,,,,70,1716,Valid,signal,0,1,2978.0554882998113,1,3.0,2.328910700045526,True,5,A,2023-08-31_12h01.55.986,exp3,2022.2.2,
,,,,,,,,,,,,,,,,,,,,,,,72,1716,Valid,noise,0,1,2981.334932599915,0,1.0,3.029540100134909,True,5,A,2023-08-31_12h01.55.986,exp3,2022.2.2,
,,,,,,,,,,,,,,,,,,,,,,,74,-1158,Valid,noise,0,2,2985.5111262998544,1,3.0,2.562682299874723,True,5,A,2023-08-31_12h01.55.986,exp3,2022.2.2,
,,,,,,,,,,,,,,,,,,,,,,,76,557,Valid,signal,0,1,2988.93486939976,1,3.0,2.362562899943441,True,5,A,2023-08-31_12h01.55.986,exp3,2022.2.2,
,,,,,,,,,,,,,,,,,,,,,,,78,-1158,Valid,signal,0,1,2992.2476867998485,1,3.0,2.2460775999352336,True,5,A,2023-08-31_12h01.55.986,exp3,2022.2.2,
,,,,,,,,,,,,,,,,,,,,,,,80,1158,Valid,noise,0,2,2995.655997299822,1,3.0,3.346471400000155,True,5,A,2023-08-31_12h01.55.986,exp3,2022.2.2,
,,,,,,,,,,,,,,,,,,,,,,,82,557,Valid,signal,0,1,2999.8791060997173,1,3.0,2.579941000090912,True,5,A,2023-08-31_12h01.55.986,exp3,2022.2.2,
,,,,,,,,,,,,,,,,,,,,,,,84,-2274,Valid,noise,0,2,3003.6549897997174,1,2.0,2.479425000026822,True,5,A,2023-08-31_12h01.55.986,exp3,2022.2.2,
,,,,,,,,,,,,,,,,,,,,,,,86,-1716,Valid,signal,0,1,3007.111759999767,1,2.0,2.4122448000125587,True,5,A,2023-08-31_12h01.55.986,exp3,2022.2.2,
,,,,,,,,,,,,,,,,,,,,,,,88,2274,Invalid,signal,0,2,3010.519574599806,0,2.0,2.6798739000223577,True,5,A,2023-08-31_12h01.55.986,exp3,2022.2.2,
,,,,,,,,,,,,,,,,,,,,,,,90,1158,Valid,signal,0,1,3014.023857699707,1,3.0,2.2618825000245124,True,5,A,2023-08-31_12h01.55.986,exp3,2022.2.2,
,,,,,,,,,,,,,,,,,,,,,,,92,-2274,Valid,signal,0,2,3017.4793754997663,0,2.0,3.3632185999304056,True,5,A,2023-08-31_12h01.55.986,exp3,2022.2.2,
,,,,,,,,,,,,,,,,,,,,,,,94,-2274,Valid,signal,0,2,3022.0868115997873,0,2.0,3.2629553999286145,True,5,A,2023-08-31_12h01.55.986,exp3,2022.2.2,
,,,,,,,,,,,,,,,,,,,,,,,96,-557,Valid,noise,0,2,3025.9271498997696,1,4.0,2.2463821000419557,True,5,A,2023-08-31_12h01.55.986,exp3,2022.2.2,
,,,,,,,,,,,,,,,,,,,,,,,98,557,Valid,signal,0,1,3029.254650299903,1,4.0,2.1788699000608176,True,5,A,2023-08-31_12h01.55.986,exp3,2022.2.2,
,,,,,,,,,,,,,,,,,,,,,,,100,2274,Valid,noise,0,2,3034.58333089971,1,4.0,4.3300951002165675,True,5,A,2023-08-31_12h01.55.986,exp3,2022.2.2,
,,,,,,,,,,,,,,,,,,,,,,,102,1158,Invalid,signal,0,1,3039.879121699836,1,3.0,4.696751200128347,True,5,A,2023-08-31_12h01.55.986,exp3,2022.2.2,
,,,,,,,,,,,,,,,,,,,,,,,104,2274,Valid,noise,0,2,3043.6556371997576,1,3.0,2.3628238001838326,True,5,A,2023-08-31_12h01.55.986,exp3,2022.2.2,
,,,,,,,,,,,,,,,,,,,,,,,106,-557,Valid,noise,0,2,3046.8078520998824,1,3.0,2.096154399914667,True,5,A,2023-08-31_12h01.55.986,exp3,2022.2.2,
,,,,,,,,,,,,,,,,,,,,,,,108,-557,Invalid,noise,0,2,3049.7194839997683,1,4.0,3.379765700083226,True,5,A,2023-08-31_12h01.55.986,exp3,2022.2.2,
,,,,,,,,,,,,,,,,,,,,,,,110,2274,Invalid,signal,0,2,3054.3269908998627,0,1.0,2.896200800081715,True,5,A,2023-08-31_12h01.55.986,exp3,2022.2.2,
,,,,,,,,,,,,,,,,,,,,,,,112,1158,Valid,noise,0,2,3058.1995011998806,1,2.0,2.4463645999785513,True,5,A,2023-08-31_12h01.55.986,exp3,2022.2.2,
,,,,,,,,,,,,,,,,,,,,,,,114,2274,Valid,noise,0,2,3061.847455599811,1,2.0,2.429057599976659,True,5,A,2023-08-31_12h01.55.986,exp3,2022.2.2,
,,,,,,,,,,,,,,,,,,,,,,,116,2274,Valid,signal,0,2,3065.0469231999014,0,3.0,2.7465790999121964,True,5,A,2023-08-31_12h01.55.986,exp3,2022.2.2,
,,,,,,,,,,,,,,,,,,,,,,,118,-1158,Invalid,noise,0,2,3069.5270802997984,1,2.0,3.0631186000537127,True,5,A,2023-08-31_12h01.55.986,exp3,2022.2.2,
,,,,,,,,,,,,,,,,,,,,,,,120,-557,Valid,signal,0,1,3072.9512705998495,1,2.0,2.39606950012967,True,5,A,2023-08-31_12h01.55.986,exp3,2022.2.2,
,,,,,,,,,,,,,,,,,,,,,,,122,557,Valid,signal,0,1,3076.278980799718,1,3.0,2.562593000009656,True,5,A,2023-08-31_12h01.55.986,exp3,2022.2.2,
,,,,,,,,,,,,,,,,,,,,,,,124,-2274,Valid,signal,0,2,3080.007490999764,0,1.0,2.5294790999032557,True,5,A,2023-08-31_12h01.55.986,exp3,2022.2.2,
,,,,,,,,,,,,,,,,,,,,,,,126,-1716,Valid,noise,0,2,3083.4789305997547,1,2.0,2.429329300066456,True,5,A,2023-08-31_12h01.55.986,exp3,2022.2.2,
,,,,,,,,,,,,,,,,,,,,,,,128,1716,Valid,noise,0,2,3086.871288899798,1,2.0,2.3126499000936747,True,5,A,2023-08-31_12h01.55.986,exp3,2022.2.2,
,,,,,,,,,,,,,,,,,,,,,,,130,-2274,Valid,noise,0,2,3090.1508410999086,1,2.0,2.3130246999207884,True,5,A,2023-08-31_12h01.55.986,exp3,2022.2.2,
,,,,,,,,,,,,,,,,,,,,,,,132,2274,Valid,signal,0,2,3093.382620799821,0,2.0,2.229001299943775,True,5,A,2023-08-31_12h01.55.986,exp3,2022.2.2,
,,,,,,,,,,,,,,,,,,,,,,,134,-557,Valid,noise,0,2,3096.4551849998534,1,4.0,2.529484399827197,True,5,A,2023-08-31_12h01.55.986,exp3,2022.2.2,
