trials.label,trials.startVal,trials.maxVal,trials.minVal,trials.startValSd,trials.pthreshold,trials.beta,trials.delta,trials.gamma,trials.grain,trials.stepSize,trials.range,trials.cue,trials.thisIndex,trials.thisRepN,trials.thisN,trials.direction,trials.stepType,trials.intensity,signalOpacity,level,trials.response,stair_eye_ok,nTrial,position,validity,Stimulus,orientation,response_key,response_rt,response_correct,confidence,confidence_rt,curr_trial_rep,eye_ok,participant,session,date,expName,psychopyVersion,
low_opac_v,0.4,1,0.01,3,0.82,3.5,0.01,0,0.01,4,5,Valid,0,1,0,start,lin,0.4,0,0.4,0,True,,,,,,,,,,,,,10,A,2023-09-07_12h38.44.386,exp3,2022.2.2,
low_opac_i,0.4,1,0.01,3,0.82,3.5,0.01,0,0.01,4,5,Invalid,2,1,1,start,lin,0.4,0,0.4,0,True,,,,,,,,,,,,,10,A,2023-09-07_12h38.44.386,exp3,2022.2.2,
high_opac_v,0.01,1,0.01,3,0.82,3.5,0.01,0,0.01,4,5,Valid,1,1,2,start,lin,0.01,0.01,0.01,0,True,,,,,,,,,,,,,10,A,2023-09-07_12h38.44.386,exp3,2022.2.2,
low_opac_i,0.4,1,0.01,3,0.82,3.5,0.01,0,0.01,4,5,Invalid,2,2,3,start,lin,1,1,1,1,True,,,,,,,,,,,,,10,A,2023-09-07_12h38.44.386,exp3,2022.2.2,
low_opac_v,0.4,1,0.01,3,0.82,3.5,0.01,0,0.01,4,5,Valid,0,2,4,start,lin,1,1,1,1,True,,,,,,,,,,,,,10,A,2023-09-07_12h38.44.386,exp3,2022.2.2,
high_opac_v,0.01,1,0.01,3,0.82,3.5,0.01,0,0.01,4,5,Valid,1,2,5,start,lin,1,1,1,1,True,,,,,,,,,,,,,10,A,2023-09-07_12h38.44.386,exp3,2022.2.2,
high_opac_v,0.01,1,0.01,3,0.82,3.5,0.01,0,0.01,4,5,Valid,1,3,6,start,lin,0.6092784667527542,0.6092784667527542,0.6092784667527542,1,True,,,,,,,,,,,,,10,A,2023-09-07_12h38.44.386,exp3,2022.2.2,
low_opac_v,0.4,1,0.01,3,0.82,3.5,0.01,0,0.01,4,5,Valid,0,3,7,start,lin,0.8091950431803865,0.8091950431803865,0.8091950431803865,1,True,,,,,,,,,,,,,10,A,2023-09-07_12h38.44.386,exp3,2022.2.2,
low_opac_i,0.4,1,0.01,3,0.82,3.5,0.01,0,0.01,4,5,Invalid,2,3,8,start,lin,0.8091950431803865,0,0.8091950431803865,0,True,,,,,,,,,,,,,10,A,2023-09-07_12h38.44.386,exp3,2022.2.2,
high_opac_v,0.01,1,0.01,3,0.82,3.5,0.01,0,0.01,4,5,Valid,1,4,9,start,lin,0.41662067589367746,0,0.41662067589367746,1,True,,,,,,,,,,,,,10,A,2023-09-07_12h38.44.386,exp3,2022.2.2,
low_opac_i,0.4,1,0.01,3,0.82,3.5,0.01,0,0.01,4,5,Invalid,2,4,10,start,lin,1,0,1,0,True,,,,,,,,,,,,,10,A,2023-09-07_12h38.44.386,exp3,2022.2.2,
low_opac_v,0.4,1,0.01,3,0.82,3.5,0.01,0,0.01,4,5,Valid,0,4,11,start,lin,0.6973591848232542,0,0.6973591848232542,1,True,,,,,,,,,,,,,10,A,2023-09-07_12h38.44.386,exp3,2022.2.2,
low_opac_i,0.4,1,0.01,3,0.82,3.5,0.01,0,0.01,4,5,Invalid,2,5,12,start,lin,1,0,1,1,True,,,,,,,,,,,,,10,A,2023-09-07_12h38.44.386,exp3,2022.2.2,
high_opac_v,0.01,1,0.01,3,0.82,3.5,0.01,0,0.01,4,5,Valid,1,5,13,start,lin,0.3073330120243674,0.3073330120243674,0.3073330120243674,1,True,,,,,,,,,,,,,10,A,2023-09-07_12h38.44.386,exp3,2022.2.2,
low_opac_v,0.4,1,0.01,3,0.82,3.5,0.01,0,0.01,4,5,Valid,0,5,14,start,lin,0.6246282260865603,0,0.6246282260865603,0,True,,,,,,,,,,,,,10,A,2023-09-07_12h38.44.386,exp3,2022.2.2,
high_opac_v,0.01,1,0.01,3,0.82,3.5,0.01,0,0.01,4,5,Valid,1,6,15,start,lin,0.2346279982429363,0,0.2346279982429363,0,True,,,,,,,,,,,,,10,A,2023-09-07_12h38.44.386,exp3,2022.2.2,
low_opac_i,0.4,1,0.01,3,0.82,3.5,0.01,0,0.01,4,5,Invalid,2,6,16,start,lin,1,1,1,1,True,,,,,,,,,,,,,10,A,2023-09-07_12h38.44.386,exp3,2022.2.2,
low_opac_v,0.4,1,0.01,3,0.82,3.5,0.01,0,0.01,4,5,Valid,0,6,17,start,lin,0.7538705781102062,0,0.7538705781102062,0,True,,,,,,,,,,,,,10,A,2023-09-07_12h38.44.386,exp3,2022.2.2,
high_opac_v,0.01,1,0.01,3,0.82,3.5,0.01,0,0.01,4,5,Valid,1,7,18,start,lin,0.3638700592295882,0,0.3638700592295882,1,True,,,,,,,,,,,,,10,A,2023-09-07_12h38.44.386,exp3,2022.2.2,
low_opac_i,0.4,1,0.01,3,0.82,3.5,0.01,0,0.01,4,5,Invalid,2,7,19,start,lin,1,0,1,1,True,,,,,,,,,,,,,10,A,2023-09-07_12h38.44.386,exp3,2022.2.2,
low_opac_v,0.4,1,0.01,3,0.82,3.5,0.01,0,0.01,4,5,Valid,0,7,20,start,lin,0.8424746191615334,0,0.8424746191615334,1,True,,,,,,,,,,,,,10,A,2023-09-07_12h38.44.386,exp3,2022.2.2,
low_opac_i,0.4,1,0.01,3,0.82,3.5,0.01,0,0.01,4,5,Invalid,2,8,21,start,lin,1,0,1,1,True,,,,,,,,,,,,,10,A,2023-09-07_12h38.44.386,exp3,2022.2.2,
low_opac_v,0.4,1,0.01,3,0.82,3.5,0.01,0,0.01,4,5,Valid,0,8,22,start,lin,0.8195719770587391,0.8195719770587391,0.8195719770587391,1,True,,,,,,,,,,,,,10,A,2023-09-07_12h38.44.386,exp3,2022.2.2,
high_opac_v,0.01,1,0.01,3,0.82,3.5,0.01,0,0.01,4,5,Valid,1,8,23,start,lin,0.33435092510312747,0,0.33435092510312747,1,True,,,,,,,,,,,,,10,A,2023-09-07_12h38.44.386,exp3,2022.2.2,
high_opac_v,0.01,1,0.01,3,0.82,3.5,0.01,0,0.01,4,5,Valid,1,9,24,start,lin,0.3113354935495346,0,0.3113354935495346,1,True,,,,,,,,,,,,,10,A,2023-09-07_12h38.44.386,exp3,2022.2.2,
low_opac_i,0.4,1,0.01,3,0.82,3.5,0.01,0,0.01,4,5,Invalid,2,9,25,start,lin,1,1,1,1,True,,,,,,,,,,,,,10,A,2023-09-07_12h38.44.386,exp3,2022.2.2,
low_opac_v,0.4,1,0.01,3,0.82,3.5,0.01,0,0.01,4,5,Valid,0,9,26,start,lin,0.801885058781852,0.801885058781852,0.801885058781852,1,True,,,,,,,,,,,,,10,A,2023-09-07_12h38.44.386,exp3,2022.2.2,
low_opac_i,0.4,1,0.01,3,0.82,3.5,0.01,0,0.01,4,5,Invalid,2,10,27,start,lin,0.9891378250830559,0.9891378250830559,0.9891378250830559,1,True,,,,,,,,,,,,,10,A,2023-09-07_12h38.44.386,exp3,2022.2.2,
high_opac_v,0.01,1,0.01,3,0.82,3.5,0.01,0,0.01,4,5,Valid,1,10,28,start,lin,0.29269220835217613,0.29269220835217613,0.29269220835217613,1,True,,,,,,,,,,,,,10,A,2023-09-07_12h38.44.386,exp3,2022.2.2,
low_opac_v,0.4,1,0.01,3,0.82,3.5,0.01,0,0.01,4,5,Valid,0,10,29,start,lin,0.7868962140812936,0,0.7868962140812936,1,True,,,,,,,,,,,,,10,A,2023-09-07_12h38.44.386,exp3,2022.2.2,
high_opac_v,0.01,1,0.01,3,0.82,3.5,0.01,0,0.01,4,5,Valid,1,11,30,start,lin,0.27642718558883334,0,0.27642718558883334,1,True,,,,,,,,,,,,,10,A,2023-09-07_12h38.44.386,exp3,2022.2.2,
low_opac_i,0.4,1,0.01,3,0.82,3.5,0.01,0,0.01,4,5,Invalid,2,11,31,start,lin,0.9776596621108842,0,0.9776596621108842,1,True,,,,,,,,,,,,,10,A,2023-09-07_12h38.44.386,exp3,2022.2.2,
low_opac_v,0.4,1,0.01,3,0.82,3.5,0.01,0,0.01,4,5,Valid,0,11,32,start,lin,0.7744460802807298,0,0.7744460802807298,1,True,,,,,,,,,,,,,10,A,2023-09-07_12h38.44.386,exp3,2022.2.2,
high_opac_v,0.01,1,0.01,3,0.82,3.5,0.01,0,0.01,4,5,Valid,1,12,33,start,lin,0.26265187280154895,0.26265187280154895,0.26265187280154895,1,True,,,,,,,,,,,,,10,A,2023-09-07_12h38.44.386,exp3,2022.2.2,
low_opac_i,0.4,1,0.01,3,0.82,3.5,0.01,0,0.01,4,5,Invalid,2,12,34,start,lin,0.9672169325388713,0,0.9672169325388713,1,True,,,,,,,,,,,,,10,A,2023-09-07_12h38.44.386,exp3,2022.2.2,
low_opac_v,0.4,1,0.01,3,0.82,3.5,0.01,0,0.01,4,5,Valid,0,12,35,start,lin,0.7627489357743621,0.7627489357743621,0.7627489357743621,1,True,,,,,,,,,,,,,10,A,2023-09-07_12h38.44.386,exp3,2022.2.2,
low_opac_v,0.4,1,0.01,3,0.82,3.5,0.01,0,0.01,4,5,Valid,0,13,36,start,lin,0.7523032899905466,0,0.7523032899905466,1,True,,,,,,,,,,,,,10,A,2023-09-07_12h38.44.386,exp3,2022.2.2,
high_opac_v,0.01,1,0.01,3,0.82,3.5,0.01,0,0.01,4,5,Valid,1,13,37,start,lin,0.24947736963038908,0.24947736963038908,0.24947736963038908,1,True,,,,,,,,,,,,,10,A,2023-09-07_12h38.44.386,exp3,2022.2.2,
low_opac_i,0.4,1,0.01,3,0.82,3.5,0.01,0,0.01,4,5,Invalid,2,13,38,start,lin,0.9574239631657456,0,0.9574239631657456,1,True,,,,,,,,,,,,,10,A,2023-09-07_12h38.44.386,exp3,2022.2.2,
high_opac_v,0.01,1,0.01,3,0.82,3.5,0.01,0,0.01,4,5,Valid,1,14,39,start,lin,0.2375349778682454,0.2375349778682454,0.2375349778682454,1,True,,,,,,,,,,,,,10,A,2023-09-07_12h38.44.386,exp3,2022.2.2,
low_opac_v,0.4,1,0.01,3,0.82,3.5,0.01,0,0.01,4,5,Valid,0,14,40,start,lin,0.7427338507838532,0.7427338507838532,0.7427338507838532,1,True,,,,,,,,,,,,,10,A,2023-09-07_12h38.44.386,exp3,2022.2.2,
low_opac_i,0.4,1,0.01,3,0.82,3.5,0.01,0,0.01,4,5,Invalid,2,14,41,start,lin,0.9480132164708317,0.9480132164708317,0.9480132164708317,1,True,,,,,,,,,,,,,10,A,2023-09-07_12h38.44.386,exp3,2022.2.2,
low_opac_i,0.4,1,0.01,3,0.82,3.5,0.01,0,0.01,4,5,Invalid,2,15,42,start,lin,0.9387789419560328,0.9387789419560328,0.9387789419560328,1,True,,,,,,,,,,,,,10,A,2023-09-07_12h38.44.386,exp3,2022.2.2,
low_opac_v,0.4,1,0.01,3,0.82,3.5,0.01,0,0.01,4,5,Valid,0,15,43,start,lin,0.7337856713957629,0,0.7337856713957629,1,True,,,,,,,,,,,,,10,A,2023-09-07_12h38.44.386,exp3,2022.2.2,
high_opac_v,0.01,1,0.01,3,0.82,3.5,0.01,0,0.01,4,5,Valid,1,15,44,start,lin,0.22645951363511868,0.22645951363511868,0.22645951363511868,1,True,,,,,,,,,,,,,10,A,2023-09-07_12h38.44.386,exp3,2022.2.2,
low_opac_v,0.4,1,0.01,3,0.82,3.5,0.01,0,0.01,4,5,Valid,0,16,45,start,lin,0.7252784915913953,0.7252784915913953,0.7252784915913953,1,True,,,,,,,,,,,,,10,A,2023-09-07_12h38.44.386,exp3,2022.2.2,
low_opac_i,0.4,1,0.01,3,0.82,3.5,0.01,0,0.01,4,5,Invalid,2,16,46,start,lin,0.9295437679137784,0,0.9295437679137784,1,True,,,,,,,,,,,,,10,A,2023-09-07_12h38.44.386,exp3,2022.2.2,
high_opac_v,0.01,1,0.01,3,0.82,3.5,0.01,0,0.01,4,5,Valid,1,16,47,start,lin,0.2159632677866864,0.2159632677866864,0.2159632677866864,1,True,,,,,,,,,,,,,10,A,2023-09-07_12h38.44.386,exp3,2022.2.2,
low_opac_i,0.4,1,0.01,3,0.82,3.5,0.01,0,0.01,4,5,Invalid,2,17,48,start,lin,0.9201287905672267,0.9201287905672267,0.9201287905672267,1,True,,,,,,,,,,,,,10,A,2023-09-07_12h38.44.386,exp3,2022.2.2,
high_opac_v,0.01,1,0.01,3,0.82,3.5,0.01,0,0.01,4,5,Valid,1,17,49,start,lin,0.20582478105556967,0,0.20582478105556967,1,True,,,,,,,,,,,,,10,A,2023-09-07_12h38.44.386,exp3,2022.2.2,
low_opac_v,0.4,1,0.01,3,0.82,3.5,0.01,0,0.01,4,5,Valid,0,17,50,start,lin,0.7177421560020779,0.7177421560020779,0.7177421560020779,1,True,,,,,,,,,,,,,10,A,2023-09-07_12h38.44.386,exp3,2022.2.2,
low_opac_v,0.4,1,0.01,3,0.82,3.5,0.01,0,0.01,4,5,Valid,0,18,51,start,lin,0.7103856815585479,0.7103856815585479,0.7103856815585479,1,True,,,,,,,,,,,,,10,A,2023-09-07_12h38.44.386,exp3,2022.2.2,
high_opac_v,0.01,1,0.01,3,0.82,3.5,0.01,0,0.01,4,5,Valid,1,18,52,start,lin,0.1958571114156886,0,0.1958571114156886,1,True,,,,,,,,,,,,,10,A,2023-09-07_12h38.44.386,exp3,2022.2.2,
low_opac_i,0.4,1,0.01,3,0.82,3.5,0.01,0,0.01,4,5,Invalid,2,18,53,start,lin,0.9103533382547291,0,0.9103533382547291,1,True,,,,,,,,,,,,,10,A,2023-09-07_12h38.44.386,exp3,2022.2.2,
low_opac_i,0.4,1,0.01,3,0.82,3.5,0.01,0,0.01,4,5,Invalid,2,19,54,start,lin,0.9000746142419573,0,0.9000746142419573,1,True,,,,,,,,,,,,,10,A,2023-09-07_12h38.44.386,exp3,2022.2.2,
high_opac_v,0.01,1,0.01,3,0.82,3.5,0.01,0,0.01,4,5,Valid,1,19,55,start,lin,0.18588611303517635,0,0.18588611303517635,1,True,,,,,,,,,,,,,10,A,2023-09-07_12h38.44.386,exp3,2022.2.2,
low_opac_v,0.4,1,0.01,3,0.82,3.5,0.01,0,0.01,4,5,Valid,0,19,56,start,lin,0.7030681175485496,0,0.7030681175485496,1,True,,,,,,,,,,,,,10,A,2023-09-07_12h38.44.386,exp3,2022.2.2,
low_opac_i,0.4,1,0.01,3,0.82,3.5,0.01,0,0.01,4,5,Invalid,2,20,57,start,lin,0.8890680455177319,0,0.8890680455177319,1,True,,,,,,,,,,,,,10,A,2023-09-07_12h38.44.386,exp3,2022.2.2,
high_opac_v,0.01,1,0.01,3,0.82,3.5,0.01,0,0.01,4,5,Valid,1,20,58,start,lin,0.17573260819147948,0.17573260819147948,0.17573260819147948,1,True,,,,,,,,,,,,,10,A,2023-09-07_12h38.44.386,exp3,2022.2.2,
low_opac_v,0.4,1,0.01,3,0.82,3.5,0.01,0,0.01,4,5,Valid,0,20,59,start,lin,0.6957579869764627,0.6957579869764627,0.6957579869764627,1,True,,,,,,,,,,,,,10,A,2023-09-07_12h38.44.386,exp3,2022.2.2,
high_opac_v,0.01,1,0.01,3,0.82,3.5,0.01,0,0.01,4,5,Valid,1,21,60,start,lin,0.1651957679816704,0,0.1651957679816704,1,True,,,,,,,,,,,,,10,A,2023-09-07_12h38.44.386,exp3,2022.2.2,
low_opac_v,0.4,1,0.01,3,0.82,3.5,0.01,0,0.01,4,5,Valid,0,21,61,start,lin,0.689038224405368,0.689038224405368,0.689038224405368,1,True,,,,,,,,,,,,,10,A,2023-09-07_12h38.44.386,exp3,2022.2.2,
low_opac_i,0.4,1,0.01,3,0.82,3.5,0.01,0,0.01,4,5,Invalid,2,21,62,start,lin,0.8772241706032118,0,0.8772241706032118,1,True,,,,,,,,,,,,,10,A,2023-09-07_12h38.44.386,exp3,2022.2.2,
high_opac_v,0.01,1,0.01,3,0.82,3.5,0.01,0,0.01,4,5,Valid,1,22,63,start,lin,0.15403748901708308,0,0.15403748901708308,1,True,,,,,,,,,,,,,10,A,2023-09-07_12h38.44.386,exp3,2022.2.2,
low_opac_v,0.4,1,0.01,3,0.82,3.5,0.01,0,0.01,4,5,Valid,0,22,64,start,lin,0.6821661956733189,0,0.6821661956733189,1,True,,,,,,,,,,,,,10,A,2023-09-07_12h38.44.386,exp3,2022.2.2,
low_opac_i,0.4,1,0.01,3,0.82,3.5,0.01,0,0.01,4,5,Invalid,2,22,65,start,lin,0.8645590100199038,0,0.8645590100199038,1,True,,,,,,,,,,,,,10,A,2023-09-07_12h38.44.386,exp3,2022.2.2,
high_opac_v,0.01,1,0.01,3,0.82,3.5,0.01,0,0.01,4,5,Valid,1,23,66,start,lin,0.1407306509344952,0.1407306509344952,0.1407306509344952,1,True,,,,,,,,,,,,,10,A,2023-09-07_12h38.44.386,exp3,2022.2.2,
low_opac_i,0.4,1,0.01,3,0.82,3.5,0.01,0,0.01,4,5,Invalid,2,23,67,start,lin,0.8499916926913682,0,0.8499916926913682,1,True,,,,,,,,,,,,,10,A,2023-09-07_12h38.44.386,exp3,2022.2.2,
low_opac_v,0.4,1,0.01,3,0.82,3.5,0.01,0,0.01,4,5,Valid,0,23,68,start,lin,0.6750786238847191,0,0.6750786238847191,1,True,,,,,,,,,,,,,10,A,2023-09-07_12h38.44.386,exp3,2022.2.2,
high_opac_v,0.01,1,0.01,3,0.82,3.5,0.01,0,0.01,4,5,Valid,1,24,69,start,lin,0.12551222622857292,0.12551222622857292,0.12551222622857292,1,True,,,,,,,,,,,,,10,A,2023-09-07_12h38.44.386,exp3,2022.2.2,
low_opac_v,0.4,1,0.01,3,0.82,3.5,0.01,0,0.01,4,5,Valid,0,24,70,start,lin,0.668412837546111,0.668412837546111,0.668412837546111,1,True,,,,,,,,,,,,,10,A,2023-09-07_12h38.44.386,exp3,2022.2.2,
low_opac_i,0.4,1,0.01,3,0.82,3.5,0.01,0,0.01,4,5,Invalid,2,24,71,start,lin,0.8350104436577546,0.8350104436577546,0.8350104436577546,1,True,,,,,,,,,,,,,10,A,2023-09-07_12h38.44.386,exp3,2022.2.2,
high_opac_v,0.01,1,0.01,3,0.82,3.5,0.01,0,0.01,4,5,Valid,1,25,72,start,lin,0.10796210252902143,0.10796210252902143,0.10796210252902143,0,True,,,,,,,,,,,,,10,A,2023-09-07_12h38.44.386,exp3,2022.2.2,
low_opac_v,0.4,1,0.01,3,0.82,3.5,0.01,0,0.01,4,5,Valid,0,25,73,start,lin,0.661443506405142,0,0.661443506405142,1,True,,,,,,,,,,,,,10,A,2023-09-07_12h38.44.386,exp3,2022.2.2,
low_opac_i,0.4,1,0.01,3,0.82,3.5,0.01,0,0.01,4,5,Invalid,2,25,74,start,lin,0.8204180724508334,0.8204180724508334,0.8204180724508334,0,True,,,,,,,,,,,,,10,A,2023-09-07_12h38.44.386,exp3,2022.2.2,
low_opac_i,0.4,1,0.01,3,0.82,3.5,0.01,0,0.01,4,5,Invalid,2,26,75,start,lin,0.8685333927329217,0,0.8685333927329217,1,True,,,,,,,,,,,,,10,A,2023-09-07_12h38.44.386,exp3,2022.2.2,
high_opac_v,0.01,1,0.01,3,0.82,3.5,0.01,0,0.01,4,5,Valid,1,26,76,start,lin,0.1612012895861075,0.1612012895861075,0.1612012895861075,1,True,,,,,,,,,,,,,10,A,2023-09-07_12h38.44.386,exp3,2022.2.2,
low_opac_v,0.4,1,0.01,3,0.82,3.5,0.01,0,0.01,4,5,Valid,0,26,77,start,lin,0.6540474634577081,0.6540474634577081,0.6540474634577081,1,True,,,,,,,,,,,,,10,A,2023-09-07_12h38.44.386,exp3,2022.2.2,
low_opac_v,0.4,1,0.01,3,0.82,3.5,0.01,0,0.01,4,5,Valid,0,27,78,start,lin,0.6462326455569376,0,0.6462326455569376,1,True,,,,,,,,,,,,,10,A,2023-09-07_12h38.44.386,exp3,2022.2.2,
high_opac_v,0.01,1,0.01,3,0.82,3.5,0.01,0,0.01,4,5,Valid,1,27,79,start,lin,0.15471858539755334,0,0.15471858539755334,1,True,,,,,,,,,,,,,10,A,2023-09-07_12h38.44.386,exp3,2022.2.2,
low_opac_i,0.4,1,0.01,3,0.82,3.5,0.01,0,0.01,4,5,Invalid,2,27,80,start,lin,0.8605873768433395,0.8605873768433395,0.8605873768433395,1,True,,,,,,,,,,,,,10,A,2023-09-07_12h38.44.386,exp3,2022.2.2,
high_opac_v,0.01,1,0.01,3,0.82,3.5,0.01,0,0.01,4,5,Valid,1,28,81,start,lin,0.1480656295826674,0,0.1480656295826674,1,True,,,,,,,,,,,,,10,A,2023-09-07_12h38.44.386,exp3,2022.2.2,
low_opac_v,0.4,1,0.01,3,0.82,3.5,0.01,0,0.01,4,5,Valid,0,28,82,start,lin,0.6386664568980065,0,0.6386664568980065,1,True,,,,,,,,,,,,,10,A,2023-09-07_12h38.44.386,exp3,2022.2.2,
low_opac_i,0.4,1,0.01,3,0.82,3.5,0.01,0,0.01,4,5,Invalid,2,28,83,start,lin,0.8524493036877849,0.8524493036877849,0.8524493036877849,1,True,,,,,,,,,,,,,10,A,2023-09-07_12h38.44.386,exp3,2022.2.2,
high_opac_v,0.01,1,0.01,3,0.82,3.5,0.01,0,0.01,4,5,Valid,1,29,84,start,lin,0.1417422830725435,0.1417422830725435,0.1417422830725435,1,True,,,,,,,,,,,,,10,A,2023-09-07_12h38.44.386,exp3,2022.2.2,
low_opac_i,0.4,1,0.01,3,0.82,3.5,0.01,0,0.01,4,5,Invalid,2,29,85,start,lin,0.8442666310741265,0.8442666310741265,0.8442666310741265,0,True,,,,,,,,,,,,,10,A,2023-09-07_12h38.44.386,exp3,2022.2.2,
low_opac_v,0.4,1,0.01,3,0.82,3.5,0.01,0,0.01,4,5,Valid,0,29,86,start,lin,0.6305476247829618,0.6305476247829618,0.6305476247829618,1,True,,,,,,,,,,,,,10,A,2023-09-07_12h38.44.386,exp3,2022.2.2,
high_opac_v,0.01,1,0.01,3,0.82,3.5,0.01,0,0.01,4,5,Valid,1,30,87,start,lin,0.13506234099934117,0,0.13506234099934117,1,True,,,,,,,,,,,,,10,A,2023-09-07_12h38.44.386,exp3,2022.2.2,
low_opac_i,0.4,1,0.01,3,0.82,3.5,0.01,0,0.01,4,5,Invalid,2,30,88,start,lin,0.87180483438869,0.87180483438869,0.87180483438869,1,True,,,,,,,,,,,,,10,A,2023-09-07_12h38.44.386,exp3,2022.2.2,
low_opac_v,0.4,1,0.01,3,0.82,3.5,0.01,0,0.01,4,5,Valid,0,30,89,start,lin,0.6217660985375267,0.6217660985375267,0.6217660985375267,1,True,,,,,,,,,,,,,10,A,2023-09-07_12h38.44.386,exp3,2022.2.2,
low_opac_v,0.4,1,0.01,3,0.82,3.5,0.01,0,0.01,4,5,Valid,0,31,90,start,lin,0.6123692173045268,0.6123692173045268,0.6123692173045268,1,True,,,,,,,,,,,,,10,A,2023-09-07_12h38.44.386,exp3,2022.2.2,
low_opac_i,0.4,1,0.01,3,0.82,3.5,0.01,0,0.01,4,5,Invalid,2,31,91,start,lin,0.8660265880995083,0.8660265880995083,0.8660265880995083,1,True,,,,,,,,,,,,,10,A,2023-09-07_12h38.44.386,exp3,2022.2.2,
high_opac_v,0.01,1,0.01,3,0.82,3.5,0.01,0,0.01,4,5,Valid,1,31,92,start,lin,0.1287040568207155,0,0.1287040568207155,1,True,,,,,,,,,,,,,10,A,2023-09-07_12h38.44.386,exp3,2022.2.2,
low_opac_v,0.4,1,0.01,3,0.82,3.5,0.01,0,0.01,4,5,Valid,0,32,93,start,lin,0.6023657032045706,0.6023657032045706,0.6023657032045706,1,True,,,,,,,,,,,,,10,A,2023-09-07_12h38.44.386,exp3,2022.2.2,
high_opac_v,0.01,1,0.01,3,0.82,3.5,0.01,0,0.01,4,5,Valid,1,32,94,start,lin,0.12193097070061674,0.12193097070061674,0.12193097070061674,0,True,,,,,,,,,,,,,10,A,2023-09-07_12h38.44.386,exp3,2022.2.2,
low_opac_i,0.4,1,0.01,3,0.82,3.5,0.01,0,0.01,4,5,Invalid,2,32,95,start,lin,0.8606388223126384,0.8606388223126384,0.8606388223126384,1,True,,,,,,,,,,,,,10,A,2023-09-07_12h38.44.386,exp3,2022.2.2,
low_opac_i,0.4,1,0.01,3,0.82,3.5,0.01,0,0.01,4,5,Invalid,2,33,96,start,lin,0.8550574591827769,0.8550574591827769,0.8550574591827769,1,True,,,,,,,,,,,,,10,A,2023-09-07_12h38.44.386,exp3,2022.2.2,
high_opac_v,0.01,1,0.01,3,0.82,3.5,0.01,0,0.01,4,5,Valid,1,33,97,start,lin,0.14634023121152537,0,0.14634023121152537,1,True,,,,,,,,,,,,,10,A,2023-09-07_12h38.44.386,exp3,2022.2.2,
low_opac_v,0.4,1,0.01,3,0.82,3.5,0.01,0,0.01,4,5,Valid,0,33,98,start,lin,0.5918205425525981,0.5918205425525981,0.5918205425525981,1,True,,,,,,,,,,,,,10,A,2023-09-07_12h38.44.386,exp3,2022.2.2,
low_opac_v,0.4,1,0.01,3,0.82,3.5,0.01,0,0.01,4,5,Valid,0,34,99,start,lin,0.580833783504388,0.580833783504388,0.580833783504388,1,True,,,,,,,,,,,,,10,A,2023-09-07_12h38.44.386,exp3,2022.2.2,
low_opac_i,0.4,1,0.01,3,0.82,3.5,0.01,0,0.01,4,5,Invalid,2,34,100,start,lin,0.8498819889317168,0.8498819889317168,0.8498819889317168,1,True,,,,,,,,,,,,,10,A,2023-09-07_12h38.44.386,exp3,2022.2.2,
high_opac_v,0.01,1,0.01,3,0.82,3.5,0.01,0,0.01,4,5,Valid,1,34,101,start,lin,0.1420077475803657,0.1420077475803657,0.1420077475803657,0,True,,,,,,,,,,,,,10,A,2023-09-07_12h38.44.386,exp3,2022.2.2,
low_opac_i,0.4,1,0.01,3,0.82,3.5,0.01,0,0.01,4,5,Invalid,2,35,102,start,lin,0.8445809453768689,0,0.8445809453768689,1,True,,,,,,,,,,,,,10,A,2023-09-07_12h38.44.386,exp3,2022.2.2,
low_opac_v,0.4,1,0.01,3,0.82,3.5,0.01,0,0.01,4,5,Valid,0,35,103,start,lin,0.5694663589246245,0.5694663589246245,0.5694663589246245,1,True,,,,,,,,,,,,,10,A,2023-09-07_12h38.44.386,exp3,2022.2.2,
high_opac_v,0.01,1,0.01,3,0.82,3.5,0.01,0,0.01,4,5,Valid,1,35,104,start,lin,0.15875079853818594,0.15875079853818594,0.15875079853818594,0,True,,,,,,,,,,,,,10,A,2023-09-07_12h38.44.386,exp3,2022.2.2,
high_opac_v,0.01,1,0.01,3,0.82,3.5,0.01,0,0.01,4,5,Valid,1,36,105,start,lin,0.17306796215387685,0.17306796215387685,0.17306796215387685,1,True,,,,,,,,,,,,,10,A,2023-09-07_12h38.44.386,exp3,2022.2.2,
low_opac_i,0.4,1,0.01,3,0.82,3.5,0.01,0,0.01,4,5,Invalid,2,36,106,start,lin,0.8392322487469598,0,0.8392322487469598,1,True,,,,,,,,,,,,,10,A,2023-09-07_12h38.44.386,exp3,2022.2.2,
low_opac_v,0.4,1,0.01,3,0.82,3.5,0.01,0,0.01,4,5,Valid,0,36,107,start,lin,0.5576947989970864,0,0.5576947989970864,1,True,,,,,,,,,,,,,10,A,2023-09-07_12h38.44.386,exp3,2022.2.2,
low_opac_i,0.4,1,0.01,3,0.82,3.5,0.01,0,0.01,4,5,Invalid,2,37,108,start,lin,0.834273940983929,0.834273940983929,0.834273940983929,1,True,,,,,,,,,,,,,10,A,2023-09-07_12h38.44.386,exp3,2022.2.2,
low_opac_v,0.4,1,0.01,3,0.82,3.5,0.01,0,0.01,4,5,Valid,0,37,109,start,lin,0.5454405094166767,0,0.5454405094166767,1,True,,,,,,,,,,,,,10,A,2023-09-07_12h38.44.386,exp3,2022.2.2,
high_opac_v,0.01,1,0.01,3,0.82,3.5,0.01,0,0.01,4,5,Valid,1,37,110,start,lin,0.16978765078682567,0.16978765078682567,0.16978765078682567,1,True,,,,,,,,,,,,,10,A,2023-09-07_12h38.44.386,exp3,2022.2.2,
low_opac_v,0.4,1,0.01,3,0.82,3.5,0.01,0,0.01,4,5,Valid,0,38,111,start,lin,0.5324773051854634,0.5324773051854634,0.5324773051854634,1,True,,,,,,,,,,,,,10,A,2023-09-07_12h38.44.386,exp3,2022.2.2,
low_opac_i,0.4,1,0.01,3,0.82,3.5,0.01,0,0.01,4,5,Invalid,2,38,112,start,lin,0.8292640146110122,0.8292640146110122,0.8292640146110122,1,True,,,,,,,,,,,,,10,A,2023-09-07_12h38.44.386,exp3,2022.2.2,
high_opac_v,0.01,1,0.01,3,0.82,3.5,0.01,0,0.01,4,5,Valid,1,38,113,start,lin,0.16666395999902694,0,0.16666395999902694,1,True,,,,,,,,,,,,,10,A,2023-09-07_12h38.44.386,exp3,2022.2.2,
high_opac_v,0.01,1,0.01,3,0.82,3.5,0.01,0,0.01,4,5,Valid,1,39,114,start,lin,0.16373527258657355,0.16373527258657355,0.16373527258657355,1,True,,,,,,,,,,,,,10,A,2023-09-07_12h38.44.386,exp3,2022.2.2,
low_opac_v,0.4,1,0.01,3,0.82,3.5,0.01,0,0.01,4,5,Valid,0,39,115,start,lin,0.5167696936835773,0.5167696936835773,0.5167696936835773,1,True,,,,,,,,,,,,,10,A,2023-09-07_12h38.44.386,exp3,2022.2.2,
low_opac_i,0.4,1,0.01,3,0.82,3.5,0.01,0,0.01,4,5,Invalid,2,39,116,start,lin,0.8246352830963333,0.8246352830963333,0.8246352830963333,1,True,,,,,,,,,,,,,10,A,2023-09-07_12h38.44.386,exp3,2022.2.2,
low_opac_i,0.4,1,0.01,3,0.82,3.5,0.01,0,0.01,4,5,Invalid,2,40,117,start,lin,0.8199579451216195,0,0.8199579451216195,1,True,,,,,,,,,,,,,10,A,2023-09-07_12h38.44.386,exp3,2022.2.2,
high_opac_v,0.01,1,0.01,3,0.82,3.5,0.01,0,0.01,4,5,Valid,1,40,118,start,lin,0.16068261826948085,0,0.16068261826948085,1,True,,,,,,,,,,,,,10,A,2023-09-07_12h38.44.386,exp3,2022.2.2,
low_opac_v,0.4,1,0.01,3,0.82,3.5,0.01,0,0.01,4,5,Valid,0,40,119,start,lin,0.49892021397544395,0,0.49892021397544395,1,True,,,,,,,,,,,,,10,A,2023-09-07_12h38.44.386,exp3,2022.2.2,
low_opac_i,0.4,1,0.01,3,0.82,3.5,0.01,0,0.01,4,5,Invalid,2,41,120,start,lin,0.815607012468974,0.815607012468974,0.815607012468974,1,True,,,,,,,,,,,,,10,A,2023-09-07_12h38.44.386,exp3,2022.2.2,
low_opac_v,0.4,1,0.01,3,0.82,3.5,0.01,0,0.01,4,5,Valid,0,41,121,start,lin,0.47564028359022614,0.47564028359022614,0.47564028359022614,1,True,,,,,,,,,,,,,10,A,2023-09-07_12h38.44.386,exp3,2022.2.2,
high_opac_v,0.01,1,0.01,3,0.82,3.5,0.01,0,0.01,4,5,Valid,1,41,122,start,lin,0.1577248761161024,0,0.1577248761161024,1,True,,,,,,,,,,,,,10,A,2023-09-07_12h38.44.386,exp3,2022.2.2,
high_opac_v,0.01,1,0.01,3,0.82,3.5,0.01,0,0.01,4,5,Valid,1,42,123,start,lin,0.154942692830351,0.154942692830351,0.154942692830351,1,True,,,,,,,,,,,,,10,A,2023-09-07_12h38.44.386,exp3,2022.2.2,
low_opac_i,0.4,1,0.01,3,0.82,3.5,0.01,0,0.01,4,5,Invalid,2,42,124,start,lin,0.8115772558952676,0.8115772558952676,0.8115772558952676,1,True,,,,,,,,,,,,,10,A,2023-09-07_12h38.44.386,exp3,2022.2.2,
low_opac_v,0.4,1,0.01,3,0.82,3.5,0.01,0,0.01,4,5,Valid,0,42,125,start,lin,0.4464278972917432,0.4464278972917432,0.4464278972917432,1,True,,,,,,,,,,,,,10,A,2023-09-07_12h38.44.386,exp3,2022.2.2,
low_opac_v,0.4,1,0.01,3,0.82,3.5,0.01,0,0.01,4,5,Valid,0,43,126,start,lin,0.409527238154588,0,0.409527238154588,1,True,,,,,,,,,,,,,10,A,2023-09-07_12h38.44.386,exp3,2022.2.2,
low_opac_i,0.4,1,0.01,3,0.82,3.5,0.01,0,0.01,4,5,Invalid,2,43,127,start,lin,0.8074255353484718,0.8074255353484718,0.8074255353484718,1,True,,,,,,,,,,,,,10,A,2023-09-07_12h38.44.386,exp3,2022.2.2,
high_opac_v,0.01,1,0.01,3,0.82,3.5,0.01,0,0.01,4,5,Valid,1,43,128,start,lin,0.15205288979273504,0,0.15205288979273504,1,True,,,,,,,,,,,,,10,A,2023-09-07_12h38.44.386,exp3,2022.2.2,
low_opac_i,0.4,1,0.01,3,0.82,3.5,0.01,0,0.01,4,5,Invalid,2,44,129,start,lin,0.80357626271172,0,0.80357626271172,1,True,,,,,,,,,,,,,10,A,2023-09-07_12h38.44.386,exp3,2022.2.2,
high_opac_v,0.01,1,0.01,3,0.82,3.5,0.01,0,0.01,4,5,Valid,1,44,130,start,lin,0.14923459294647617,0,0.14923459294647617,1,True,,,,,,,,,,,,,10,A,2023-09-07_12h38.44.386,exp3,2022.2.2,
low_opac_v,0.4,1,0.01,3,0.82,3.5,0.01,0,0.01,4,5,Valid,0,44,131,start,lin,0.35531015695700113,0,0.35531015695700113,1,True,,,,,,,,,,,,,10,A,2023-09-07_12h38.44.386,exp3,2022.2.2,
high_opac_v,0.01,1,0.01,3,0.82,3.5,0.01,0,0.01,4,5,Valid,1,45,132,start,lin,0.1465314999529937,0.1465314999529937,0.1465314999529937,1,True,,,,,,,,,,,,,10,A,2023-09-07_12h38.44.386,exp3,2022.2.2,
low_opac_i,0.4,1,0.01,3,0.82,3.5,0.01,0,0.01,4,5,Invalid,2,45,133,start,lin,0.7996009509802701,0,0.7996009509802701,1,True,,,,,,,,,,,,,10,A,2023-09-07_12h38.44.386,exp3,2022.2.2,
low_opac_v,0.4,1,0.01,3,0.82,3.5,0.01,0,0.01,4,5,Valid,0,45,134,start,lin,0.06527424783152691,0,0.06527424783152691,1,True,,,,,,,,,,,,,10,A,2023-09-07_12h38.44.386,exp3,2022.2.2,
low_opac_v,0.4,1,0.01,3,0.82,3.5,0.01,0,0.01,4,5,Valid,0,46,135,start,lin,0.01,0.01,0.01,0,True,,,,,,,,,,,,,10,A,2023-09-07_12h38.44.386,exp3,2022.2.2,
low_opac_i,0.4,1,0.01,3,0.82,3.5,0.01,0,0.01,4,5,Invalid,2,46,136,start,lin,0.7958277127804476,0,0.7958277127804476,0,True,,,,,,,,,,,,,10,A,2023-09-07_12h38.44.386,exp3,2022.2.2,
high_opac_v,0.01,1,0.01,3,0.82,3.5,0.01,0,0.01,4,5,Valid,1,46,137,start,lin,0.1439691844420742,0,0.1439691844420742,1,True,,,,,,,,,,,,,10,A,2023-09-07_12h38.44.386,exp3,2022.2.2,
low_opac_v,0.4,1,0.01,3,0.82,3.5,0.01,0,0.01,4,5,Valid,0,47,138,start,lin,0.3251750437618917,0.3251750437618917,0.3251750437618917,1,True,,,,,,,,,,,,,10,A,2023-09-07_12h38.44.386,exp3,2022.2.2,
high_opac_v,0.01,1,0.01,3,0.82,3.5,0.01,0,0.01,4,5,Valid,1,47,139,start,lin,0.1412751364097188,0.1412751364097188,0.1412751364097188,1,True,,,,,,,,,,,,,10,A,2023-09-07_12h38.44.386,exp3,2022.2.2,
low_opac_i,0.4,1,0.01,3,0.82,3.5,0.01,0,0.01,4,5,Invalid,2,47,140,start,lin,0.8107362309658722,0,0.8107362309658722,1,True,,,,,,,,,,,,,10,A,2023-09-07_12h38.44.386,exp3,2022.2.2,
low_opac_v,0.4,1,0.01,3,0.82,3.5,0.01,0,0.01,4,5,Valid,0,48,141,start,lin,0.27588827346851835,0.27588827346851835,0.27588827346851835,1,True,,,,,,,,,,,,,10,A,2023-09-07_12h38.44.386,exp3,2022.2.2,
low_opac_i,0.4,1,0.01,3,0.82,3.5,0.01,0,0.01,4,5,Invalid,2,48,142,start,lin,0.8074891332871766,0.8074891332871766,0.8074891332871766,1,True,,,,,,,,,,,,,10,A,2023-09-07_12h38.44.386,exp3,2022.2.2,
high_opac_v,0.01,1,0.01,3,0.82,3.5,0.01,0,0.01,4,5,Valid,1,48,143,start,lin,0.1386211401432844,0,0.1386211401432844,1,True,,,,,,,,,,,,,10,A,2023-09-07_12h38.44.386,exp3,2022.2.2,
low_opac_v,0.4,1,0.01,3,0.82,3.5,0.01,0,0.01,4,5,Valid,0,49,144,start,lin,0.1974329445053732,0.1974329445053732,0.1974329445053732,1,True,,,,,,,,,,,,,10,A,2023-09-07_12h38.44.386,exp3,2022.2.2,
high_opac_v,0.01,1,0.01,3,0.82,3.5,0.01,0,0.01,4,5,Valid,1,49,145,start,lin,0.13608402841410097,0,0.13608402841410097,1,True,,,,,,,,,,,,,10,A,2023-09-07_12h38.44.386,exp3,2022.2.2,
low_opac_i,0.4,1,0.01,3,0.82,3.5,0.01,0,0.01,4,5,Invalid,2,49,146,start,lin,0.8044647309494226,0.8044647309494226,0.8044647309494226,1,True,,,,,,,,,,,,,10,A,2023-09-07_12h38.44.386,exp3,2022.2.2,
low_opac_v,0.4,1,0.01,3,0.82,3.5,0.01,0,0.01,4,5,Valid,0,50,147,start,lin,0.12739216386902835,0.12739216386902835,0.12739216386902835,0,True,,,,,,,,,,,,,10,A,2023-09-07_12h38.44.386,exp3,2022.2.2,
low_opac_i,0.4,1,0.01,3,0.82,3.5,0.01,0,0.01,4,5,Invalid,2,50,148,start,lin,0.8013396011014475,0.8013396011014475,0.8013396011014475,1,True,,,,,,,,,,,,,10,A,2023-09-07_12h38.44.386,exp3,2022.2.2,
high_opac_v,0.01,1,0.01,3,0.82,3.5,0.01,0,0.01,4,5,Valid,1,50,149,start,lin,0.13366262679684307,0.13366262679684307,0.13366262679684307,0,True,,,,,,,,,,,,,10,A,2023-09-07_12h38.44.386,exp3,2022.2.2,
low_opac_v,0.4,1,0.01,3,0.82,3.5,0.01,0,0.01,4,5,Valid,0,51,150,start,lin,0.278154705313448,0,0.278154705313448,1,True,,,,,,,,,,,,,10,A,2023-09-07_12h38.44.386,exp3,2022.2.2,
high_opac_v,0.01,1,0.01,3,0.82,3.5,0.01,0,0.01,4,5,Valid,1,51,151,start,lin,0.14338753409718213,0,0.14338753409718213,1,True,,,,,,,,,,,,,10,A,2023-09-07_12h38.44.386,exp3,2022.2.2,
low_opac_i,0.4,1,0.01,3,0.82,3.5,0.01,0,0.01,4,5,Invalid,2,51,152,start,lin,0.7983240869182491,0.7983240869182491,0.7983240869182491,1,True,,,,,,,,,,,,,10,A,2023-09-07_12h38.44.386,exp3,2022.2.2,
low_opac_v,0.4,1,0.01,3,0.82,3.5,0.01,0,0.01,4,5,Valid,0,52,153,start,lin,0.24838471711728322,0,0.24838471711728322,1,True,,,,,,,,,,,,,10,A,2023-09-07_12h38.44.386,exp3,2022.2.2,
low_opac_i,0.4,1,0.01,3,0.82,3.5,0.01,0,0.01,4,5,Invalid,2,52,154,start,lin,0.7954909543902748,0.7954909543902748,0.7954909543902748,1,True,,,,,,,,,,,,,10,A,2023-09-07_12h38.44.386,exp3,2022.2.2,
high_opac_v,0.01,1,0.01,3,0.82,3.5,0.01,0,0.01,4,5,Valid,1,52,155,start,lin,0.14108678998494908,0.14108678998494908,0.14108678998494908,0,True,,,,,,,,,,,,,10,A,2023-09-07_12h38.44.386,exp3,2022.2.2,
low_opac_i,0.4,1,0.01,3,0.82,3.5,0.01,0,0.01,4,5,Invalid,2,53,156,start,lin,0.7928041549794029,0,0.7928041549794029,1,True,,,,,,,,,,,,,10,A,2023-09-07_12h38.44.386,exp3,2022.2.2,
high_opac_v,0.01,1,0.01,3,0.82,3.5,0.01,0,0.01,4,5,Valid,1,53,157,start,lin,0.1499124170714812,0,0.1499124170714812,1,True,,,,,,,,,,,,,10,A,2023-09-07_12h38.44.386,exp3,2022.2.2,
low_opac_v,0.4,1,0.01,3,0.82,3.5,0.01,0,0.01,4,5,Valid,0,53,158,start,lin,0.21910166996213523,0.21910166996213523,0.21910166996213523,1,True,,,,,,,,,,,,,10,A,2023-09-07_12h38.44.386,exp3,2022.2.2,
low_opac_v,0.4,1,0.01,3,0.82,3.5,0.01,0,0.01,4,5,Valid,0,54,159,start,lin,0.19448804256803565,0.19448804256803565,0.19448804256803565,0,True,,,,,,,,,,,,,10,A,2023-09-07_12h38.44.386,exp3,2022.2.2,
low_opac_i,0.4,1,0.01,3,0.82,3.5,0.01,0,0.01,4,5,Invalid,2,54,160,start,lin,0.7899698675318807,0.7899698675318807,0.7899698675318807,1,True,,,,,,,,,,,,,10,A,2023-09-07_12h38.44.386,exp3,2022.2.2,
high_opac_v,0.01,1,0.01,3,0.82,3.5,0.01,0,0.01,4,5,Valid,1,54,161,start,lin,0.14783761519000707,0.14783761519000707,0.14783761519000707,1,True,,,,,,,,,,,,,10,A,2023-09-07_12h38.44.386,exp3,2022.2.2,
low_opac_i,0.4,1,0.01,3,0.82,3.5,0.01,0,0.01,4,5,Invalid,2,55,162,start,lin,0.7872205224078849,0,0.7872205224078849,1,True,,,,,,,,,,,,,10,A,2023-09-07_12h38.44.386,exp3,2022.2.2,
high_opac_v,0.01,1,0.01,3,0.82,3.5,0.01,0,0.01,4,5,Valid,1,55,163,start,lin,0.14586988130060438,0.14586988130060438,0.14586988130060438,1,True,,,,,,,,,,,,,10,A,2023-09-07_12h38.44.386,exp3,2022.2.2,
low_opac_v,0.4,1,0.01,3,0.82,3.5,0.01,0,0.01,4,5,Valid,0,55,164,start,lin,0.2639150350900836,0,0.2639150350900836,1,True,,,,,,,,,,,,,10,A,2023-09-07_12h38.44.386,exp3,2022.2.2,
high_opac_v,0.01,1,0.01,3,0.82,3.5,0.01,0,0.01,4,5,Valid,1,56,165,start,lin,0.14398036234463674,0.14398036234463674,0.14398036234463674,1,True,,,,,,,,,,,,,10,A,2023-09-07_12h38.44.386,exp3,2022.2.2,
low_opac_v,0.4,1,0.01,3,0.82,3.5,0.01,0,0.01,4,5,Valid,0,56,166,start,lin,0.247399598022728,0,0.247399598022728,1,True,,,,,,,,,,,,,10,A,2023-09-07_12h38.44.386,exp3,2022.2.2,
low_opac_i,0.4,1,0.01,3,0.82,3.5,0.01,0,0.01,4,5,Invalid,2,56,167,start,lin,0.7846243180999566,0,0.7846243180999566,1,True,,,,,,,,,,,,,10,A,2023-09-07_12h38.44.386,exp3,2022.2.2,
high_opac_v,0.01,1,0.01,3,0.82,3.5,0.01,0,0.01,4,5,Valid,1,57,168,start,lin,0.14197696386088499,0.14197696386088499,0.14197696386088499,1,True,,,,,,,,,,,,,10,A,2023-09-07_12h38.44.386,exp3,2022.2.2,
low_opac_i,0.4,1,0.01,3,0.82,3.5,0.01,0,0.01,4,5,Invalid,2,57,169,start,lin,0.781902291169607,0,0.781902291169607,1,True,,,,,,,,,,,,,10,A,2023-09-07_12h38.44.386,exp3,2022.2.2,
low_opac_v,0.4,1,0.01,3,0.82,3.5,0.01,0,0.01,4,5,Valid,0,57,170,start,lin,0.23279201008908137,0.23279201008908137,0.23279201008908137,1,True,,,,,,,,,,,,,10,A,2023-09-07_12h38.44.386,exp3,2022.2.2,
high_opac_v,0.01,1,0.01,3,0.82,3.5,0.01,0,0.01,4,5,Valid,1,58,171,start,lin,0.14000122607403,0.14000122607403,0.14000122607403,1,True,,,,,,,,,,,,,10,A,2023-09-07_12h38.44.386,exp3,2022.2.2,
low_opac_i,0.4,1,0.01,3,0.82,3.5,0.01,0,0.01,4,5,Invalid,2,58,172,start,lin,0.7792211759480632,0.7792211759480632,0.7792211759480632,1,True,,,,,,,,,,,,,10,A,2023-09-07_12h38.44.386,exp3,2022.2.2,
low_opac_v,0.4,1,0.01,3,0.82,3.5,0.01,0,0.01,4,5,Valid,0,58,173,start,lin,0.2192021922571422,0.2192021922571422,0.2192021922571422,1,True,,,,,,,,,,,,,10,A,2023-09-07_12h38.44.386,exp3,2022.2.2,
low_opac_i,0.4,1,0.01,3,0.82,3.5,0.01,0,0.01,4,5,Invalid,2,59,174,start,lin,0.7766203645302943,0,0.7766203645302943,1,True,,,,,,,,,,,,,10,A,2023-09-07_12h38.44.386,exp3,2022.2.2,
low_opac_v,0.4,1,0.01,3,0.82,3.5,0.01,0,0.01,4,5,Valid,0,59,175,start,lin,0.2076856490443787,0,0.2076856490443787,1,True,,,,,,,,,,,,,10,A,2023-09-07_12h38.44.386,exp3,2022.2.2,
high_opac_v,0.01,1,0.01,3,0.82,3.5,0.01,0,0.01,4,5,Valid,1,59,176,start,lin,0.1380555019228165,0,0.1380555019228165,1,True,,,,,,,,,,,,,10,A,2023-09-07_12h38.44.386,exp3,2022.2.2,
low_opac_v,0.4,1,0.01,3,0.82,3.5,0.01,0,0.01,4,5,Valid,0,60,177,start,lin,0.19773731421410543,0,0.19773731421410543,1,True,,,,,,,,,,,,,10,A,2023-09-07_12h38.44.386,exp3,2022.2.2,
high_opac_v,0.01,1,0.01,3,0.82,3.5,0.01,0,0.01,4,5,Valid,1,60,178,start,lin,0.13620603212076693,0,0.13620603212076693,1,True,,,,,,,,,,,,,10,A,2023-09-07_12h38.44.386,exp3,2022.2.2,
low_opac_i,0.4,1,0.01,3,0.82,3.5,0.01,0,0.01,4,5,Invalid,2,60,179,start,lin,0.7741362625847112,0,0.7741362625847112,1,True,,,,,,,,,,,,,10,A,2023-09-07_12h38.44.386,exp3,2022.2.2,
high_opac_v,0.01,1,0.01,3,0.82,3.5,0.01,0,0.01,4,5,Valid,1,61,180,start,lin,0.1344277230592462,0,0.1344277230592462,1,True,,,,,,,,,,,,,10,A,2023-09-07_12h38.44.386,exp3,2022.2.2,
low_opac_i,0.4,1,0.01,3,0.82,3.5,0.01,0,0.01,4,5,Invalid,2,61,181,start,lin,0.7714976518505756,0,0.7714976518505756,1,True,,,,,,,,,,,,,10,A,2023-09-07_12h38.44.386,exp3,2022.2.2,
low_opac_v,0.4,1,0.01,3,0.82,3.5,0.01,0,0.01,4,5,Valid,0,61,182,start,lin,0.18895411505384233,0,0.18895411505384233,1,True,,,,,,,,,,,,,10,A,2023-09-07_12h38.44.386,exp3,2022.2.2,
high_opac_v,0.01,1,0.01,3,0.82,3.5,0.01,0,0.01,4,5,Valid,1,62,183,start,lin,0.13254174914428996,0,0.13254174914428996,1,True,,,,,,,,,,,,,10,A,2023-09-07_12h38.44.386,exp3,2022.2.2,
low_opac_i,0.4,1,0.01,3,0.82,3.5,0.01,0,0.01,4,5,Invalid,2,62,184,start,lin,0.7688556988402091,0.7688556988402091,0.7688556988402091,1,True,,,,,,,,,,,,,10,A,2023-09-07_12h38.44.386,exp3,2022.2.2,
low_opac_v,0.4,1,0.01,3,0.82,3.5,0.01,0,0.01,4,5,Valid,0,62,185,start,lin,0.1810359144027488,0.1810359144027488,0.1810359144027488,1,True,,,,,,,,,,,,,10,A,2023-09-07_12h38.44.386,exp3,2022.2.2,
low_opac_v,0.4,1,0.01,3,0.82,3.5,0.01,0,0.01,4,5,Valid,0,63,186,start,lin,0.17371053759185906,0,0.17371053759185906,1,True,,,,,,,,,,,,,10,A,2023-09-07_12h38.44.386,exp3,2022.2.2,
high_opac_v,0.01,1,0.01,3,0.82,3.5,0.01,0,0.01,4,5,Valid,1,63,187,start,lin,0.13068275914682206,0.13068275914682206,0.13068275914682206,1,True,,,,,,,,,,,,,10,A,2023-09-07_12h38.44.386,exp3,2022.2.2,
low_opac_i,0.4,1,0.01,3,0.82,3.5,0.01,0,0.01,4,5,Invalid,2,63,188,start,lin,0.7662707621148439,0.7662707621148439,0.7662707621148439,1,True,,,,,,,,,,,,,10,A,2023-09-07_12h38.44.386,exp3,2022.2.2,
high_opac_v,0.01,1,0.01,3,0.82,3.5,0.01,0,0.01,4,5,Valid,1,64,189,start,lin,0.12882666882259547,0,0.12882666882259547,1,True,,,,,,,,,,,,,10,A,2023-09-07_12h38.44.386,exp3,2022.2.2,
low_opac_v,0.4,1,0.01,3,0.82,3.5,0.01,0,0.01,4,5,Valid,0,64,190,start,lin,0.1667908652573941,0.1667908652573941,0.1667908652573941,1,True,,,,,,,,,,,,,10,A,2023-09-07_12h38.44.386,exp3,2022.2.2,
low_opac_i,0.4,1,0.01,3,0.82,3.5,0.01,0,0.01,4,5,Invalid,2,64,191,start,lin,0.7637746726543082,0.7637746726543082,0.7637746726543082,1,True,,,,,,,,,,,,,10,A,2023-09-07_12h38.44.386,exp3,2022.2.2,
low_opac_v,0.4,1,0.01,3,0.82,3.5,0.01,0,0.01,4,5,Valid,0,65,192,start,lin,0.16070269626442638,0,0.16070269626442638,1,True,,,,,,,,,,,,,10,A,2023-09-07_12h38.44.386,exp3,2022.2.2,
high_opac_v,0.01,1,0.01,3,0.82,3.5,0.01,0,0.01,4,5,Valid,1,65,193,start,lin,0.12704449542496105,0.12704449542496105,0.12704449542496105,1,True,,,,,,,,,,,,,10,A,2023-09-07_12h38.44.386,exp3,2022.2.2,
low_opac_i,0.4,1,0.01,3,0.82,3.5,0.01,0,0.01,4,5,Invalid,2,65,194,start,lin,0.7610845555286295,0.7610845555286295,0.7610845555286295,1,True,,,,,,,,,,,,,10,A,2023-09-07_12h38.44.386,exp3,2022.2.2,
low_opac_v,0.4,1,0.01,3,0.82,3.5,0.01,0,0.01,4,5,Valid,0,66,195,start,lin,0.15471850976385582,0.15471850976385582,0.15471850976385582,1,True,,,,,,,,,,,,,10,A,2023-09-07_12h38.44.386,exp3,2022.2.2,
low_opac_i,0.4,1,0.01,3,0.82,3.5,0.01,0,0.01,4,5,Invalid,2,66,196,start,lin,0.7583258487251212,0.7583258487251212,0.7583258487251212,1,True,,,,,,,,,,,,,10,A,2023-09-07_12h38.44.386,exp3,2022.2.2,
high_opac_v,0.01,1,0.01,3,0.82,3.5,0.01,0,0.01,4,5,Valid,1,66,197,start,lin,0.1253348864423775,0.1253348864423775,0.1253348864423775,1,True,,,,,,,,,,,,,10,A,2023-09-07_12h38.44.386,exp3,2022.2.2,
low_opac_i,0.4,1,0.01,3,0.82,3.5,0.01,0,0.01,4,5,Invalid,2,67,198,start,lin,0.7556006752957682,0.7556006752957682,0.7556006752957682,1,True,,,,,,,,,,,,,10,A,2023-09-07_12h38.44.386,exp3,2022.2.2,
high_opac_v,0.01,1,0.01,3,0.82,3.5,0.01,0,0.01,4,5,Valid,1,67,199,start,lin,0.12367730340699634,0.12367730340699634,0.12367730340699634,0,True,,,,,,,,,,,,,10,A,2023-09-07_12h38.44.386,exp3,2022.2.2,
low_opac_v,0.4,1,0.01,3,0.82,3.5,0.01,0,0.01,4,5,Valid,0,67,200,start,lin,0.14881300982703238,0.14881300982703238,0.14881300982703238,1,True,,,,,,,,,,,,,10,A,2023-09-07_12h38.44.386,exp3,2022.2.2,
low_opac_v,0.4,1,0.01,3,0.82,3.5,0.01,0,0.01,4,5,Valid,0,68,201,start,lin,0.14338380109257004,0.14338380109257004,0.14338380109257004,1,True,,,,,,,,,,,,,10,A,2023-09-07_12h38.44.386,exp3,2022.2.2,
high_opac_v,0.01,1,0.01,3,0.82,3.5,0.01,0,0.01,4,5,Valid,1,68,202,start,lin,0.13054479296498175,0,0.13054479296498175,1,True,,,,,,,,,,,,,10,A,2023-09-07_12h38.44.386,exp3,2022.2.2,
low_opac_i,0.4,1,0.01,3,0.82,3.5,0.01,0,0.01,4,5,Invalid,2,68,203,start,lin,0.7529285336475178,0.7529285336475178,0.7529285336475178,1,True,,,,,,,,,,,,,10,A,2023-09-07_12h38.44.386,exp3,2022.2.2,
low_opac_v,0.4,1,0.01,3,0.82,3.5,0.01,0,0.01,4,5,Valid,0,69,204,start,lin,0.137870844019917,0.137870844019917,0.137870844019917,1,True,,,,,,,,,,,,,10,A,2023-09-07_12h38.44.386,exp3,2022.2.2,
high_opac_v,0.01,1,0.01,3,0.82,3.5,0.01,0,0.01,4,5,Valid,1,69,205,start,lin,0.12887780042101057,0,0.12887780042101057,0,True,,,,,,,,,,,,,10,A,2023-09-07_12h38.44.386,exp3,2022.2.2,
low_opac_i,0.4,1,0.01,3,0.82,3.5,0.01,0,0.01,4,5,Invalid,2,69,206,start,lin,0.7499823674235127,0,0.7499823674235127,1,True,,,,,,,,,,,,,10,A,2023-09-07_12h38.44.386,exp3,2022.2.2,
high_opac_v,0.01,1,0.01,3,0.82,3.5,0.01,0,0.01,4,5,Valid,1,70,207,start,lin,0.13543141460547037,0.13543141460547037,0.13543141460547037,1,True,,,,,,,,,,,,,10,A,2023-09-07_12h38.44.386,exp3,2022.2.2,
low_opac_v,0.4,1,0.01,3,0.82,3.5,0.01,0,0.01,4,5,Valid,0,70,208,start,lin,0.1327339362673554,0.1327339362673554,0.1327339362673554,1,True,,,,,,,,,,,,,10,A,2023-09-07_12h38.44.386,exp3,2022.2.2,
low_opac_i,0.4,1,0.01,3,0.82,3.5,0.01,0,0.01,4,5,Invalid,2,70,209,start,lin,0.746820749793267,0,0.746820749793267,0,True,,,,,,,,,,,,,10,A,2023-09-07_12h38.44.386,exp3,2022.2.2,
high_opac_v,0.01,1,0.01,3,0.82,3.5,0.01,0,0.01,4,5,Valid,1,71,210,start,lin,0.13401054556136968,0.13401054556136968,0.13401054556136968,1,True,,,,,,,,,,,,,10,A,2023-09-07_12h38.44.386,exp3,2022.2.2,
low_opac_i,0.4,1,0.01,3,0.82,3.5,0.01,0,0.01,4,5,Invalid,2,71,211,start,lin,0.7592496006575471,0.7592496006575471,0.7592496006575471,0,True,,,,,,,,,,,,,10,A,2023-09-07_12h38.44.386,exp3,2022.2.2,
low_opac_v,0.4,1,0.01,3,0.82,3.5,0.01,0,0.01,4,5,Valid,0,71,212,start,lin,0.12740139131887407,0.12740139131887407,0.12740139131887407,1,True,,,,,,,,,,,,,10,A,2023-09-07_12h38.44.386,exp3,2022.2.2,
high_opac_v,0.01,1,0.01,3,0.82,3.5,0.01,0,0.01,4,5,Valid,1,72,213,start,lin,0.13249204843133452,0,0.13249204843133452,1,True,,,,,,,,,,,,,10,A,2023-09-07_12h38.44.386,exp3,2022.2.2,
low_opac_v,0.4,1,0.01,3,0.82,3.5,0.01,0,0.01,4,5,Valid,0,72,214,start,lin,0.12237142767672438,0,0.12237142767672438,1,True,,,,,,,,,,,,,10,A,2023-09-07_12h38.44.386,exp3,2022.2.2,
low_opac_i,0.4,1,0.01,3,0.82,3.5,0.01,0,0.01,4,5,Invalid,2,72,215,start,lin,0.7677743934159762,0.7677743934159762,0.7677743934159762,0,True,,,,,,,,,,,,,10,A,2023-09-07_12h38.44.386,exp3,2022.2.2,
low_opac_i,0.4,1,0.01,3,0.82,3.5,0.01,0,0.01,4,5,Invalid,2,73,216,start,lin,0.775429524139215,0.775429524139215,0.775429524139215,1,True,,,,,,,,,,,,,10,A,2023-09-07_12h38.44.386,exp3,2022.2.2,
low_opac_v,0.4,1,0.01,3,0.82,3.5,0.01,0,0.01,4,5,Valid,0,73,217,start,lin,0.11704788657910836,0,0.11704788657910836,1,True,,,,,,,,,,,,,10,A,2023-09-07_12h38.44.386,exp3,2022.2.2,
high_opac_v,0.01,1,0.01,3,0.82,3.5,0.01,0,0.01,4,5,Valid,1,73,218,start,lin,0.13098794942239697,0.13098794942239697,0.13098794942239697,1,True,,,,,,,,,,,,,10,A,2023-09-07_12h38.44.386,exp3,2022.2.2,
high_opac_v,0.01,1,0.01,3,0.82,3.5,0.01,0,0.01,4,5,Valid,1,74,219,start,lin,0.12947968189782,0.12947968189782,0.12947968189782,1,True,,,,,,,,,,,,,10,A,2023-09-07_12h38.44.386,exp3,2022.2.2,
low_opac_i,0.4,1,0.01,3,0.82,3.5,0.01,0,0.01,4,5,Invalid,2,74,220,start,lin,0.7738049606705255,0,0.7738049606705255,1,True,,,,,,,,,,,,,10,A,2023-09-07_12h38.44.386,exp3,2022.2.2,
low_opac_v,0.4,1,0.01,3,0.82,3.5,0.01,0,0.01,4,5,Valid,0,74,221,start,lin,0.1119680013667988,0,0.1119680013667988,1,True,,,,,,,,,,,,,10,A,2023-09-07_12h38.44.386,exp3,2022.2.2,
low_opac_i,0.4,1,0.01,3,0.82,3.5,0.01,0,0.01,4,5,Invalid,2,75,222,start,lin,0.7720713410561578,0.7720713410561578,0.7720713410561578,1,True,,,,,,,,,,,,,10,A,2023-09-07_12h38.44.386,exp3,2022.2.2,
high_opac_v,0.01,1,0.01,3,0.82,3.5,0.01,0,0.01,4,5,Valid,1,75,223,start,lin,0.1280117080997799,0,0.1280117080997799,1,True,,,,,,,,,,,,,10,A,2023-09-07_12h38.44.386,exp3,2022.2.2,
low_opac_v,0.4,1,0.01,3,0.82,3.5,0.01,0,0.01,4,5,Valid,0,75,224,start,lin,0.1064782050847769,0.1064782050847769,0.1064782050847769,0,True,,,,,,,,,,,,,10,A,2023-09-07_12h38.44.386,exp3,2022.2.2,
,,,,,,,,,,,,,,,,,,,,,,,0,2274,Valid,noise,0,2,880.2542227001395,1,2.0,12.97901270003058,1,True,10,A,2023-09-07_12h38.44.386,exp3,2022.2.2,
,,,,,,,,,,,,,,,,,,,,,,,0,-1158,Valid,noise,0,2,893.469903100282,1,3.0,6.931240499950945,1,True,10,A,2023-09-07_12h38.44.386,exp3,2022.2.2,
,,,,,,,,,,,,,,,,,,,,,,,0,-557,Valid,noise,0,1,903.8383175001945,0,2.0,5.847702300176024,1,True,10,A,2023-09-07_12h38.44.386,exp3,2022.2.2,
,,,,,,,,,,,,,,,,,,,,,,,0,2274,Valid,noise,0,2,909.4856042002793,1,1.0,3.9467055001296103,1,True,10,A,2023-09-07_12h38.44.386,exp3,2022.2.2,
,,,,,,,,,,,,,,,,,,,,,,,0,-1158,Valid,signal,0,1,913.5499365001451,1,4.0,3.1791471000760794,1,True,10,A,2023-09-07_12h38.44.386,exp3,2022.2.2,
,,,,,,,,,,,,,,,,,,,,,,,0,-557,Valid,noise,0,2,917.9666519002058,1,2.0,4.664208699949086,1,True,10,A,2023-09-07_12h38.44.386,exp3,2022.2.2,
,,,,,,,,,,,,,,,,,,,,,,,0,2274,Valid,signal,0,2,924.0300785002764,0,3.0,3.379105200059712,1,True,10,A,2023-09-07_12h38.44.386,exp3,2022.2.2,
,,,,,,,,,,,,,,,,,,,,,,,0,-1158,Valid,noise,0,2,927.6148942001164,1,2.0,2.746292600175366,1,True,10,A,2023-09-07_12h38.44.386,exp3,2022.2.2,
,,,,,,,,,,,,,,,,,,,,,,,0,1716,Valid,noise,0,2,931.3095737001859,1,2.0,5.030360999982804,1,True,10,A,2023-09-07_12h38.44.386,exp3,2022.2.2,
,,,,,,,,,,,,,,,,,,,,,,,0,1716,Valid,noise,0,2,937.342581700068,1,2.0,2.6293933000415564,1,True,10,A,2023-09-07_12h38.44.386,exp3,2022.2.2,
,,,,,,,,,,,,,,,,,,,,,,,0,-1716,Invalid,noise,0,2,940.9748340002261,1,3.0,2.8627440999262035,1,True,10,A,2023-09-07_12h38.44.386,exp3,2022.2.2,
,,,,,,,,,,,,,,,,,,,,,,,0,-557,Valid,noise,0,2,944.7026512001175,1,2.0,4.447125899838284,1,True,10,A,2023-09-07_12h38.44.386,exp3,2022.2.2,
,,,,,,,,,,,,,,,,,,,,,,,0,557,Valid,signal,0,2,950.2866723001935,0,2.0,2.696053400170058,1,True,10,A,2023-09-07_12h38.44.386,exp3,2022.2.2,
,,,,,,,,,,,,,,,,,,,,,,,0,1158,Invalid,signal,0,1,954.0459087002091,1,4.0,3.063045899849385,1,True,10,A,2023-09-07_12h38.44.386,exp3,2022.2.2,
,,,,,,,,,,,,,,,,,,,,,,,0,557,Valid,noise,0,2,957.8857852001674,1,2.0,4.080355699872598,1,True,10,A,2023-09-07_12h38.44.386,exp3,2022.2.2,
,,,,,,,,,,,,,,,,,,,,,,,0,-1158,Invalid,signal,0,1,963.1342333001085,1,4.0,2.6458264000248164,1,True,10,A,2023-09-07_12h38.44.386,exp3,2022.2.2,
,,,,,,,,,,,,,,,,,,,,,,,0,-1158,Valid,noise,0,2,966.8460889002308,1,3.0,3.8299906000029296,1,True,10,A,2023-09-07_12h38.44.386,exp3,2022.2.2,
,,,,,,,,,,,,,,,,,,,,,,,0,-1716,Valid,noise,0,2,972.7017451000866,1,2.0,5.697504899930209,1,True,10,A,2023-09-07_12h38.44.386,exp3,2022.2.2,
,,,,,,,,,,,,,,,,,,,,,,,0,-557,Valid,signal,0,1,978.7021498002578,1,3.0,3.546545200049877,1,True,10,A,2023-09-07_12h38.44.386,exp3,2022.2.2,
,,,,,,,,,,,,,,,,,,,,,,,0,-1716,Invalid,noise,0,2,982.7180940001272,1,2.0,6.147897799964994,1,True,10,A,2023-09-07_12h38.44.386,exp3,2022.2.2,
,,,,,,,,,,,,,,,,,,,,,,,0,2274,Invalid,noise,0,2,990.3023275001906,1,1.0,4.129636300029233,1,True,10,A,2023-09-07_12h38.44.386,exp3,2022.2.2,
,,,,,,,,,,,,,,,,,,,,,,,0,557,Valid,noise,0,2,995.6142657001037,1,2.0,4.430702399928123,1,True,10,A,2023-09-07_12h38.44.386,exp3,2022.2.2,
,,,,,,,,,,,,,,,,,,,,,,,0,1158,Valid,noise,0,2,1000.9745495002717,1,2.0,2.92900860006921,1,True,10,A,2023-09-07_12h38.44.386,exp3,2022.2.2,
,,,,,,,,,,,,,,,,,,,,,,,0,-1158,Valid,noise,0,2,1004.4940802000929,1,2.0,2.3628809000365436,1,True,10,A,2023-09-07_12h38.44.386,exp3,2022.2.2,
,,,,,,,,,,,,,,,,,,,,,,,0,-557,Valid,signal,0,1,1007.8223280000966,1,4.0,3.112909199902788,1,True,10,A,2023-09-07_12h38.44.386,exp3,2022.2.2,
,,,,,,,,,,,,,,,,,,,,,,,0,1716,Valid,signal,0,1,1012.109836500138,1,4.0,2.6630655999761075,1,True,10,A,2023-09-07_12h38.44.386,exp3,2022.2.2,
,,,,,,,,,,,,,,,,,,,,,,,0,557,Valid,noise,0,2,1015.5666927001439,1,2.0,2.7627397999167442,1,True,10,A,2023-09-07_12h38.44.386,exp3,2022.2.2,
,,,,,,,,,,,,,,,,,,,,,,,0,-2274,Valid,noise,0,2,1020.22170690028,1,4.0,5.0971349000465125,1,True,10,A,2023-09-07_12h38.44.386,exp3,2022.2.2,
,,,,,,,,,,,,,,,,,,,,,,,0,1716,Valid,noise,0,1,1026.462353200186,0,3.0,3.9300847998820245,1,True,10,A,2023-09-07_12h38.44.386,exp3,2022.2.2,
,,,,,,,,,,,,,,,,,,,,,,,0,-1716,Valid,noise,0,1,1034.0303859002888,0,2.0,6.947362500010058,1,True,10,A,2023-09-07_12h38.44.386,exp3,2022.2.2,
,,,,,,,,,,,,,,,,,,,,,,,0,1716,Valid,noise,0,2,1039.1344166002236,1,1.0,3.4799359999597073,1,True,10,A,2023-09-07_12h38.44.386,exp3,2022.2.2,
,,,,,,,,,,,,,,,,,,,,,,,0,1158,Invalid,noise,0,1,1044.734372700099,0,2.0,4.8300594999454916,1,True,10,A,2023-09-07_12h38.44.386,exp3,2022.2.2,
,,,,,,,,,,,,,,,,,,,,,,,0,-1716,Valid,signal,0,1,1048.8775959000923,1,4.0,2.8634655999485403,1,True,10,A,2023-09-07_12h38.44.386,exp3,2022.2.2,
,,,,,,,,,,,,,,,,,,,,,,,0,2274,Invalid,noise,0,2,1054.9899304001592,1,2.0,5.429858399787918,2,True,10,A,2023-09-07_12h38.44.386,exp3,2022.2.2,
,,,,,,,,,,,,,,,,,,,,,,,0,-557,Valid,signal,0,1,1058.87784810015,1,4.0,2.379662799881771,1,True,10,A,2023-09-07_12h38.44.386,exp3,2022.2.2,
,,,,,,,,,,,,,,,,,,,,,,,0,-2274,Valid,signal,0,2,1062.5893951002508,0,2.0,2.762719399994239,1,True,10,A,2023-09-07_12h38.44.386,exp3,2022.2.2,
,,,,,,,,,,,,,,,,,,,,,,,0,557,Valid,noise,0,2,1067.1494896002114,1,3.0,3.8136611999943852,1,True,10,A,2023-09-07_12h38.44.386,exp3,2022.2.2,
,,,,,,,,,,,,,,,,,,,,,,,0,-557,Valid,noise,0,2,1071.085840600077,1,3.0,2.6792334001511335,1,True,10,A,2023-09-07_12h38.44.386,exp3,2022.2.2,
,,,,,,,,,,,,,,,,,,,,,,,0,2274,Valid,noise,0,2,1079.389831600245,1,1.0,7.715520899975672,2,True,10,A,2023-09-07_12h38.44.386,exp3,2022.2.2,
,,,,,,,,,,,,,,,,,,,,,,,0,-1158,Valid,signal,0,1,1083.3578283002134,1,4.0,2.761905999854207,1,True,10,A,2023-09-07_12h38.44.386,exp3,2022.2.2,
,,,,,,,,,,,,,,,,,,,,,,,0,1158,Invalid,signal,0,1,1087.3263642000966,1,4.0,2.4465745000634342,1,True,10,A,2023-09-07_12h38.44.386,exp3,2022.2.2,
,,,,,,,,,,,,,,,,,,,,,,,0,-557,Valid,signal,0,1,1090.685389400227,1,4.0,2.2784993001259863,1,True,10,A,2023-09-07_12h38.44.386,exp3,2022.2.2,
,,,,,,,,,,,,,,,,,,,,,,,0,1158,Valid,noise,0,2,1093.9178260001354,1,2.0,2.9132037998642772,1,True,10,A,2023-09-07_12h38.44.386,exp3,2022.2.2,
,,,,,,,,,,,,,,,,,,,,,,,0,-2274,Invalid,signal,0,2,1098.4295560002793,0,2.0,2.929797099903226,1,True,10,A,2023-09-07_12h38.44.386,exp3,2022.2.2,
,,,,,,,,,,,,,,,,,,,,,,,0,557,Valid,signal,0,1,1102.0620628001634,1,4.0,3.0459467000328004,1,True,10,A,2023-09-07_12h38.44.386,exp3,2022.2.2,
,,,,,,,,,,,,,,,,,,,,,,,0,2274,Valid,noise,0,2,1105.8854875001125,1,2.0,3.663916500052437,1,True,10,A,2023-09-07_12h38.44.386,exp3,2022.2.2,
,,,,,,,,,,,,,,,,,,,,,,,0,1716,Valid,signal,0,1,1110.3826612001285,1,4.0,2.462002599844709,1,True,10,A,2023-09-07_12h38.44.386,exp3,2022.2.2,
,,,,,,,,,,,,,,,,,,,,,,,0,1716,Valid,signal,0,1,1114.541986900149,1,3.0,4.0635060002096,1,True,10,A,2023-09-07_12h38.44.386,exp3,2022.2.2,
,,,,,,,,,,,,,,,,,,,,,,,0,1716,Valid,signal,0,1,1119.0221214001067,1,4.0,2.696482699830085,1,True,10,A,2023-09-07_12h38.44.386,exp3,2022.2.2,
,,,,,,,,,,,,,,,,,,,,,,,0,557,Valid,signal,0,1,1122.9100684002042,1,4.0,2.5623755999840796,1,True,10,A,2023-09-07_12h38.44.386,exp3,2022.2.2,
,,,,,,,,,,,,,,,,,,,,,,,0,-557,Valid,noise,0,2,1128.4138674002606,1,2.0,4.9803595000412315,2,True,10,A,2023-09-07_12h38.44.386,exp3,2022.2.2,
,,,,,,,,,,,,,,,,,,,,,,,0,-2274,Invalid,noise,0,1,1135.9824069002643,0,2.0,6.281318800058216,3,True,10,A,2023-09-07_12h38.44.386,exp3,2022.2.2,
,,,,,,,,,,,,,,,,,,,,,,,0,2274,Valid,signal,0,2,1139.4867443002295,0,2.0,2.2291057999245822,1,True,10,A,2023-09-07_12h38.44.386,exp3,2022.2.2,
,,,,,,,,,,,,,,,,,,,,,,,0,2274,Valid,signal,0,2,1143.00618890021,0,1.0,3.429681699955836,1,True,10,A,2023-09-07_12h38.44.386,exp3,2022.2.2,
,,,,,,,,,,,,,,,,,,,,,,,0,-1716,Invalid,signal,0,1,1147.278474900173,1,4.0,2.629490700084716,1,True,10,A,2023-09-07_12h38.44.386,exp3,2022.2.2,
,,,,,,,,,,,,,,,,,,,,,,,0,-2274,Valid,signal,0,2,1154.0774618000723,0,1.0,6.39678329997696,2,True,10,A,2023-09-07_12h38.44.386,exp3,2022.2.2,
,,,,,,,,,,,,,,,,,,,,,,,0,557,Valid,noise,0,2,1163.0213844000828,1,3.0,7.198192700045183,2,True,10,A,2023-09-07_12h38.44.386,exp3,2022.2.2,
,,,,,,,,,,,,,,,,,,,,,,,0,557,Invalid,signal,0,1,1168.5104744001292,1,4.0,5.064121300121769,2,True,10,A,2023-09-07_12h38.44.386,exp3,2022.2.2,
,,,,,,,,,,,,,,,,,,,,,,,0,-1716,Valid,noise,0,2,1174.2215322002303,1,3.0,4.246509399963543,1,True,10,A,2023-09-07_12h38.44.386,exp3,2022.2.2,
,,,,,,,,,,,,,,,,,,,,,,,0,557,Valid,noise,0,2,1180.3667520002928,1,2.0,5.747227200074121,2,True,10,A,2023-09-07_12h38.44.386,exp3,2022.2.2,
,,,,,,,,,,,,,,,,,,,,,,,0,-1158,Valid,signal,0,1,1189.5825133002363,1,4.0,7.681764899985865,3,True,10,A,2023-09-07_12h38.44.386,exp3,2022.2.2,
,,,,,,,,,,,,,,,,,,,,,,,0,-557,Invalid,signal,0,1,1195.022163100075,1,4.0,4.245919400127605,2,True,10,A,2023-09-07_12h38.44.386,exp3,2022.2.2,
,,,,,,,,,,,,,,,,,,,,,,,0,-557,Valid,signal,0,1,1198.3344775002915,1,4.0,3.229946200037375,1,True,10,A,2023-09-07_12h38.44.386,exp3,2022.2.2,
,,,,,,,,,,,,,,,,,,,,,,,0,2274,Valid,signal,0,2,1203.070449200226,0,1.0,3.312823100015521,1,True,10,A,2023-09-07_12h38.44.386,exp3,2022.2.2,
,,,,,,,,,,,,,,,,,,,,,,,0,-2274,Invalid,noise,0,2,1206.781595800072,1,1.0,2.4794665998779237,1,True,10,A,2023-09-07_12h38.44.386,exp3,2022.2.2,
,,,,,,,,,,,,,,,,,,,,,,,0,1716,Valid,noise,0,1,1211.2937694001012,0,2.0,3.730459700105712,1,True,10,A,2023-09-07_12h38.44.386,exp3,2022.2.2,
,,,,,,,,,,,,,,,,,,,,,,,0,-2274,Valid,signal,0,2,1215.3093629002105,0,1.0,2.896502000046894,1,True,10,A,2023-09-07_12h38.44.386,exp3,2022.2.2,
,,,,,,,,,,,,,,,,,,,,,,,0,-1158,Valid,signal,0,1,1219.1182130002417,1,4.0,2.6286963999737054,1,True,10,A,2023-09-07_12h38.44.386,exp3,2022.2.2,
,,,,,,,,,,,,,,,,,,,,,,,0,-1158,Valid,signal,0,1,1223.1185152002145,1,4.0,3.4298387998715043,1,True,10,A,2023-09-07_12h38.44.386,exp3,2022.2.2,
,,,,,,,,,,,,,,,,,,,,,,,0,2274,Valid,noise,0,2,1227.774094800232,1,3.0,3.4964737999252975,1,True,10,A,2023-09-07_12h38.44.386,exp3,2022.2.2,
,,,,,,,,,,,,,,,,,,,,,,,0,-1158,Invalid,noise,0,2,1231.8222857001238,1,2.0,3.479278000071645,1,True,10,A,2023-09-07_12h38.44.386,exp3,2022.2.2,
,,,,,,,,,,,,,,,,,,,,,,,0,557,Invalid,signal,0,1,1238.4620103002526,1,4.0,5.464009499875829,2,True,10,A,2023-09-07_12h38.44.386,exp3,2022.2.2,
,,,,,,,,,,,,,,,,,,,,,,,0,557,Valid,signal,0,1,1242.6700097001158,1,4.0,3.2466676000040025,1,True,10,A,2023-09-07_12h38.44.386,exp3,2022.2.2,
,,,,,,,,,,,,,,,,,,,,,,,0,2274,Valid,signal,0,2,1251.4222814000677,0,2.0,7.347724799998105,3,True,10,A,2023-09-07_12h38.44.386,exp3,2022.2.2,
,,,,,,,,,,,,,,,,,,,,,,,0,2274,Valid,noise,0,2,1255.614116600249,1,1.0,3.5462552001699805,1,True,10,A,2023-09-07_12h38.44.386,exp3,2022.2.2,
,,,,,,,,,,,,,,,,,,,,,,,0,557,Valid,noise,0,2,1259.9337052002084,1,2.0,2.529567099874839,1,True,10,A,2023-09-07_12h38.44.386,exp3,2022.2.2,
,,,,,,,,,,,,,,,,,,,,,,,0,-1158,Valid,noise,0,2,1263.629603400128,1,2.0,3.279749099863693,1,True,10,A,2023-09-07_12h38.44.386,exp3,2022.2.2,
,,,,,,,,,,,,,,,,,,,,,,,0,1716,Valid,signal,0,2,1267.7584245002363,0,2.0,2.379252899903804,1,True,10,A,2023-09-07_12h38.44.386,exp3,2022.2.2,
,,,,,,,,,,,,,,,,,,,,,,,0,1158,Valid,noise,0,2,1271.726188900182,1,2.0,3.1296055000275373,1,True,10,A,2023-09-07_12h38.44.386,exp3,2022.2.2,
,,,,,,,,,,,,,,,,,,,,,,,0,2274,Invalid,signal,0,2,1275.118266100064,0,1.0,3.2129220000933856,1,True,10,A,2023-09-07_12h38.44.386,exp3,2022.2.2,
,,,,,,,,,,,,,,,,,,,,,,,0,-557,Valid,noise,0,2,1279.374682900263,1,1.0,2.2959426001179963,1,True,10,A,2023-09-07_12h38.44.386,exp3,2022.2.2,
,,,,,,,,,,,,,,,,,,,,,,,0,-2274,Valid,noise,0,2,1284.3346901002806,1,1.0,3.9799213998485357,2,True,10,A,2023-09-07_12h38.44.386,exp3,2022.2.2,
,,,,,,,,,,,,,,,,,,,,,,,0,-1158,Valid,noise,0,2,1287.6294074002653,1,3.0,3.2136574999894947,1,True,10,A,2023-09-07_12h38.44.386,exp3,2022.2.2,
,,,,,,,,,,,,,,,,,,,,,,,0,1716,Invalid,noise,0,2,1291.501346200239,1,3.0,1.962232399964705,1,True,10,A,2023-09-07_12h38.44.386,exp3,2022.2.2,
,,,,,,,,,,,,,,,,,,,,,,,0,-1158,Valid,signal,0,1,1296.5741920000874,1,4.0,4.146392799913883,2,True,10,A,2023-09-07_12h38.44.386,exp3,2022.2.2,
,,,,,,,,,,,,,,,,,,,,,,,0,-2274,Valid,noise,0,2,1299.8699507000856,1,1.0,2.5290182000026107,1,True,10,A,2023-09-07_12h38.44.386,exp3,2022.2.2,
,,,,,,,,,,,,,,,,,,,,,,,0,-2274,Valid,noise,0,2,1304.5099367001094,1,1.0,4.86441839998588,1,True,10,A,2023-09-07_12h38.44.386,exp3,2022.2.2,
,,,,,,,,,,,,,,,,,,,,,,,0,-1716,Valid,signal,0,1,1309.3582675000653,1,4.0,2.4627006000373513,1,True,10,A,2023-09-07_12h38.44.386,exp3,2022.2.2,
,,,,,,,,,,,,,,,,,,,,,,,0,557,Valid,signal,0,1,1312.8614822002128,1,3.0,3.1122527001425624,1,True,10,A,2023-09-07_12h38.44.386,exp3,2022.2.2,
,,,,,,,,,,,,,,,,,,,,,,,0,-1158,Valid,noise,0,2,1317.0062699001282,1,2.0,2.62982889986597,1,True,10,A,2023-09-07_12h38.44.386,exp3,2022.2.2,
,,,,,,,,,,,,,,,,,,,,,,,0,557,Invalid,noise,0,1,1320.989509300096,0,1.0,4.9799879000056535,1,True,10,A,2023-09-07_12h38.44.386,exp3,2022.2.2,
,,,,,,,,,,,,,,,,,,,,,,,0,-2274,Valid,signal,0,2,1326.7496643001214,0,2.0,2.5297361998818815,1,True,10,A,2023-09-07_12h38.44.386,exp3,2022.2.2,
,,,,,,,,,,,,,,,,,,,,,,,0,1716,Invalid,signal,0,1,1330.1417144001462,1,4.0,2.562831399962306,1,True,10,A,2023-09-07_12h38.44.386,exp3,2022.2.2,
,,,,,,,,,,,,,,,,,,,,,,,0,557,Valid,noise,0,2,1333.6143161002547,1,3.0,2.67974039982073,1,True,10,A,2023-09-07_12h38.44.386,exp3,2022.2.2,
,,,,,,,,,,,,,,,,,,,,,,,0,2274,Invalid,signal,0,2,1341.1976269001607,0,1.0,7.113863600185141,1,True,10,A,2023-09-07_12h38.44.386,exp3,2022.2.2,
,,,,,,,,,,,,,,,,,,,,,,,0,-1716,Valid,signal,0,1,1348.7496629001107,1,4.0,5.948234200011939,3,True,10,A,2023-09-07_12h38.44.386,exp3,2022.2.2,
,,,,,,,,,,,,,,,,,,,,,,,0,-557,Valid,signal,0,1,1352.5736425002106,1,3.0,2.7454456000123173,1,True,10,A,2023-09-07_12h38.44.386,exp3,2022.2.2,
,,,,,,,,,,,,,,,,,,,,,,,0,-1716,Valid,signal,0,1,1356.9746663002297,1,4.0,5.580877000000328,1,True,10,A,2023-09-07_12h38.44.386,exp3,2022.2.2,
,,,,,,,,,,,,,,,,,,,,,,,0,-1716,Valid,noise,0,2,1362.7821494000964,1,2.0,3.48044789978303,1,True,10,A,2023-09-07_12h38.44.386,exp3,2022.2.2,
,,,,,,,,,,,,,,,,,,,,,,,0,-2274,Valid,noise,0,2,1367.2945553001482,1,2.0,2.228656299877912,1,True,10,A,2023-09-07_12h38.44.386,exp3,2022.2.2,
,,,,,,,,,,,,,,,,,,,,,,,0,1158,Valid,signal,0,1,1373.4215558001306,1,4.0,5.547736400039867,3,True,10,A,2023-09-07_12h38.44.386,exp3,2022.2.2,
,,,,,,,,,,,,,,,,,,,,,,,0,-1716,Valid,signal,0,1,1376.9261783002876,1,4.0,2.178796400083229,1,True,10,A,2023-09-07_12h38.44.386,exp3,2022.2.2,
,,,,,,,,,,,,,,,,,,,,,,,0,-1716,Valid,noise,0,2,1380.301375800278,1,3.0,3.279886400094256,1,True,10,A,2023-09-07_12h38.44.386,exp3,2022.2.2,
,,,,,,,,,,,,,,,,,,,,,,,0,-1716,Valid,noise,0,1,1384.6212889002636,0,2.0,3.0295686000026762,1,True,10,A,2023-09-07_12h38.44.386,exp3,2022.2.2,
,,,,,,,,,,,,,,,,,,,,,,,0,1716,Valid,noise,0,1,1388.5425284001976,0,2.0,2.7294707000255585,1,True,10,A,2023-09-07_12h38.44.386,exp3,2022.2.2,
,,,,,,,,,,,,,,,,,,,,,,,0,-2274,Valid,signal,0,2,1400.5260130001698,0,1.0,10.732980099972337,5,True,10,A,2023-09-07_12h38.44.386,exp3,2022.2.2,
,,,,,,,,,,,,,,,,,,,,,,,0,1716,Valid,noise,0,2,1404.222382800188,1,1.0,2.6796484000515193,1,True,10,A,2023-09-07_12h38.44.386,exp3,2022.2.2,
,,,,,,,,,,,,,,,,,,,,,,,0,1716,Invalid,signal,0,1,1410.1580992001109,1,3.0,5.496948800049722,2,True,10,A,2023-09-07_12h38.44.386,exp3,2022.2.2,
,,,,,,,,,,,,,,,,,,,,,,,0,1158,Valid,signal,0,1,1414.2053593001328,1,4.0,3.0795446999836713,1,True,10,A,2023-09-07_12h38.44.386,exp3,2022.2.2,
,,,,,,,,,,,,,,,,,,,,,,,0,557,Valid,signal,0,1,1419.0059136000928,1,4.0,3.163399300072342,1,True,10,A,2023-09-07_12h38.44.386,exp3,2022.2.2,
,,,,,,,,,,,,,,,,,,,,,,,0,-1158,Valid,noise,0,2,1423.3903348001186,1,2.0,4.413327699992806,1,True,10,A,2023-09-07_12h38.44.386,exp3,2022.2.2,
,,,,,,,,,,,,,,,,,,,,,,,0,1158,Valid,signal,0,1,1479.902222600067,1,4.0,54.93299670005217,28,True,10,A,2023-09-07_12h38.44.386,exp3,2022.2.2,
,,,,,,,,,,,,,,,,,,,,,,,0,-557,Valid,noise,0,2,1483.8384190001525,1,3.0,2.9131582998670638,1,True,10,A,2023-09-07_12h38.44.386,exp3,2022.2.2,
,,,,,,,,,,,,,,,,,,,,,,,0,-2274,Valid,noise,0,2,1487.9980467001442,1,1.0,3.646674099843949,1,True,10,A,2023-09-07_12h38.44.386,exp3,2022.2.2,
,,,,,,,,,,,,,,,,,,,,,,,0,-557,Valid,signal,0,2,1492.301830700133,0,2.0,2.8296310999430716,1,True,10,A,2023-09-07_12h38.44.386,exp3,2022.2.2,
,,,,,,,,,,,,,,,,,,,,,,,0,2274,Valid,signal,0,2,1509.6625949002337,0,1.0,17.051958399824798,10,True,10,A,2023-09-07_12h38.44.386,exp3,2022.2.2,
,,,,,,,,,,,,,,,,,,,,,,,0,-1158,Valid,signal,0,1,1514.2061009001918,1,4.0,2.9627194001805037,1,True,10,A,2023-09-07_12h38.44.386,exp3,2022.2.2,
,,,,,,,,,,,,,,,,,,,,,,,0,-557,Invalid,signal,0,1,1518.430037100101,1,4.0,2.746923499973491,1,True,10,A,2023-09-07_12h38.44.386,exp3,2022.2.2,
,,,,,,,,,,,,,,,,,,,,,,,0,2274,Valid,noise,0,2,1521.982498000143,1,2.0,2.3126932999584824,1,True,10,A,2023-09-07_12h38.44.386,exp3,2022.2.2,
,,,,,,,,,,,,,,,,,,,,,,,0,1716,Valid,signal,0,1,1525.1824434001464,1,3.0,2.2452211000490934,1,True,10,A,2023-09-07_12h38.44.386,exp3,2022.2.2,
,,,,,,,,,,,,,,,,,,,,,,,0,-1716,Invalid,signal,0,1,1528.462248600088,1,4.0,2.6631219999399036,1,True,10,A,2023-09-07_12h38.44.386,exp3,2022.2.2,
,,,,,,,,,,,,,,,,,,,,,,,0,1158,Valid,signal,0,1,1532.1583560002036,1,4.0,2.2123426001053303,1,True,10,A,2023-09-07_12h38.44.386,exp3,2022.2.2,
,,,,,,,,,,,,,,,,,,,,,,,0,557,Valid,signal,0,1,1580.7494492002297,1,4.0,48.2638618000783,26,True,10,A,2023-09-07_12h38.44.386,exp3,2022.2.2,
,,,,,,,,,,,,,,,,,,,,,,,0,-1158,Invalid,signal,0,1,1584.6379338002298,1,4.0,2.0960687999613583,1,True,10,A,2023-09-07_12h38.44.386,exp3,2022.2.2,
,,,,,,,,,,,,,,,,,,,,,,,0,2274,Valid,signal,0,2,1587.5662453002296,0,1.0,2.445945299929008,1,True,10,A,2023-09-07_12h38.44.386,exp3,2022.2.2,
,,,,,,,,,,,,,,,,,,,,,,,0,1158,Invalid,noise,0,2,1591.3743626002688,1,2.0,2.345679499907419,1,True,10,A,2023-09-07_12h38.44.386,exp3,2022.2.2,
,,,,,,,,,,,,,,,,,,,,,,,0,-557,Invalid,noise,0,2,1595.038525500102,1,2.0,2.8135349999647588,1,True,10,A,2023-09-07_12h38.44.386,exp3,2022.2.2,
,,,,,,,,,,,,,,,,,,,,,,,0,1158,Valid,noise,0,2,1598.3493468002416,1,2.0,2.0790282001253217,1,True,10,A,2023-09-07_12h38.44.386,exp3,2022.2.2,
,,,,,,,,,,,,,,,,,,,,,,,0,-1716,Valid,signal,0,1,1601.4857723002788,1,3.0,2.3623110000044107,1,True,10,A,2023-09-07_12h38.44.386,exp3,2022.2.2,
,,,,,,,,,,,,,,,,,,,,,,,0,1158,Valid,signal,0,1,1604.8135610001627,1,4.0,2.9462896999903023,1,True,10,A,2023-09-07_12h38.44.386,exp3,2022.2.2,
,,,,,,,,,,,,,,,,,,,,,,,0,-1716,Valid,noise,0,1,1608.9570930001792,0,4.0,2.2126591000705957,1,True,10,A,2023-09-07_12h38.44.386,exp3,2022.2.2,
,,,,,,,,,,,,,,,,,,,,,,,0,557,Valid,signal,0,1,1611.902192100184,1,4.0,1.8794352000113577,1,True,10,A,2023-09-07_12h38.44.386,exp3,2022.2.2,
,,,,,,,,,,,,,,,,,,,,,,,0,1158,Valid,noise,0,2,1615.1179426002782,1,4.0,2.462667099898681,1,True,10,A,2023-09-07_12h38.44.386,exp3,2022.2.2,
,,,,,,,,,,,,,,,,,,,,,,,0,-1716,Valid,noise,0,2,1618.7176293001976,1,2.0,3.4958678998518735,1,True,10,A,2023-09-07_12h38.44.386,exp3,2022.2.2,
,,,,,,,,,,,,,,,,,,,,,,,0,-1716,Valid,signal,0,1,1622.8943992001005,1,3.0,2.362867600051686,1,True,10,A,2023-09-07_12h38.44.386,exp3,2022.2.2,
,,,,,,,,,,,,,,,,,,,,,,,0,-557,Valid,signal,0,1,1626.3182896000799,1,4.0,2.5792746997904032,1,True,10,A,2023-09-07_12h38.44.386,exp3,2022.2.2,
,,,,,,,,,,,,,,,,,,,,,,,0,-2274,Valid,signal,0,2,1629.9021771000698,0,1.0,2.579814799828455,1,True,10,A,2023-09-07_12h38.44.386,exp3,2022.2.2,
,,,,,,,,,,,,,,,,,,,,,,,0,-1158,Valid,signal,0,1,1633.4385112002492,1,4.0,3.2297448001336306,1,True,10,A,2023-09-07_12h38.44.386,exp3,2022.2.2,
,,,,,,,,,,,,,,,,,,,,,,,0,2274,Valid,signal,0,2,1638.093318700092,0,1.0,3.2790366001427174,1,True,10,A,2023-09-07_12h38.44.386,exp3,2022.2.2,
,,,,,,,,,,,,,,,,,,,,,,,0,-2274,Valid,noise,0,2,1641.9341602001805,1,1.0,2.296357500134036,1,True,10,A,2023-09-07_12h38.44.386,exp3,2022.2.2,
,,,,,,,,,,,,,,,,,,,,,,,0,-557,Valid,noise,0,2,1645.4381056001876,1,3.0,2.5955091998912394,1,True,10,A,2023-09-07_12h38.44.386,exp3,2022.2.2,
,,,,,,,,,,,,,,,,,,,,,,,0,1158,Valid,signal,0,1,1649.085635600146,1,4.0,2.8964710999280214,1,True,10,A,2023-09-07_12h38.44.386,exp3,2022.2.2,
,,,,,,,,,,,,,,,,,,,,,,,0,-2274,Invalid,signal,0,2,1652.6378864001017,0,1.0,2.262422800064087,1,True,10,A,2023-09-07_12h38.44.386,exp3,2022.2.2,
,,,,,,,,,,,,,,,,,,,,,,,0,-557,Valid,signal,0,1,1656.2382638002746,1,3.0,2.5464502999093384,1,True,10,A,2023-09-07_12h38.44.386,exp3,2022.2.2,
,,,,,,,,,,,,,,,,,,,,,,,0,557,Valid,noise,0,2,1659.4860135002527,1,4.0,2.1963798000942916,1,True,10,A,2023-09-07_12h38.44.386,exp3,2022.2.2,
,,,,,,,,,,,,,,,,,,,,,,,0,557,Valid,signal,0,2,1662.8934269002639,0,4.0,2.5620583000127226,1,True,10,A,2023-09-07_12h38.44.386,exp3,2022.2.2,
,,,,,,,,,,,,,,,,,,,,,,,0,1158,Valid,signal,0,1,1666.2531902000774,1,4.0,2.3799743000417948,1,True,10,A,2023-09-07_12h38.44.386,exp3,2022.2.2,
,,,,,,,,,,,,,,,,,,,,,,,0,-2274,Valid,signal,0,2,1670.126390500227,0,1.0,3.11284750001505,1,True,10,A,2023-09-07_12h38.44.386,exp3,2022.2.2,
,,,,,,,,,,,,,,,,,,,,,,,0,2274,Valid,signal,0,2,1673.9333915002644,0,3.0,2.495868599973619,1,True,10,A,2023-09-07_12h38.44.386,exp3,2022.2.2,
,,,,,,,,,,,,,,,,,,,,,,,0,1158,Valid,noise,0,2,1677.4532520002685,1,1.0,2.3126645998563617,1,True,10,A,2023-09-07_12h38.44.386,exp3,2022.2.2,
,,,,,,,,,,,,,,,,,,,,,,,0,-557,Invalid,noise,0,2,1680.7018549002241,1,1.0,2.095714000053704,1,True,10,A,2023-09-07_12h38.44.386,exp3,2022.2.2,
,,,,,,,,,,,,,,,,,,,,,,,0,1158,Valid,noise,0,2,1683.678088700166,1,1.0,1.912307000020519,1,True,10,A,2023-09-07_12h38.44.386,exp3,2022.2.2,
,,,,,,,,,,,,,,,,,,,,,,,0,1158,Valid,noise,0,2,1686.3656862000935,1,1.0,1.6288413000293076,1,True,10,A,2023-09-07_12h38.44.386,exp3,2022.2.2,
,,,,,,,,,,,,,,,,,,,,,,,0,2274,Valid,noise,0,2,1689.2144403001294,1,1.0,1.7794248999562114,1,True,10,A,2023-09-07_12h38.44.386,exp3,2022.2.2,
,,,,,,,,,,,,,,,,,,,,,,,0,-557,Valid,noise,0,2,1692.061713800067,1,1.0,1.7482268000021577,1,True,10,A,2023-09-07_12h38.44.386,exp3,2022.2.2,
,,,,,,,,,,,,,,,,,,,,,,,0,-1716,Valid,signal,0,1,1695.117352400208,1,4.0,2.560842600185424,1,True,10,A,2023-09-07_12h38.44.386,exp3,2022.2.2,
,,,,,,,,,,,,,,,,,,,,,,,0,-1716,Valid,signal,0,1,1698.3654595001135,1,3.0,2.796165799954906,1,True,10,A,2023-09-07_12h38.44.386,exp3,2022.2.2,
,,,,,,,,,,,,,,,,,,,,,,,0,-1158,Valid,noise,0,2,1702.2851616002154,1,3.0,2.3624356999062,1,True,10,A,2023-09-07_12h38.44.386,exp3,2022.2.2,
,,,,,,,,,,,,,,,,,,,,,,,0,2274,Valid,noise,0,2,1705.9332985002548,1,2.0,2.4958935999311507,1,True,10,A,2023-09-07_12h38.44.386,exp3,2022.2.2,
,,,,,,,,,,,,,,,,,,,,,,,0,1716,Valid,signal,0,1,1709.453322000103,1,2.0,3.813336699968204,1,True,10,A,2023-09-07_12h38.44.386,exp3,2022.2.2,
,,,,,,,,,,,,,,,,,,,,,,,0,1158,Valid,signal,0,1,1714.5092181002256,1,4.0,2.9963769000023603,1,True,10,A,2023-09-07_12h38.44.386,exp3,2022.2.2,
,,,,,,,,,,,,,,,,,,,,,,,0,1158,Valid,signal,0,1,1717.645301300101,1,4.0,1.8459620999637991,1,True,10,A,2023-09-07_12h38.44.386,exp3,2022.2.2,
,,,,,,,,,,,,,,,,,,,,,,,0,-2274,Valid,signal,0,2,1720.8777518002316,0,3.0,2.24574359995313,1,True,10,A,2023-09-07_12h38.44.386,exp3,2022.2.2,
,,,,,,,,,,,,,,,,,,,,,,,0,1716,Valid,signal,0,1,1723.8059025001712,1,3.0,1.9295481001026928,1,True,10,A,2023-09-07_12h38.44.386,exp3,2022.2.2,
,,,,,,,,,,,,,,,,,,,,,,,0,1716,Valid,noise,0,1,1726.9581908001564,0,3.0,2.029210700187832,1,True,10,A,2023-09-07_12h38.44.386,exp3,2022.2.2,
,,,,,,,,,,,,,,,,,,,,,,,0,-2274,Valid,signal,0,1,1730.222258400172,1,1.0,2.9128435999155045,1,True,10,A,2023-09-07_12h38.44.386,exp3,2022.2.2,
,,,,,,,,,,,,,,,,,,,,,,,0,-1716,Valid,noise,0,2,1734.3183181001805,1,1.0,2.596370799932629,1,True,10,A,2023-09-07_12h38.44.386,exp3,2022.2.2,
,,,,,,,,,,,,,,,,,,,,,,,0,1716,Invalid,noise,0,2,1737.7264930002857,1,1.0,2.3130522000137717,1,True,10,A,2023-09-07_12h38.44.386,exp3,2022.2.2,
,,,,,,,,,,,,,,,,,,,,,,,0,-2274,Valid,noise,0,2,1740.878378200112,1,1.0,2.129028100054711,1,True,10,A,2023-09-07_12h38.44.386,exp3,2022.2.2,
,,,,,,,,,,,,,,,,,,,,,,,0,1158,Valid,noise,0,2,1744.1258758001495,1,1.0,2.145813599927351,1,True,10,A,2023-09-07_12h38.44.386,exp3,2022.2.2,
,,,,,,,,,,,,,,,,,,,,,,,0,-1158,Valid,signal,0,1,1747.11804940016,1,4.0,5.597519299946725,1,True,10,A,2023-09-07_12h38.44.386,exp3,2022.2.2,
,,,,,,,,,,,,,,,,,,,,,,,0,-1158,Invalid,noise,0,2,1758.5263682000805,1,1.0,7.330946000060067,4,True,10,A,2023-09-07_12h38.44.386,exp3,2022.2.2,
,,,,,,,,,,,,,,,,,,,,,,,0,-2274,Valid,noise,0,2,1762.1103570002597,1,1.0,2.3457729001529515,1,True,10,A,2023-09-07_12h38.44.386,exp3,2022.2.2,
,,,,,,,,,,,,,,,,,,,,,,,0,1716,Valid,signal,0,1,1765.3893672002014,1,3.0,2.3968096000608057,1,True,10,A,2023-09-07_12h38.44.386,exp3,2022.2.2,
,,,,,,,,,,,,,,,,,,,,,,,0,1716,Valid,noise,0,1,1768.7182644002605,0,1.0,2.3115590000525117,1,True,10,A,2023-09-07_12h38.44.386,exp3,2022.2.2,
,,,,,,,,,,,,,,,,,,,,,,,0,557,Invalid,noise,0,2,1772.2540218001232,1,1.0,2.3964672000147402,1,True,10,A,2023-09-07_12h38.44.386,exp3,2022.2.2,
,,,,,,,,,,,,,,,,,,,,,,,1,-557,Valid,noise,0,2,1899.8381863001268,1,3.0,4.343121600104496,1,True,10,A,2023-09-07_12h38.44.386,exp3,2022.2.2,
,,,,,,,,,,,,,,,,,,,,,,,2,-557,Invalid,noise,0,2,1903.9819968002848,1,3.0,2.0125810001045465,1,True,10,A,2023-09-07_12h38.44.386,exp3,2022.2.2,
,,,,,,,,,,,,,,,,,,,,,,,3,1158,Invalid,noise,0,2,1906.9890854002442,1,3.0,1.895429400028661,1,True,10,A,2023-09-07_12h38.44.386,exp3,2022.2.2,
,,,,,,,,,,,,,,,,,,,,,,,4,-1716,Valid,noise,0,2,1909.6937991001178,1,1.0,1.7793169999495149,1,True,10,A,2023-09-07_12h38.44.386,exp3,2022.2.2,
,,,,,,,,,,,,,,,,,,,,,,,5,-1716,Invalid,noise,0,2,1912.7018363000825,1,1.0,1.8631480999756604,1,True,10,A,2023-09-07_12h38.44.386,exp3,2022.2.2,
,,,,,,,,,,,,,,,,,,,,,,,6,-1716,Valid,signal,0,2,1915.6142114002723,0,1.0,2.061722799902782,1,True,10,A,2023-09-07_12h38.44.386,exp3,2022.2.2,
,,,,,,,,,,,,,,,,,,,,,,,7,2274,Valid,signal,0,2,1918.7820346001536,0,1.0,1.9962379999924451,1,True,10,A,2023-09-07_12h38.44.386,exp3,2022.2.2,
,,,,,,,,,,,,,,,,,,,,,,,8,557,Valid,noise,0,2,1924.6862824002746,1,3.0,6.647701600100845,2,True,10,A,2023-09-07_12h38.44.386,exp3,2022.2.2,
,,,,,,,,,,,,,,,,,,,,,,,9,-557,Valid,signal,0,1,1929.5809962002095,1,3.0,2.3296878000255674,1,True,10,A,2023-09-07_12h38.44.386,exp3,2022.2.2,
,,,,,,,,,,,,,,,,,,,,,,,10,-1716,Valid,signal,0,1,1932.5423471000977,1,3.0,1.7625506001058966,1,True,10,A,2023-09-07_12h38.44.386,exp3,2022.2.2,
,,,,,,,,,,,,,,,,,,,,,,,11,557,Valid,signal,0,2,1935.3569276002236,0,3.0,1.7791659999638796,1,True,10,A,2023-09-07_12h38.44.386,exp3,2022.2.2,
,,,,,,,,,,,,,,,,,,,,,,,12,2274,Valid,signal,0,2,1937.9970736000687,0,2.0,1.9298461999278516,1,True,10,A,2023-09-07_12h38.44.386,exp3,2022.2.2,
,,,,,,,,,,,,,,,,,,,,,,,13,-2274,Valid,signal,0,2,1941.0218165002298,0,3.0,1.8788324999623,1,True,10,A,2023-09-07_12h38.44.386,exp3,2022.2.2,
,,,,,,,,,,,,,,,,,,,,,,,14,2274,Invalid,noise,0,1,1943.8856679000892,0,2.0,1.8624746000859886,1,True,10,A,2023-09-07_12h38.44.386,exp3,2022.2.2,
,,,,,,,,,,,,,,,,,,,,,,,15,2274,Valid,signal,0,2,1947.0376147001516,0,2.0,2.0288489998783916,1,True,10,A,2023-09-07_12h38.44.386,exp3,2022.2.2,
,,,,,,,,,,,,,,,,,,,,,,,16,-1716,Valid,noise,0,2,1949.870363500202,1,1.0,2.5802479998674244,1,True,10,A,2023-09-07_12h38.44.386,exp3,2022.2.2,
,,,,,,,,,,,,,,,,,,,,,,,17,-1716,Valid,signal,0,1,1954.0132329000626,1,2.0,3.0962624000385404,1,True,10,A,2023-09-07_12h38.44.386,exp3,2022.2.2,
,,,,,,,,,,,,,,,,,,,,,,,18,1158,Valid,signal,0,1,1957.6141413000878,1,2.0,2.0121753998100758,1,True,10,A,2023-09-07_12h38.44.386,exp3,2022.2.2,
,,,,,,,,,,,,,,,,,,,,,,,19,-2274,Valid,signal,0,1,1960.9420323001686,1,2.0,2.596388299949467,1,True,10,A,2023-09-07_12h38.44.386,exp3,2022.2.2,
,,,,,,,,,,,,,,,,,,,,,,,20,2274,Valid,signal,0,2,1964.205496400129,0,1.0,1.9959267999511212,1,True,10,A,2023-09-07_12h38.44.386,exp3,2022.2.2,
,,,,,,,,,,,,,,,,,,,,,,,21,-557,Valid,signal,0,1,1967.2302956001367,1,3.0,2.3953939001075923,1,True,10,A,2023-09-07_12h38.44.386,exp3,2022.2.2,
,,,,,,,,,,,,,,,,,,,,,,,22,557,Valid,signal,0,1,1970.653894400224,1,4.0,2.6463558999821544,1,True,10,A,2023-09-07_12h38.44.386,exp3,2022.2.2,
,,,,,,,,,,,,,,,,,,,,,,,23,-557,Valid,noise,0,2,1974.2849824002478,1,4.0,2.295907400082797,1,True,10,A,2023-09-07_12h38.44.386,exp3,2022.2.2,
,,,,,,,,,,,,,,,,,,,,,,,24,2274,Invalid,noise,0,2,1978.1575334002264,1,1.0,2.99636929994449,1,True,10,A,2023-09-07_12h38.44.386,exp3,2022.2.2,
,,,,,,,,,,,,,,,,,,,,,,,25,-1158,Valid,signal,0,2,1981.357505200198,0,1.0,1.8962211001198739,1,True,10,A,2023-09-07_12h38.44.386,exp3,2022.2.2,
,,,,,,,,,,,,,,,,,,,,,,,26,-557,Invalid,signal,0,1,1985.2463542001788,1,1.0,2.426517699845135,1,True,10,A,2023-09-07_12h38.44.386,exp3,2022.2.2,
,,,,,,,,,,,,,,,,,,,,,,,27,557,Valid,signal,0,2,1989.3901092002634,0,1.0,3.170867499895394,1,True,10,A,2023-09-07_12h38.44.386,exp3,2022.2.2,
,,,,,,,,,,,,,,,,,,,,,,,28,-557,Valid,signal,0,2,1991.8063721002545,0,1.0,2.1241644001565874,1,True,10,A,2023-09-07_12h38.44.386,exp3,2022.2.2,
,,,,,,,,,,,,,,,,,,,,,,,29,-1716,Valid,signal,0,2,1994.9412803002633,0,3.0,1.7296194999944419,1,True,10,A,2023-09-07_12h38.44.386,exp3,2022.2.2,
,,,,,,,,,,,,,,,,,,,,,,,30,-557,Valid,noise,0,1,1997.741231100168,0,2.0,1.8956998998764902,1,True,10,A,2023-09-07_12h38.44.386,exp3,2022.2.2,
,,,,,,,,,,,,,,,,,,,,,,,31,-1158,Valid,noise,0,2,2000.6059759000782,1,3.0,1.6783875999972224,1,True,10,A,2023-09-07_12h38.44.386,exp3,2022.2.2,
,,,,,,,,,,,,,,,,,,,,,,,32,-1716,Valid,noise,0,2,2003.2290452001616,1,2.0,1.8795080001000315,1,True,10,A,2023-09-07_12h38.44.386,exp3,2022.2.2,
,,,,,,,,,,,,,,,,,,,,,,,33,-557,Valid,noise,0,2,2006.2062056001741,1,4.0,1.812613499816507,1,True,10,A,2023-09-07_12h38.44.386,exp3,2022.2.2,
,,,,,,,,,,,,,,,,,,,,,,,34,-1158,Invalid,noise,0,1,2008.925932600163,0,4.0,1.713067299919203,1,True,10,A,2023-09-07_12h38.44.386,exp3,2022.2.2,
,,,,,,,,,,,,,,,,,,,,,,,35,1716,Valid,signal,0,1,2009.7572060001548,1,4.0,2.178804999915883,1,True,10,A,2023-09-07_12h38.44.386,exp3,2022.2.2,
,,,,,,,,,,,,,,,,,,,,,,,36,557,Valid,noise,0,1,2015.0052657001652,0,4.0,1.9460390999447554,1,True,10,A,2023-09-07_12h38.44.386,exp3,2022.2.2,
,,,,,,,,,,,,,,,,,,,,,,,37,-1158,Valid,noise,0,1,2017.884988500271,0,4.0,1.7620709999464452,1,True,10,A,2023-09-07_12h38.44.386,exp3,2022.2.2,
,,,,,,,,,,,,,,,,,,,,,,,38,1716,Valid,signal,0,2,2020.5732017001137,0,1.0,3.1469048000872135,1,True,10,A,2023-09-07_12h38.44.386,exp3,2022.2.2,
,,,,,,,,,,,,,,,,,,,,,,,39,-2274,Invalid,noise,0,2,2024.8293320001103,1,1.0,2.161832799902186,1,True,10,A,2023-09-07_12h38.44.386,exp3,2022.2.2,
,,,,,,,,,,,,,,,,,,,,,,,40,-2274,Valid,noise,0,2,2028.0935261002742,1,1.0,2.062673700042069,1,True,10,A,2023-09-07_12h38.44.386,exp3,2022.2.2,
,,,,,,,,,,,,,,,,,,,,,,,41,-557,Valid,signal,0,1,2035.54958730028,1,2.0,7.2312201000750065,4,True,10,A,2023-09-07_12h38.44.386,exp3,2022.2.2,
,,,,,,,,,,,,,,,,,,,,,,,42,557,Valid,noise,0,2,2044.046142600244,1,2.0,7.715572099899873,4,True,10,A,2023-09-07_12h38.44.386,exp3,2022.2.2,
,,,,,,,,,,,,,,,,,,,,,,,43,557,Valid,noise,0,2,2048.0621246001683,1,2.0,2.128379999892786,1,True,10,A,2023-09-07_12h38.44.386,exp3,2022.2.2,
,,,,,,,,,,,,,,,,,,,,,,,44,557,Invalid,signal,0,2,2051.133815600071,0,2.0,1.8794555999338627,1,True,10,A,2023-09-07_12h38.44.386,exp3,2022.2.2,
,,,,,,,,,,,,,,,,,,,,,,,45,2274,Valid,noise,0,1,2053.982073200168,0,3.0,1.8124957999680191,1,True,10,A,2023-09-07_12h38.44.386,exp3,2022.2.2,
,,,,,,,,,,,,,,,,,,,,,,,46,-2274,Invalid,signal,0,1,2056.9099873001687,1,3.0,1.8617214001715183,1,True,10,A,2023-09-07_12h38.44.386,exp3,2022.2.2,
,,,,,,,,,,,,,,,,,,,,,,,47,1158,Valid,signal,0,2,2059.5980316002388,0,3.0,1.4387274999171495,1,True,10,A,2023-09-07_12h38.44.386,exp3,2022.2.2,
,,,,,,,,,,,,,,,,,,,,,,,48,-557,Valid,signal,0,1,2062.0456374001224,1,3.0,1.7029146999120712,1,True,10,A,2023-09-07_12h38.44.386,exp3,2022.2.2,
,,,,,,,,,,,,,,,,,,,,,,,49,-1716,Valid,noise,0,1,2064.9582587000914,0,1.0,1.7294920000713319,1,True,10,A,2023-09-07_12h38.44.386,exp3,2022.2.2,
,,,,,,,,,,,,,,,,,,,,,,,50,2274,Valid,noise,0,2,2067.5504993002396,1,1.0,2.0296123998705298,1,True,10,A,2023-09-07_12h38.44.386,exp3,2022.2.2,
,,,,,,,,,,,,,,,,,,,,,,,51,2274,Invalid,signal,0,2,2070.7652401002124,0,2.0,1.961837099865079,1,True,10,A,2023-09-07_12h38.44.386,exp3,2022.2.2,
,,,,,,,,,,,,,,,,,,,,,,,52,557,Invalid,noise,0,2,2073.581593000097,1,2.0,1.7791038998402655,1,True,10,A,2023-09-07_12h38.44.386,exp3,2022.2.2,
,,,,,,,,,,,,,,,,,,,,,,,53,-1716,Valid,noise,0,2,2076.349128900096,1,2.0,1.5961061001289636,1,True,10,A,2023-09-07_12h38.44.386,exp3,2022.2.2,
,,,,,,,,,,,,,,,,,,,,,,,54,1716,Valid,noise,0,1,2078.909745400073,0,3.0,1.6786749998573214,1,True,10,A,2023-09-07_12h38.44.386,exp3,2022.2.2,
,,,,,,,,,,,,,,,,,,,,,,,55,1158,Valid,noise,0,2,2081.646044400288,1,2.0,1.8461066999007016,1,True,10,A,2023-09-07_12h38.44.386,exp3,2022.2.2,
,,,,,,,,,,,,,,,,,,,,,,,56,1158,Valid,signal,0,1,2084.445148500148,1,3.0,1.6121097998693585,1,True,10,A,2023-09-07_12h38.44.386,exp3,2022.2.2,
,,,,,,,,,,,,,,,,,,,,,,,57,557,Valid,noise,0,2,2089.7257520002313,1,3.0,4.547394699882716,3,True,10,A,2023-09-07_12h38.44.386,exp3,2022.2.2,
,,,,,,,,,,,,,,,,,,,,,,,58,-2274,Valid,noise,0,2,2100.958113600267,1,1.0,10.632813500007614,5,True,10,A,2023-09-07_12h38.44.386,exp3,2022.2.2,
,,,,,,,,,,,,,,,,,,,,,,,59,2274,Valid,noise,0,2,2246.141118600266,1,2.0,146.0344130001031,42,True,10,A,2023-09-07_12h38.44.386,exp3,2022.2.2,
,,,,,,,,,,,,,,,,,,,,,,,60,-557,Valid,noise,0,2,2251.5819871001877,1,2.0,2.129552199970931,1,True,10,A,2023-09-07_12h38.44.386,exp3,2022.2.2,
,,,,,,,,,,,,,,,,,,,,,,,61,2274,Valid,signal,0,2,2254.637126300251,0,1.0,2.296624999959022,1,True,10,A,2023-09-07_12h38.44.386,exp3,2022.2.2,
,,,,,,,,,,,,,,,,,,,,,,,62,2274,Valid,noise,0,2,2257.9010236002505,1,1.0,1.9617427000775933,1,True,10,A,2023-09-07_12h38.44.386,exp3,2022.2.2,
,,,,,,,,,,,,,,,,,,,,,,,63,1716,Valid,signal,0,2,2260.9738655001856,0,3.0,1.8799002000596374,1,True,10,A,2023-09-07_12h38.44.386,exp3,2022.2.2,
,,,,,,,,,,,,,,,,,,,,,,,64,-2274,Valid,noise,0,2,2263.645980300149,1,3.0,1.6621762001886964,1,True,10,A,2023-09-07_12h38.44.386,exp3,2022.2.2,
,,,,,,,,,,,,,,,,,,,,,,,65,2274,Valid,noise,0,2,2266.5575743000954,1,3.0,2.0288734999485314,1,True,10,A,2023-09-07_12h38.44.386,exp3,2022.2.2,
,,,,,,,,,,,,,,,,,,,,,,,66,2274,Valid,noise,0,2,2269.629156900104,1,3.0,2.029562500072643,1,True,10,A,2023-09-07_12h38.44.386,exp3,2022.2.2,
,,,,,,,,,,,,,,,,,,,,,,,67,-1716,Valid,noise,0,2,2272.6218113002833,1,2.0,2.1787556998897344,1,True,10,A,2023-09-07_12h38.44.386,exp3,2022.2.2,
,,,,,,,,,,,,,,,,,,,,,,,68,1158,Valid,noise,0,2,2275.5501531001646,1,2.0,1.7626553000882268,1,True,10,A,2023-09-07_12h38.44.386,exp3,2022.2.2,
,,,,,,,,,,,,,,,,,,,,,,,69,-1716,Valid,noise,0,2,2279.197548500262,1,2.0,2.646100699901581,1,True,10,A,2023-09-07_12h38.44.386,exp3,2022.2.2,
,,,,,,,,,,,,,,,,,,,,,,,70,1716,Valid,signal,0,2,2282.2058963002637,0,3.0,2.3460319000296295,1,True,10,A,2023-09-07_12h38.44.386,exp3,2022.2.2,
,,,,,,,,,,,,,,,,,,,,,,,71,-557,Valid,signal,0,1,2285.5334411002696,1,3.0,2.0958233000710607,1,True,10,A,2023-09-07_12h38.44.386,exp3,2022.2.2,
,,,,,,,,,,,,,,,,,,,,,,,72,2274,Invalid,signal,0,1,2288.3656844000798,1,3.0,1.7130109001882374,1,True,10,A,2023-09-07_12h38.44.386,exp3,2022.2.2,
,,,,,,,,,,,,,,,,,,,,,,,73,-1158,Valid,signal,0,1,2291.2613741001114,1,3.0,1.9116668000351638,1,True,10,A,2023-09-07_12h38.44.386,exp3,2022.2.2,
,,,,,,,,,,,,,,,,,,,,,,,74,1158,Valid,signal,0,1,2294.3968514001463,1,4.0,2.1134573000017554,1,True,10,A,2023-09-07_12h38.44.386,exp3,2022.2.2,
,,,,,,,,,,,,,,,,,,,,,,,75,-557,Valid,noise,0,2,2297.438031300204,1,4.0,3.028771299868822,1,True,10,A,2023-09-07_12h38.44.386,exp3,2022.2.2,
,,,,,,,,,,,,,,,,,,,,,,,76,1716,Invalid,noise,0,2,2305.021525000222,1,3.0,6.031465700129047,3,True,10,A,2023-09-07_12h38.44.386,exp3,2022.2.2,
,,,,,,,,,,,,,,,,,,,,,,,77,557,Valid,noise,0,1,2308.5734074001666,0,3.0,2.3122622000519186,1,True,10,A,2023-09-07_12h38.44.386,exp3,2022.2.2,
,,,,,,,,,,,,,,,,,,,,,,,78,-1158,Valid,signal,0,2,2311.598071300192,0,3.0,1.8960151001811028,1,True,10,A,2023-09-07_12h38.44.386,exp3,2022.2.2,
,,,,,,,,,,,,,,,,,,,,,,,79,-1716,Valid,noise,0,1,2314.4294163002633,0,3.0,1.7957282001152635,1,True,10,A,2023-09-07_12h38.44.386,exp3,2022.2.2,
,,,,,,,,,,,,,,,,,,,,,,,80,1158,Valid,noise,0,1,2317.277982100146,0,3.0,1.6791669998783618,1,True,10,A,2023-09-07_12h38.44.386,exp3,2022.2.2,
,,,,,,,,,,,,,,,,,,,,,,,81,1716,Invalid,noise,0,2,2320.046192600159,1,3.0,1.912737000035122,1,True,10,A,2023-09-07_12h38.44.386,exp3,2022.2.2,
,,,,,,,,,,,,,,,,,,,,,,,82,-1158,Valid,signal,0,2,2323.181466900278,0,3.0,2.212360200006515,1,True,10,A,2023-09-07_12h38.44.386,exp3,2022.2.2,
,,,,,,,,,,,,,,,,,,,,,,,83,2274,Valid,signal,0,1,2326.2377527002245,1,3.0,1.6487564998678863,1,True,10,A,2023-09-07_12h38.44.386,exp3,2022.2.2,
,,,,,,,,,,,,,,,,,,,,,,,84,1158,Valid,signal,0,2,2329.341284800088,0,3.0,2.5435381999704987,1,True,10,A,2023-09-07_12h38.44.386,exp3,2022.2.2,
,,,,,,,,,,,,,,,,,,,,,,,85,557,Invalid,signal,0,1,2333.08514210023,1,4.0,2.7292907000519335,1,True,10,A,2023-09-07_12h38.44.386,exp3,2022.2.2,
,,,,,,,,,,,,,,,,,,,,,,,86,557,Valid,noise,0,2,2336.332986500114,1,3.0,2.246045700041577,1,True,10,A,2023-09-07_12h38.44.386,exp3,2022.2.2,
,,,,,,,,,,,,,,,,,,,,,,,87,1716,Valid,signal,0,1,2339.5333424001,1,4.0,2.479714799905196,1,True,10,A,2023-09-07_12h38.44.386,exp3,2022.2.2,
,,,,,,,,,,,,,,,,,,,,,,,88,1716,Valid,noise,0,1,2342.7179243001156,0,1.0,2.178907699882984,1,True,10,A,2023-09-07_12h38.44.386,exp3,2022.2.2,
,,,,,,,,,,,,,,,,,,,,,,,89,1158,Invalid,noise,0,1,2345.933835500153,0,2.0,2.495987700065598,1,True,10,A,2023-09-07_12h38.44.386,exp3,2022.2.2,
,,,,,,,,,,,,,,,,,,,,,,,90,1716,Valid,noise,0,2,2349.3894687001593,1,1.0,1.745809799991548,1,True,10,A,2023-09-07_12h38.44.386,exp3,2022.2.2,
,,,,,,,,,,,,,,,,,,,,,,,91,-557,Valid,noise,0,2,2352.6379947001114,1,3.0,2.379187900107354,1,True,10,A,2023-09-07_12h38.44.386,exp3,2022.2.2,
,,,,,,,,,,,,,,,,,,,,,,,92,1716,Invalid,signal,0,1,2355.981226900127,1,4.0,2.4126148000359535,1,True,10,A,2023-09-07_12h38.44.386,exp3,2022.2.2,
,,,,,,,,,,,,,,,,,,,,,,,93,1716,Valid,signal,0,1,2359.3421228001826,1,4.0,2.5462152000982314,1,True,10,A,2023-09-07_12h38.44.386,exp3,2022.2.2,
,,,,,,,,,,,,,,,,,,,,,,,94,-1158,Valid,signal,0,1,2364.6378127001226,1,4.0,4.946865799836814,2,True,10,A,2023-09-07_12h38.44.386,exp3,2022.2.2,
,,,,,,,,,,,,,,,,,,,,,,,95,1158,Invalid,signal,0,1,2372.0615929001942,1,3.0,6.197513899998739,3,True,10,A,2023-09-07_12h38.44.386,exp3,2022.2.2,
,,,,,,,,,,,,,,,,,,,,,,,96,1158,Valid,noise,0,2,2375.9177471001167,1,3.0,1.9957500998862088,1,True,10,A,2023-09-07_12h38.44.386,exp3,2022.2.2,
,,,,,,,,,,,,,,,,,,,,,,,97,-2274,Valid,noise,0,1,2378.749591200147,0,1.0,1.8630436998791993,1,True,10,A,2023-09-07_12h38.44.386,exp3,2022.2.2,
,,,,,,,,,,,,,,,,,,,,,,,98,-1158,Valid,noise,0,2,2381.8381330000702,1,3.0,2.445960500044748,1,True,10,A,2023-09-07_12h38.44.386,exp3,2022.2.2,
,,,,,,,,,,,,,,,,,,,,,,,99,2274,Valid,noise,0,2,2389.901844000211,1,2.0,7.4318424998782575,3,True,10,A,2023-09-07_12h38.44.386,exp3,2022.2.2,
,,,,,,,,,,,,,,,,,,,,,,,100,-1158,Valid,noise,0,2,2393.437314200215,1,2.0,2.779255799949169,1,True,10,A,2023-09-07_12h38.44.386,exp3,2022.2.2,
,,,,,,,,,,,,,,,,,,,,,,,101,-1158,Invalid,signal,0,1,2397.6291544002015,1,3.0,2.2450772000011057,1,True,10,A,2023-09-07_12h38.44.386,exp3,2022.2.2,
,,,,,,,,,,,,,,,,,,,,,,,102,2274,Valid,signal,0,2,2403.4691742002033,0,3.0,4.964659299934283,1,True,10,A,2023-09-07_12h38.44.386,exp3,2022.2.2,
,,,,,,,,,,,,,,,,,,,,,,,103,-2274,Valid,noise,0,2,2408.029625300085,1,3.0,3.66272130003199,2,True,10,A,2023-09-07_12h38.44.386,exp3,2022.2.2,
,,,,,,,,,,,,,,,,,,,,,,,104,1716,Valid,noise,0,2,2411.1501549002714,1,3.0,2.4626818001270294,1,True,10,A,2023-09-07_12h38.44.386,exp3,2022.2.2,
,,,,,,,,,,,,,,,,,,,,,,,105,-1716,Invalid,signal,0,2,2419.0217671000864,0,2.0,6.814523799810559,2,True,10,A,2023-09-07_12h38.44.386,exp3,2022.2.2,
,,,,,,,,,,,,,,,,,,,,,,,106,-1716,Invalid,signal,0,1,2426.3497978001833,1,2.0,5.930778699927032,3,True,10,A,2023-09-07_12h38.44.386,exp3,2022.2.2,
,,,,,,,,,,,,,,,,,,,,,,,107,1716,Valid,noise,0,2,2429.628878200194,1,3.0,2.3122203999664634,1,True,10,A,2023-09-07_12h38.44.386,exp3,2022.2.2,
,,,,,,,,,,,,,,,,,,,,,,,108,557,Valid,noise,0,1,2432.8616652002092,0,3.0,2.162492899922654,1,True,10,A,2023-09-07_12h38.44.386,exp3,2022.2.2,
,,,,,,,,,,,,,,,,,,,,,,,109,1716,Valid,signal,0,2,2435.869613900082,0,3.0,1.9290763000026345,1,True,10,A,2023-09-07_12h38.44.386,exp3,2022.2.2,
,,,,,,,,,,,,,,,,,,,,,,,110,-2274,Valid,noise,0,2,2438.877904600231,1,2.0,2.1457521999254823,1,True,10,A,2023-09-07_12h38.44.386,exp3,2022.2.2,
,,,,,,,,,,,,,,,,,,,,,,,111,-1158,Invalid,noise,0,2,2441.8539169002324,1,1.0,1.9127893999684602,1,True,10,A,2023-09-07_12h38.44.386,exp3,2022.2.2,
,,,,,,,,,,,,,,,,,,,,,,,112,-557,Invalid,noise,0,2,2444.9888524001,1,2.0,1.8625939001794904,1,True,10,A,2023-09-07_12h38.44.386,exp3,2022.2.2,
,,,,,,,,,,,,,,,,,,,,,,,113,1716,Valid,noise,0,2,2448.445525200106,1,2.0,2.4462137001100928,1,True,10,A,2023-09-07_12h38.44.386,exp3,2022.2.2,
,,,,,,,,,,,,,,,,,,,,,,,114,1158,Valid,noise,0,2,2451.357970100129,1,3.0,1.9295593998394907,1,True,10,A,2023-09-07_12h38.44.386,exp3,2022.2.2,
,,,,,,,,,,,,,,,,,,,,,,,115,1158,Valid,noise,0,2,2454.061090900097,1,3.0,1.7284497001674026,1,True,10,A,2023-09-07_12h38.44.386,exp3,2022.2.2,
,,,,,,,,,,,,,,,,,,,,,,,116,-2274,Valid,signal,0,1,2456.9900289000943,1,2.0,1.8457510999869555,1,True,10,A,2023-09-07_12h38.44.386,exp3,2022.2.2,
,,,,,,,,,,,,,,,,,,,,,,,117,-557,Valid,noise,0,2,2460.973422100069,1,1.0,2.9965764998923987,1,True,10,A,2023-09-07_12h38.44.386,exp3,2022.2.2,
,,,,,,,,,,,,,,,,,,,,,,,118,-557,Valid,noise,0,2,2463.6134328001644,1,1.0,1.5791302998550236,1,True,10,A,2023-09-07_12h38.44.386,exp3,2022.2.2,
,,,,,,,,,,,,,,,,,,,,,,,119,-2274,Valid,noise,0,2,2466.3495613001287,1,2.0,1.7121243001893163,1,True,10,A,2023-09-07_12h38.44.386,exp3,2022.2.2,
,,,,,,,,,,,,,,,,,,,,,,,120,1158,Valid,noise,0,2,2468.9420101002324,1,2.0,1.5621762999799103,1,True,10,A,2023-09-07_12h38.44.386,exp3,2022.2.2,
,,,,,,,,,,,,,,,,,,,,,,,121,557,Valid,signal,0,2,2472.524672200205,0,2.0,2.5790731001179665,1,True,10,A,2023-09-07_12h38.44.386,exp3,2022.2.2,
,,,,,,,,,,,,,,,,,,,,,,,122,-1716,Valid,signal,0,1,2478.157922900282,1,4.0,4.864417100092396,3,True,10,A,2023-09-07_12h38.44.386,exp3,2022.2.2,
,,,,,,,,,,,,,,,,,,,,,,,123,-1158,Valid,signal,0,1,2481.277570700273,1,4.0,1.995807999977842,1,True,10,A,2023-09-07_12h38.44.386,exp3,2022.2.2,
,,,,,,,,,,,,,,,,,,,,,,,124,-1158,Valid,signal,0,1,2483.9806506002788,1,3.0,1.6288459000643343,1,True,10,A,2023-09-07_12h38.44.386,exp3,2022.2.2,
,,,,,,,,,,,,,,,,,,,,,,,125,-1158,Valid,noise,0,1,2486.8140335001517,0,3.0,1.8624714999459684,1,True,10,A,2023-09-07_12h38.44.386,exp3,2022.2.2,
,,,,,,,,,,,,,,,,,,,,,,,126,1158,Valid,noise,0,2,2489.6928822002374,1,2.0,1.8287808999884874,1,True,10,A,2023-09-07_12h38.44.386,exp3,2022.2.2,
,,,,,,,,,,,,,,,,,,,,,,,127,1716,Valid,noise,0,1,2492.86091960012,0,2.0,2.195720500079915,1,True,10,A,2023-09-07_12h38.44.386,exp3,2022.2.2,
,,,,,,,,,,,,,,,,,,,,,,,128,557,Valid,signal,0,2,2495.6935456001665,0,4.0,1.712565700057894,1,True,10,A,2023-09-07_12h38.44.386,exp3,2022.2.2,
,,,,,,,,,,,,,,,,,,,,,,,129,-1716,Valid,noise,0,2,2500.0937014000956,1,4.0,3.3036740000825375,2,True,10,A,2023-09-07_12h38.44.386,exp3,2022.2.2,
,,,,,,,,,,,,,,,,,,,,,,,130,-2274,Valid,signal,0,2,2502.637668300187,0,4.0,2.0888349001761526,1,True,10,A,2023-09-07_12h38.44.386,exp3,2022.2.2,
,,,,,,,,,,,,,,,,,,,,,,,131,-2274,Valid,signal,0,2,2506.2371500001755,0,1.0,2.3459973998833448,1,True,10,A,2023-09-07_12h38.44.386,exp3,2022.2.2,
,,,,,,,,,,,,,,,,,,,,,,,132,557,Valid,signal,0,2,2509.309960800223,0,3.0,2.1127460000570863,1,True,10,A,2023-09-07_12h38.44.386,exp3,2022.2.2,
,,,,,,,,,,,,,,,,,,,,,,,133,-1158,Valid,signal,0,2,2512.268792200135,0,1.0,2.5791306998580694,1,True,10,A,2023-09-07_12h38.44.386,exp3,2022.2.2,
,,,,,,,,,,,,,,,,,,,,,,,134,-1716,Valid,signal,0,2,2515.852705300087,0,1.0,3.4629832999780774,1,True,10,A,2023-09-07_12h38.44.386,exp3,2022.2.2,
,,,,,,,,,,,,,,,,,,,,,,,135,-557,Invalid,signal,0,2,2520.4609172001947,0,3.0,2.0128240000922233,1,True,10,A,2023-09-07_12h38.44.386,exp3,2022.2.2,
,,,,,,,,,,,,,,,,,,,,,,,136,-1716,Valid,signal,0,1,2523.580696300138,1,4.0,2.278908400097862,1,True,10,A,2023-09-07_12h38.44.386,exp3,2022.2.2,
,,,,,,,,,,,,,,,,,,,,,,,137,-1158,Invalid,signal,0,1,2529.677889400162,1,4.0,4.997252700151876,3,True,10,A,2023-09-07_12h38.44.386,exp3,2022.2.2,
,,,,,,,,,,,,,,,,,,,,,,,138,1716,Invalid,signal,0,2,2706.861587200081,0,2.0,177.4805413999129,51,True,10,A,2023-09-07_12h38.44.386,exp3,2022.2.2,
,,,,,,,,,,,,,,,,,,,,,,,139,1158,Valid,signal,0,2,2713.0376295002643,0,2.0,4.030006299959496,2,True,10,A,2023-09-07_12h38.44.386,exp3,2022.2.2,
,,,,,,,,,,,,,,,,,,,,,,,140,557,Valid,noise,0,2,2717.7579521001317,1,2.0,3.7137325999792665,2,True,10,A,2023-09-07_12h38.44.386,exp3,2022.2.2,
,,,,,,,,,,,,,,,,,,,,,,,141,-557,Valid,signal,0,2,2720.6688452002127,0,2.0,1.745333099970594,1,True,10,A,2023-09-07_12h38.44.386,exp3,2022.2.2,
,,,,,,,,,,,,,,,,,,,,,,,142,1158,Valid,signal,0,1,2723.502103500068,1,2.0,1.6790569999720901,1,True,10,A,2023-09-07_12h38.44.386,exp3,2022.2.2,
,,,,,,,,,,,,,,,,,,,,,,,143,-2274,Valid,signal,0,2,2726.125730600208,0,1.0,1.9294475000351667,1,True,10,A,2023-09-07_12h38.44.386,exp3,2022.2.2,
,,,,,,,,,,,,,,,,,,,,,,,144,2274,Valid,noise,0,2,2730.413861700101,1,1.0,3.1295875997748226,2,True,10,A,2023-09-07_12h38.44.386,exp3,2022.2.2,
,,,,,,,,,,,,,,,,,,,,,,,145,2274,Valid,signal,0,2,2733.1964761002455,0,1.0,1.963188599795103,1,True,10,A,2023-09-07_12h38.44.386,exp3,2022.2.2,
,,,,,,,,,,,,,,,,,,,,,,,146,-2274,Invalid,noise,0,1,2736.1574422002304,0,1.0,1.8120611999183893,1,True,10,A,2023-09-07_12h38.44.386,exp3,2022.2.2,
,,,,,,,,,,,,,,,,,,,,,,,147,-1716,Valid,signal,0,1,2739.0373692002613,1,1.0,1.7794743000995368,1,True,10,A,2023-09-07_12h38.44.386,exp3,2022.2.2,
,,,,,,,,,,,,,,,,,,,,,,,148,1716,Valid,noise,0,2,2741.7725386002567,1,1.0,1.7619510001968592,1,True,10,A,2023-09-07_12h38.44.386,exp3,2022.2.2,
,,,,,,,,,,,,,,,,,,,,,,,149,-1158,Valid,noise,0,2,2742.3011318002827,1,3.0,3.029299900168553,1,True,10,A,2023-09-07_12h38.44.386,exp3,2022.2.2,
,,,,,,,,,,,,,,,,,,,,,,,150,1158,Valid,noise,0,2,2748.5567141000647,1,3.0,1.8127749999985099,1,True,10,A,2023-09-07_12h38.44.386,exp3,2022.2.2,
,,,,,,,,,,,,,,,,,,,,,,,151,-557,Valid,signal,0,1,2751.997236000141,1,4.0,2.663099199999124,1,True,10,A,2023-09-07_12h38.44.386,exp3,2022.2.2,
,,,,,,,,,,,,,,,,,,,,,,,152,-1158,Valid,noise,0,2,2755.3738486000802,1,3.0,2.312312899855897,1,True,10,A,2023-09-07_12h38.44.386,exp3,2022.2.2,
,,,,,,,,,,,,,,,,,,,,,,,153,1716,Valid,signal,0,1,2758.525434400188,1,2.0,1.8461085001472384,1,True,10,A,2023-09-07_12h38.44.386,exp3,2022.2.2,
,,,,,,,,,,,,,,,,,,,,,,,154,-1158,Valid,noise,0,2,2761.516509700101,1,2.0,2.0290794998873025,1,True,10,A,2023-09-07_12h38.44.386,exp3,2022.2.2,
,,,,,,,,,,,,,,,,,,,,,,,155,-1716,Invalid,noise,0,2,2764.7650580001064,1,2.0,2.413149799918756,1,True,10,A,2023-09-07_12h38.44.386,exp3,2022.2.2,
,,,,,,,,,,,,,,,,,,,,,,,156,-557,Valid,signal,0,1,2770.1570346001536,1,4.0,4.3798738000914454,2,True,10,A,2023-09-07_12h38.44.386,exp3,2022.2.2,
,,,,,,,,,,,,,,,,,,,,,,,157,1716,Valid,signal,0,1,2777.91734870011,1,3.0,6.980601799907163,4,True,10,A,2023-09-07_12h38.44.386,exp3,2022.2.2,
,,,,,,,,,,,,,,,,,,,,,,,158,-2274,Invalid,signal,0,1,2781.053427300183,1,4.0,1.929019199917093,1,True,10,A,2023-09-07_12h38.44.386,exp3,2022.2.2,
,,,,,,,,,,,,,,,,,,,,,,,159,1158,Valid,signal,0,1,2783.9496290001553,1,4.0,1.7291780998930335,1,True,10,A,2023-09-07_12h38.44.386,exp3,2022.2.2,
,,,,,,,,,,,,,,,,,,,,,,,160,557,Valid,signal,0,1,2788.973833600292,1,4.0,4.146823199931532,1,True,10,A,2023-09-07_12h38.44.386,exp3,2022.2.2,
,,,,,,,,,,,,,,,,,,,,,,,161,557,Invalid,noise,0,2,2792.1894583001267,1,4.0,2.179577900096774,1,True,10,A,2023-09-07_12h38.44.386,exp3,2022.2.2,
,,,,,,,,,,,,,,,,,,,,,,,162,-1158,Valid,noise,0,2,2795.5018941001035,1,3.0,2.212808599928394,1,True,10,A,2023-09-07_12h38.44.386,exp3,2022.2.2,
,,,,,,,,,,,,,,,,,,,,,,,163,1716,Valid,noise,0,2,2798.5895438001025,1,2.0,2.078707499895245,1,True,10,A,2023-09-07_12h38.44.386,exp3,2022.2.2,
,,,,,,,,,,,,,,,,,,,,,,,164,-2274,Valid,noise,0,2,2801.965214200085,1,1.0,2.3458864998538047,1,True,10,A,2023-09-07_12h38.44.386,exp3,2022.2.2,
,,,,,,,,,,,,,,,,,,,,,,,165,-2274,Valid,signal,0,1,2805.1018025001977,1,1.0,1.7828278001397848,1,True,10,A,2023-09-07_12h38.44.386,exp3,2022.2.2,
,,,,,,,,,,,,,,,,,,,,,,,166,1158,Valid,signal,0,1,2808.493828700157,1,4.0,3.3768575999420136,1,True,10,A,2023-09-07_12h38.44.386,exp3,2022.2.2,
,,,,,,,,,,,,,,,,,,,,,,,167,-1716,Valid,signal,0,1,2812.1568747002166,1,3.0,2.0621654998976737,1,True,10,A,2023-09-07_12h38.44.386,exp3,2022.2.2,
,,,,,,,,,,,,,,,,,,,,,,,168,2274,Valid,signal,0,2,2815.276626000181,0,3.0,2.445785599993542,1,True,10,A,2023-09-07_12h38.44.386,exp3,2022.2.2,
,,,,,,,,,,,,,,,,,,,,,,,169,-2274,Valid,noise,0,1,2818.349868300138,0,1.0,2.1959704998880625,1,True,10,A,2023-09-07_12h38.44.386,exp3,2022.2.2,
,,,,,,,,,,,,,,,,,,,,,,,170,2274,Valid,noise,0,2,2821.6449385001324,1,1.0,1.8460651000496,1,True,10,A,2023-09-07_12h38.44.386,exp3,2022.2.2,
,,,,,,,,,,,,,,,,,,,,,,,171,1158,Invalid,signal,0,2,2824.4300155001692,0,3.0,2.062190599972382,1,True,10,A,2023-09-07_12h38.44.386,exp3,2022.2.2,
,,,,,,,,,,,,,,,,,,,,,,,172,-1158,Valid,signal,0,1,2827.4858599002473,1,3.0,1.7297239999752492,1,True,10,A,2023-09-07_12h38.44.386,exp3,2022.2.2,
,,,,,,,,,,,,,,,,,,,,,,,173,-2274,Valid,signal,0,2,2830.25252180011,0,3.0,1.6452766000293195,1,True,10,A,2023-09-07_12h38.44.386,exp3,2022.2.2,
,,,,,,,,,,,,,,,,,,,,,,,174,557,Valid,signal,0,2,2832.925347900251,0,3.0,1.812128199962899,1,True,10,A,2023-09-07_12h38.44.386,exp3,2022.2.2,
,,,,,,,,,,,,,,,,,,,,,,,175,-2274,Valid,signal,0,1,2835.6938585001044,1,3.0,1.796345700044185,1,True,10,A,2023-09-07_12h38.44.386,exp3,2022.2.2,
,,,,,,,,,,,,,,,,,,,,,,,176,557,Valid,signal,0,2,2837.0691734002903,0,3.0,2.1122129999566823,1,True,10,A,2023-09-07_12h38.44.386,exp3,2022.2.2,
,,,,,,,,,,,,,,,,,,,,,,,2,-557,Valid,noise,0,2,2980.2684099001344,1,3.0,2.060086299898103,1,True,10,A,2023-09-07_12h38.44.386,exp3,2022.2.2,
,,,,,,,,,,,,,,,,,,,,,,,4,-1158,Valid,signal,0,2,2983.1168839002494,0,3.0,1.778646299848333,1,True,10,A,2023-09-07_12h38.44.386,exp3,2022.2.2,
,,,,,,,,,,,,,,,,,,,,,,,6,-1716,Valid,noise,0,2,2985.901787600247,1,3.0,1.6626745997928083,1,True,10,A,2023-09-07_12h38.44.386,exp3,2022.2.2,
,,,,,,,,,,,,,,,,,,,,,,,8,-2274,Valid,noise,0,2,2988.6534460000694,1,3.0,1.8622729999478906,1,True,10,A,2023-09-07_12h38.44.386,exp3,2022.2.2,
,,,,,,,,,,,,,,,,,,,,,,,10,-1158,Invalid,signal,0,2,2991.661207700148,0,3.0,1.896231299964711,1,True,10,A,2023-09-07_12h38.44.386,exp3,2022.2.2,
,,,,,,,,,,,,,,,,,,,,,,,12,-1716,Valid,signal,0,1,2994.253039600095,1,3.0,1.7123340999241918,1,True,10,A,2023-09-07_12h38.44.386,exp3,2022.2.2,
,,,,,,,,,,,,,,,,,,,,,,,14,-1158,Invalid,noise,0,2,2997.005206900183,1,3.0,1.4264193000271916,1,True,10,A,2023-09-07_12h38.44.386,exp3,2022.2.2,
,,,,,,,,,,,,,,,,,,,,,,,16,2274,Valid,signal,0,2,2999.469347400125,0,2.0,1.7978534998837858,1,True,10,A,2023-09-07_12h38.44.386,exp3,2022.2.2,
,,,,,,,,,,,,,,,,,,,,,,,18,-557,Valid,noise,0,2,3002.3016218002886,1,2.0,1.5501232000533491,1,True,10,A,2023-09-07_12h38.44.386,exp3,2022.2.2,
,,,,,,,,,,,,,,,,,,,,,,,20,557,Valid,noise,0,2,3005.357389600249,1,3.0,2.3252489001024514,1,True,10,A,2023-09-07_12h38.44.386,exp3,2022.2.2,
,,,,,,,,,,,,,,,,,,,,,,,22,-557,Valid,noise,0,1,3008.1886349001434,0,2.0,2.079500899882987,1,True,10,A,2023-09-07_12h38.44.386,exp3,2022.2.2,
,,,,,,,,,,,,,,,,,,,,,,,24,-557,Invalid,noise,0,2,3017.0210199002177,1,2.0,7.631128400098532,3,True,10,A,2023-09-07_12h38.44.386,exp3,2022.2.2,
,,,,,,,,,,,,,,,,,,,,,,,26,-1158,Valid,signal,0,1,3021.564384000143,1,2.0,3.829855900024995,1,True,10,A,2023-09-07_12h38.44.386,exp3,2022.2.2,
,,,,,,,,,,,,,,,,,,,,,,,28,2274,Valid,signal,0,2,3024.8776521002874,0,1.0,1.6840568000916392,1,True,10,A,2023-09-07_12h38.44.386,exp3,2022.2.2,
,,,,,,,,,,,,,,,,,,,,,,,30,1716,Valid,signal,0,1,3027.4535714001395,1,1.0,1.9408853000495583,1,True,10,A,2023-09-07_12h38.44.386,exp3,2022.2.2,
,,,,,,,,,,,,,,,,,,,,,,,32,-2274,Valid,noise,0,2,3030.5091715001035,1,1.0,1.9619966000318527,1,True,10,A,2023-09-07_12h38.44.386,exp3,2022.2.2,
,,,,,,,,,,,,,,,,,,,,,,,34,-2274,Valid,signal,0,2,3033.5336391001474,0,1.0,1.9460645001381636,1,True,10,A,2023-09-07_12h38.44.386,exp3,2022.2.2,
,,,,,,,,,,,,,,,,,,,,,,,36,2274,Valid,noise,0,2,3036.3335561002605,1,1.0,1.6954689000267535,1,True,10,A,2023-09-07_12h38.44.386,exp3,2022.2.2,
,,,,,,,,,,,,,,,,,,,,,,,38,-557,Valid,signal,0,1,3042.5569488001056,1,4.0,5.4974958000238985,3,True,10,A,2023-09-07_12h38.44.386,exp3,2022.2.2,
,,,,,,,,,,,,,,,,,,,,,,,40,-557,Valid,noise,0,2,3045.724423600128,1,4.0,2.12925469991751,1,True,10,A,2023-09-07_12h38.44.386,exp3,2022.2.2,
,,,,,,,,,,,,,,,,,,,,,,,42,1716,Valid,signal,0,1,3049.0364212002605,1,4.0,2.3130723999347538,1,True,10,A,2023-09-07_12h38.44.386,exp3,2022.2.2,
,,,,,,,,,,,,,,,,,,,,,,,44,1158,Valid,signal,0,1,3052.236401300179,1,4.0,2.1619343999773264,1,True,10,A,2023-09-07_12h38.44.386,exp3,2022.2.2,
,,,,,,,,,,,,,,,,,,,,,,,46,557,Valid,signal,0,1,3055.181495900266,1,4.0,1.8126459000632167,1,True,10,A,2023-09-07_12h38.44.386,exp3,2022.2.2,
,,,,,,,,,,,,,,,,,,,,,,,48,2274,Valid,signal,0,2,3058.092647400219,0,1.0,1.8632073001936078,1,True,10,A,2023-09-07_12h38.44.386,exp3,2022.2.2,
,,,,,,,,,,,,,,,,,,,,,,,50,-1716,Valid,signal,0,2,3060.925385700073,0,2.0,2.8621765999123454,1,True,10,A,2023-09-07_12h38.44.386,exp3,2022.2.2,
,,,,,,,,,,,,,,,,,,,,,,,52,1716,Valid,signal,0,2,3064.749702000292,0,2.0,2.296275000087917,1,True,10,A,2023-09-07_12h38.44.386,exp3,2022.2.2,
,,,,,,,,,,,,,,,,,,,,,,,54,-2274,Invalid,noise,0,1,3067.93294360023,0,1.0,1.8120759001467377,1,True,10,A,2023-09-07_12h38.44.386,exp3,2022.2.2,
,,,,,,,,,,,,,,,,,,,,,,,56,1158,Valid,signal,0,1,3070.892339200247,1,4.0,2.0463142001535743,1,True,10,A,2023-09-07_12h38.44.386,exp3,2022.2.2,
,,,,,,,,,,,,,,,,,,,,,,,58,-557,Invalid,signal,0,1,3074.0288755001966,1,3.0,1.945379100041464,1,True,10,A,2023-09-07_12h38.44.386,exp3,2022.2.2,
,,,,,,,,,,,,,,,,,,,,,,,60,-1716,Invalid,noise,0,1,3077.4525137001183,0,3.0,2.496225800132379,1,True,10,A,2023-09-07_12h38.44.386,exp3,2022.2.2,
,,,,,,,,,,,,,,,,,,,,,,,62,557,Valid,noise,0,1,3080.2374813002534,0,3.0,1.6119782000314444,1,True,10,A,2023-09-07_12h38.44.386,exp3,2022.2.2,
,,,,,,,,,,,,,,,,,,,,,,,64,2274,Invalid,signal,0,1,3083.26108390023,1,3.0,2.212697400012985,1,True,10,A,2023-09-07_12h38.44.386,exp3,2022.2.2,
,,,,,,,,,,,,,,,,,,,,,,,66,-2274,Valid,signal,0,2,3086.1096486002207,0,3.0,1.5623414998408407,1,True,10,A,2023-09-07_12h38.44.386,exp3,2022.2.2,
,,,,,,,,,,,,,,,,,,,,,,,68,1716,Valid,signal,0,2,3088.6525843001436,0,3.0,1.6465135999023914,1,True,10,A,2023-09-07_12h38.44.386,exp3,2022.2.2,
,,,,,,,,,,,,,,,,,,,,,,,70,1716,Valid,signal,0,1,3091.38954520016,1,3.0,1.6617678001057357,1,True,10,A,2023-09-07_12h38.44.386,exp3,2022.2.2,
,,,,,,,,,,,,,,,,,,,,,,,72,1716,Valid,signal,0,1,3093.997747000074,1,3.0,1.5212703999131918,1,True,10,A,2023-09-07_12h38.44.386,exp3,2022.2.2,
,,,,,,,,,,,,,,,,,,,,,,,74,-557,Valid,signal,0,1,3096.780757400207,1,3.0,2.003691599937156,1,True,10,A,2023-09-07_12h38.44.386,exp3,2022.2.2,
,,,,,,,,,,,,,,,,,,,,,,,76,557,Valid,signal,0,1,3099.645213200245,1,4.0,1.862658299971372,1,True,10,A,2023-09-07_12h38.44.386,exp3,2022.2.2,
,,,,,,,,,,,,,,,,,,,,,,,78,2274,Valid,signal,0,2,3102.4292339002714,0,2.0,1.6792227998375893,1,True,10,A,2023-09-07_12h38.44.386,exp3,2022.2.2,
,,,,,,,,,,,,,,,,,,,,,,,80,-557,Valid,signal,0,2,3105.100629300112,0,2.0,1.6790634000208229,1,True,10,A,2023-09-07_12h38.44.386,exp3,2022.2.2,
,,,,,,,,,,,,,,,,,,,,,,,82,-1158,Valid,noise,0,1,3107.788700800156,0,1.0,1.662278600037098,1,True,10,A,2023-09-07_12h38.44.386,exp3,2022.2.2,
,,,,,,,,,,,,,,,,,,,,,,,84,-1158,Valid,noise,0,1,3110.6370616001077,0,3.0,1.846650700084865,1,True,10,A,2023-09-07_12h38.44.386,exp3,2022.2.2,
,,,,,,,,,,,,,,,,,,,,,,,86,-1158,Invalid,noise,0,1,3113.3884664000943,0,4.0,1.7121220000553876,1,True,10,A,2023-09-07_12h38.44.386,exp3,2022.2.2,
,,,,,,,,,,,,,,,,,,,,,,,88,557,Valid,signal,0,2,3116.140790300211,0,3.0,1.7287566000595689,1,True,10,A,2023-09-07_12h38.44.386,exp3,2022.2.2,
,,,,,,,,,,,,,,,,,,,,,,,90,-1716,Valid,signal,0,2,3118.7973947001155,0,2.0,1.6624551999848336,1,True,10,A,2023-09-07_12h38.44.386,exp3,2022.2.2,
,,,,,,,,,,,,,,,,,,,,,,,92,1158,Valid,signal,0,1,3121.4524174002,1,3.0,1.6284217999782413,1,True,10,A,2023-09-07_12h38.44.386,exp3,2022.2.2,
,,,,,,,,,,,,,,,,,,,,,,,94,2274,Valid,noise,0,1,3124.1576830002014,0,3.0,1.7298133000731468,1,True,10,A,2023-09-07_12h38.44.386,exp3,2022.2.2,
,,,,,,,,,,,,,,,,,,,,,,,96,-1158,Valid,signal,0,1,3126.941120600095,1,3.0,1.7029017000459135,1,True,10,A,2023-09-07_12h38.44.386,exp3,2022.2.2,
,,,,,,,,,,,,,,,,,,,,,,,98,-557,Valid,noise,0,2,3129.420690300176,1,3.0,1.7046123000327498,1,True,10,A,2023-09-07_12h38.44.386,exp3,2022.2.2,
,,,,,,,,,,,,,,,,,,,,,,,100,557,Valid,signal,0,1,3132.5089983001817,1,2.0,2.162664199946448,1,True,10,A,2023-09-07_12h38.44.386,exp3,2022.2.2,
,,,,,,,,,,,,,,,,,,,,,,,102,2274,Valid,signal,0,1,3135.853726000292,1,1.0,2.7126264001708478,1,True,10,A,2023-09-07_12h38.44.386,exp3,2022.2.2,
,,,,,,,,,,,,,,,,,,,,,,,104,-1716,Valid,noise,0,1,3139.0044142000843,0,1.0,2.5293151999358088,1,True,10,A,2023-09-07_12h38.44.386,exp3,2022.2.2,
,,,,,,,,,,,,,,,,,,,,,,,106,-2274,Valid,noise,0,2,3144.253211800242,1,1.0,3.463779899990186,1,True,10,A,2023-09-07_12h38.44.386,exp3,2022.2.2,
,,,,,,,,,,,,,,,,,,,,,,,108,557,Valid,signal,0,2,3147.38861130015,0,1.0,2.5628437001723796,1,True,10,A,2023-09-07_12h38.44.386,exp3,2022.2.2,
,,,,,,,,,,,,,,,,,,,,,,,110,1716,Invalid,signal,0,1,3150.6369962000754,1,1.0,3.3963248999789357,1,True,10,A,2023-09-07_12h38.44.386,exp3,2022.2.2,
