trials.label,trials.startVal,trials.maxVal,trials.minVal,trials.startValSd,trials.pthreshold,trials.beta,trials.delta,trials.gamma,trials.grain,trials.stepSize,trials.range,trials.cue,trials.thisIndex,trials.thisRepN,trials.thisN,trials.direction,trials.stepType,trials.intensity,signalOpacity,level,trials.response,stair_eye_ok,nTrial,position,validity,Stimulus,orientation,response_key,response_rt,response_correct,confidence,confidence_rt,eye_ok,participant,session,date,expName,psychopyVersion,
low_opac_i,0.4,1,0.01,3,0.82,3.5,0.01,0,0.01,4,5,Invalid,2,1,0,start,lin,0.4,0,0.4,0,True,,,,,,,,,,,,7,A,2023-09-01_12h04.10.655,exp3,2022.2.2,
low_opac_v,0.4,1,0.01,3,0.82,3.5,0.01,0,0.01,4,5,Valid,0,1,1,start,lin,0.4,0.4,0.4,1,True,,,,,,,,,,,,7,A,2023-09-01_12h04.10.655,exp3,2022.2.2,
high_opac_v,0.01,1,0.01,3,0.82,3.5,0.01,0,0.01,4,5,Valid,1,1,2,start,lin,0.01,0,0.01,0,True,,,,,,,,,,,,7,A,2023-09-01_12h04.10.655,exp3,2022.2.2,
low_opac_i,0.4,1,0.01,3,0.82,3.5,0.01,0,0.01,4,5,Invalid,2,2,3,start,lin,1,1,1,1,True,,,,,,,,,,,,7,A,2023-09-01_12h04.10.655,exp3,2022.2.2,
high_opac_v,0.01,1,0.01,3,0.82,3.5,0.01,0,0.01,4,5,Valid,1,2,4,start,lin,1,1,1,1,True,,,,,,,,,,,,7,A,2023-09-01_12h04.10.655,exp3,2022.2.2,
low_opac_v,0.4,1,0.01,3,0.82,3.5,0.01,0,0.01,4,5,Valid,0,2,5,start,lin,0.01,0.01,0.01,0,True,,,,,,,,,,,,7,A,2023-09-01_12h04.10.655,exp3,2022.2.2,
high_opac_v,0.01,1,0.01,3,0.82,3.5,0.01,0,0.01,4,5,Valid,1,3,6,start,lin,0.6092784667527542,0,0.6092784667527542,1,True,,,,,,,,,,,,7,A,2023-09-01_12h04.10.655,exp3,2022.2.2,
low_opac_v,0.4,1,0.01,3,0.82,3.5,0.01,0,0.01,4,5,Valid,0,3,7,start,lin,0.3144098688205103,0,0.3144098688205103,0,True,,,,,,,,,,,,7,A,2023-09-01_12h04.10.655,exp3,2022.2.2,
low_opac_i,0.4,1,0.01,3,0.82,3.5,0.01,0,0.01,4,5,Invalid,2,3,8,start,lin,0.8091950431803865,0,0.8091950431803865,1,True,,,,,,,,,,,,7,A,2023-09-01_12h04.10.655,exp3,2022.2.2,
low_opac_i,0.4,1,0.01,3,0.82,3.5,0.01,0,0.01,4,5,Invalid,2,4,9,start,lin,0.6973591848232542,0.6973591848232542,0.6973591848232542,1,True,,,,,,,,,,,,7,A,2023-09-01_12h04.10.655,exp3,2022.2.2,
low_opac_v,0.4,1,0.01,3,0.82,3.5,0.01,0,0.01,4,5,Valid,0,4,10,start,lin,0.4916057657997278,0.4916057657997278,0.4916057657997278,1,True,,,,,,,,,,,,7,A,2023-09-01_12h04.10.655,exp3,2022.2.2,
high_opac_v,0.01,1,0.01,3,0.82,3.5,0.01,0,0.01,4,5,Valid,1,4,11,start,lin,0.41662067589367746,0,0.41662067589367746,1,True,,,,,,,,,,,,7,A,2023-09-01_12h04.10.655,exp3,2022.2.2,
low_opac_i,0.4,1,0.01,3,0.82,3.5,0.01,0,0.01,4,5,Invalid,2,5,12,start,lin,0.6246282260865603,0,0.6246282260865603,1,True,,,,,,,,,,,,7,A,2023-09-01_12h04.10.655,exp3,2022.2.2,
low_opac_v,0.4,1,0.01,3,0.82,3.5,0.01,0,0.01,4,5,Valid,0,5,13,start,lin,0.4413846231900958,0.4413846231900958,0.4413846231900958,1,True,,,,,,,,,,,,7,A,2023-09-01_12h04.10.655,exp3,2022.2.2,
high_opac_v,0.01,1,0.01,3,0.82,3.5,0.01,0,0.01,4,5,Valid,1,5,14,start,lin,0.3073330120243674,0,0.3073330120243674,1,True,,,,,,,,,,,,7,A,2023-09-01_12h04.10.655,exp3,2022.2.2,
low_opac_i,0.4,1,0.01,3,0.82,3.5,0.01,0,0.01,4,5,Invalid,2,6,15,start,lin,0.5683883945097726,0.5683883945097726,0.5683883945097726,0,True,,,,,,,,,,,,7,A,2023-09-01_12h04.10.655,exp3,2022.2.2,
low_opac_v,0.4,1,0.01,3,0.82,3.5,0.01,0,0.01,4,5,Valid,0,6,16,start,lin,0.4104914151614623,0.4104914151614623,0.4104914151614623,1,True,,,,,,,,,,,,7,A,2023-09-01_12h04.10.655,exp3,2022.2.2,
high_opac_v,0.01,1,0.01,3,0.82,3.5,0.01,0,0.01,4,5,Valid,1,6,17,start,lin,0.2346279982429363,0.2346279982429363,0.2346279982429363,1,True,,,,,,,,,,,,7,A,2023-09-01_12h04.10.655,exp3,2022.2.2,
high_opac_v,0.01,1,0.01,3,0.82,3.5,0.01,0,0.01,4,5,Valid,1,7,18,start,lin,0.1783883928663719,0,0.1783883928663719,0,True,,,,,,,,,,,,7,A,2023-09-01_12h04.10.655,exp3,2022.2.2,
low_opac_i,0.4,1,0.01,3,0.82,3.5,0.01,0,0.01,4,5,Invalid,2,7,19,start,lin,0.6804280517691323,0,0.6804280517691323,0,True,,,,,,,,,,,,7,A,2023-09-01_12h04.10.655,exp3,2022.2.2,
low_opac_v,0.4,1,0.01,3,0.82,3.5,0.01,0,0.01,4,5,Valid,0,7,20,start,lin,0.38728618186959246,0,0.38728618186959246,1,True,,,,,,,,,,,,7,A,2023-09-01_12h04.10.655,exp3,2022.2.2,
high_opac_v,0.01,1,0.01,3,0.82,3.5,0.01,0,0.01,4,5,Valid,1,8,21,start,lin,0.29042804759984947,0.29042804759984947,0.29042804759984947,1,True,,,,,,,,,,,,7,A,2023-09-01_12h04.10.655,exp3,2022.2.2,
low_opac_v,0.4,1,0.01,3,0.82,3.5,0.01,0,0.01,4,5,Valid,0,8,22,start,lin,0.36859173505683207,0,0.36859173505683207,0,True,,,,,,,,,,,,7,A,2023-09-01_12h04.10.655,exp3,2022.2.2,
low_opac_i,0.4,1,0.01,3,0.82,3.5,0.01,0,0.01,4,5,Invalid,2,8,23,start,lin,0.7561082803758197,0.7561082803758197,0.7561082803758197,1,True,,,,,,,,,,,,7,A,2023-09-01_12h04.10.655,exp3,2022.2.2,
high_opac_v,0.01,1,0.01,3,0.82,3.5,0.01,0,0.01,4,5,Valid,1,9,24,start,lin,0.2669803445880432,0.2669803445880432,0.2669803445880432,1,True,,,,,,,,,,,,7,A,2023-09-01_12h04.10.655,exp3,2022.2.2,
low_opac_v,0.4,1,0.01,3,0.82,3.5,0.01,0,0.01,4,5,Valid,0,9,25,start,lin,0.42414469633970353,0,0.42414469633970353,0,True,,,,,,,,,,,,7,A,2023-09-01_12h04.10.655,exp3,2022.2.2,
low_opac_i,0.4,1,0.01,3,0.82,3.5,0.01,0,0.01,4,5,Invalid,2,9,26,start,lin,0.7380476386413269,0.7380476386413269,0.7380476386413269,1,True,,,,,,,,,,,,7,A,2023-09-01_12h04.10.655,exp3,2022.2.2,
high_opac_v,0.01,1,0.01,3,0.82,3.5,0.01,0,0.01,4,5,Valid,1,10,27,start,lin,0.24842400969945427,0.24842400969945427,0.24842400969945427,1,True,,,,,,,,,,,,7,A,2023-09-01_12h04.10.655,exp3,2022.2.2,
low_opac_v,0.4,1,0.01,3,0.82,3.5,0.01,0,0.01,4,5,Valid,0,10,28,start,lin,0.4678672377916509,0.4678672377916509,0.4678672377916509,1,True,,,,,,,,,,,,7,A,2023-09-01_12h04.10.655,exp3,2022.2.2,
low_opac_i,0.4,1,0.01,3,0.82,3.5,0.01,0,0.01,4,5,Invalid,2,10,29,start,lin,0.723082885463243,0.723082885463243,0.723082885463243,1,True,,,,,,,,,,,,7,A,2023-09-01_12h04.10.655,exp3,2022.2.2,
high_opac_v,0.01,1,0.01,3,0.82,3.5,0.01,0,0.01,4,5,Valid,1,11,30,start,lin,0.23250044039265666,0,0.23250044039265666,0,True,,,,,,,,,,,,7,A,2023-09-01_12h04.10.655,exp3,2022.2.2,
low_opac_i,0.4,1,0.01,3,0.82,3.5,0.01,0,0.01,4,5,Invalid,2,11,31,start,lin,0.7098279185756967,0.7098279185756967,0.7098279185756967,1,True,,,,,,,,,,,,7,A,2023-09-01_12h04.10.655,exp3,2022.2.2,
low_opac_v,0.4,1,0.01,3,0.82,3.5,0.01,0,0.01,4,5,Valid,0,11,32,start,lin,0.4570028943706488,0,0.4570028943706488,1,True,,,,,,,,,,,,7,A,2023-09-01_12h04.10.655,exp3,2022.2.2,
high_opac_v,0.01,1,0.01,3,0.82,3.5,0.01,0,0.01,4,5,Valid,1,12,33,start,lin,0.28063033413462496,0,0.28063033413462496,0,True,,,,,,,,,,,,7,A,2023-09-01_12h04.10.655,exp3,2022.2.2,
low_opac_v,0.4,1,0.01,3,0.82,3.5,0.01,0,0.01,4,5,Valid,0,12,34,start,lin,0.4476014487129777,0.4476014487129777,0.4476014487129777,1,True,,,,,,,,,,,,7,A,2023-09-01_12h04.10.655,exp3,2022.2.2,
low_opac_i,0.4,1,0.01,3,0.82,3.5,0.01,0,0.01,4,5,Invalid,2,12,35,start,lin,0.6984853494704106,0,0.6984853494704106,1,True,,,,,,,,,,,,7,A,2023-09-01_12h04.10.655,exp3,2022.2.2,
high_opac_v,0.01,1,0.01,3,0.82,3.5,0.01,0,0.01,4,5,Valid,1,13,36,start,lin,0.3210814486085221,0.3210814486085221,0.3210814486085221,1,True,,,,,,,,,,,,7,A,2023-09-01_12h04.10.655,exp3,2022.2.2,
low_opac_i,0.4,1,0.01,3,0.82,3.5,0.01,0,0.01,4,5,Invalid,2,13,37,start,lin,0.6884219296428065,0.6884219296428065,0.6884219296428065,1,True,,,,,,,,,,,,7,A,2023-09-01_12h04.10.655,exp3,2022.2.2,
low_opac_v,0.4,1,0.01,3,0.82,3.5,0.01,0,0.01,4,5,Valid,0,13,38,start,lin,0.4391869000782624,0.4391869000782624,0.4391869000782624,1,True,,,,,,,,,,,,7,A,2023-09-01_12h04.10.655,exp3,2022.2.2,
low_opac_v,0.4,1,0.01,3,0.82,3.5,0.01,0,0.01,4,5,Valid,0,14,39,start,lin,0.4314822137571294,0,0.4314822137571294,1,True,,,,,,,,,,,,7,A,2023-09-01_12h04.10.655,exp3,2022.2.2,
high_opac_v,0.01,1,0.01,3,0.82,3.5,0.01,0,0.01,4,5,Valid,1,14,40,start,lin,0.31115609204316036,0.31115609204316036,0.31115609204316036,1,True,,,,,,,,,,,,7,A,2023-09-01_12h04.10.655,exp3,2022.2.2,
low_opac_i,0.4,1,0.01,3,0.82,3.5,0.01,0,0.01,4,5,Invalid,2,14,41,start,lin,0.67925367048236,0.67925367048236,0.67925367048236,1,True,,,,,,,,,,,,7,A,2023-09-01_12h04.10.655,exp3,2022.2.2,
low_opac_i,0.4,1,0.01,3,0.82,3.5,0.01,0,0.01,4,5,Invalid,2,15,42,start,lin,0.6707290808102091,0,0.6707290808102091,0,True,,,,,,,,,,,,7,A,2023-09-01_12h04.10.655,exp3,2022.2.2,
low_opac_v,0.4,1,0.01,3,0.82,3.5,0.01,0,0.01,4,5,Valid,0,15,43,start,lin,0.42427017818804463,0.42427017818804463,0.42427017818804463,1,True,,,,,,,,,,,,7,A,2023-09-01_12h04.10.655,exp3,2022.2.2,
high_opac_v,0.01,1,0.01,3,0.82,3.5,0.01,0,0.01,4,5,Valid,1,15,44,start,lin,0.3023426504633983,0,0.3023426504633983,1,True,,,,,,,,,,,,7,A,2023-09-01_12h04.10.655,exp3,2022.2.2,
low_opac_i,0.4,1,0.01,3,0.82,3.5,0.01,0,0.01,4,5,Invalid,2,16,45,start,lin,0.700255706597382,0.700255706597382,0.700255706597382,1,True,,,,,,,,,,,,7,A,2023-09-01_12h04.10.655,exp3,2022.2.2,
low_opac_v,0.4,1,0.01,3,0.82,3.5,0.01,0,0.01,4,5,Valid,0,16,46,start,lin,0.4174261008814985,0.4174261008814985,0.4174261008814985,1,True,,,,,,,,,,,,7,A,2023-09-01_12h04.10.655,exp3,2022.2.2,
high_opac_v,0.01,1,0.01,3,0.82,3.5,0.01,0,0.01,4,5,Valid,1,16,47,start,lin,0.29430802065067974,0.29430802065067974,0.29430802065067974,1,True,,,,,,,,,,,,7,A,2023-09-01_12h04.10.655,exp3,2022.2.2,
high_opac_v,0.01,1,0.01,3,0.82,3.5,0.01,0,0.01,4,5,Valid,1,17,48,start,lin,0.2868416609549952,0.2868416609549952,0.2868416609549952,1,True,,,,,,,,,,,,7,A,2023-09-01_12h04.10.655,exp3,2022.2.2,
low_opac_v,0.4,1,0.01,3,0.82,3.5,0.01,0,0.01,4,5,Valid,0,17,49,start,lin,0.4113967099318381,0.4113967099318381,0.4113967099318381,1,True,,,,,,,,,,,,7,A,2023-09-01_12h04.10.655,exp3,2022.2.2,
low_opac_i,0.4,1,0.01,3,0.82,3.5,0.01,0,0.01,4,5,Invalid,2,17,50,start,lin,0.6935584859144772,0.6935584859144772,0.6935584859144772,0,True,,,,,,,,,,,,7,A,2023-09-01_12h04.10.655,exp3,2022.2.2,
low_opac_v,0.4,1,0.01,3,0.82,3.5,0.01,0,0.01,4,5,Valid,0,18,51,start,lin,0.4055045299893834,0,0.4055045299893834,1,True,,,,,,,,,,,,7,A,2023-09-01_12h04.10.655,exp3,2022.2.2,
low_opac_i,0.4,1,0.01,3,0.82,3.5,0.01,0,0.01,4,5,Invalid,2,18,52,start,lin,0.7169256001097426,0.7169256001097426,0.7169256001097426,1,True,,,,,,,,,,,,7,A,2023-09-01_12h04.10.655,exp3,2022.2.2,
high_opac_v,0.01,1,0.01,3,0.82,3.5,0.01,0,0.01,4,5,Valid,1,18,53,start,lin,0.2803585056413565,0.2803585056413565,0.2803585056413565,1,True,,,,,,,,,,,,7,A,2023-09-01_12h04.10.655,exp3,2022.2.2,
high_opac_v,0.01,1,0.01,3,0.82,3.5,0.01,0,0.01,4,5,Valid,1,19,54,start,lin,0.274137879811257,0.274137879811257,0.274137879811257,1,True,,,,,,,,,,,,7,A,2023-09-01_12h04.10.655,exp3,2022.2.2,
low_opac_i,0.4,1,0.01,3,0.82,3.5,0.01,0,0.01,4,5,Invalid,2,19,55,start,lin,0.7114382529356738,0,0.7114382529356738,1,True,,,,,,,,,,,,7,A,2023-09-01_12h04.10.655,exp3,2022.2.2,
low_opac_v,0.4,1,0.01,3,0.82,3.5,0.01,0,0.01,4,5,Valid,0,19,56,start,lin,0.4002087249173621,0,0.4002087249173621,1,True,,,,,,,,,,,,7,A,2023-09-01_12h04.10.655,exp3,2022.2.2,
low_opac_i,0.4,1,0.01,3,0.82,3.5,0.01,0,0.01,4,5,Invalid,2,20,57,start,lin,0.7060817111971072,0,0.7060817111971072,0,True,,,,,,,,,,,,7,A,2023-09-01_12h04.10.655,exp3,2022.2.2,
high_opac_v,0.01,1,0.01,3,0.82,3.5,0.01,0,0.01,4,5,Valid,1,20,58,start,lin,0.26810435991844905,0,0.26810435991844905,0,True,,,,,,,,,,,,7,A,2023-09-01_12h04.10.655,exp3,2022.2.2,
low_opac_v,0.4,1,0.01,3,0.82,3.5,0.01,0,0.01,4,5,Valid,0,20,59,start,lin,0.39494430544748876,0,0.39494430544748876,0,True,,,,,,,,,,,,7,A,2023-09-01_12h04.10.655,exp3,2022.2.2,
high_opac_v,0.01,1,0.01,3,0.82,3.5,0.01,0,0.01,4,5,Valid,1,21,60,start,lin,0.2895898671801248,0.2895898671801248,0.2895898671801248,1,True,,,,,,,,,,,,7,A,2023-09-01_12h04.10.655,exp3,2022.2.2,
low_opac_i,0.4,1,0.01,3,0.82,3.5,0.01,0,0.01,4,5,Invalid,2,21,61,start,lin,0.7260408252743933,0,0.7260408252743933,1,True,,,,,,,,,,,,7,A,2023-09-01_12h04.10.655,exp3,2022.2.2,
low_opac_v,0.4,1,0.01,3,0.82,3.5,0.01,0,0.01,4,5,Valid,0,21,62,start,lin,0.41374501357447135,0,0.41374501357447135,1,True,,,,,,,,,,,,7,A,2023-09-01_12h04.10.655,exp3,2022.2.2,
low_opac_i,0.4,1,0.01,3,0.82,3.5,0.01,0,0.01,4,5,Invalid,2,22,63,start,lin,0.721573891264931,0.721573891264931,0.721573891264931,1,True,,,,,,,,,,,,7,A,2023-09-01_12h04.10.655,exp3,2022.2.2,
low_opac_v,0.4,1,0.01,3,0.82,3.5,0.01,0,0.01,4,5,Valid,0,22,64,start,lin,0.40914192657963433,0,0.40914192657963433,0,True,,,,,,,,,,,,7,A,2023-09-01_12h04.10.655,exp3,2022.2.2,
high_opac_v,0.01,1,0.01,3,0.82,3.5,0.01,0,0.01,4,5,Valid,1,22,65,start,lin,0.2846639665503711,0.2846639665503711,0.2846639665503711,1,True,,,,,,,,,,,,7,A,2023-09-01_12h04.10.655,exp3,2022.2.2,
low_opac_v,0.4,1,0.01,3,0.82,3.5,0.01,0,0.01,4,5,Valid,0,23,66,start,lin,0.4259491332729626,0,0.4259491332729626,0,True,,,,,,,,,,,,7,A,2023-09-01_12h04.10.655,exp3,2022.2.2,
high_opac_v,0.01,1,0.01,3,0.82,3.5,0.01,0,0.01,4,5,Valid,1,23,67,start,lin,0.2797931078699471,0,0.2797931078699471,0,True,,,,,,,,,,,,7,A,2023-09-01_12h04.10.655,exp3,2022.2.2,
low_opac_i,0.4,1,0.01,3,0.82,3.5,0.01,0,0.01,4,5,Invalid,2,23,68,start,lin,0.7171208600286538,0,0.7171208600286538,0,True,,,,,,,,,,,,7,A,2023-09-01_12h04.10.655,exp3,2022.2.2,
low_opac_v,0.4,1,0.01,3,0.82,3.5,0.01,0,0.01,4,5,Valid,0,24,69,start,lin,0.44195969160611714,0,0.44195969160611714,0,True,,,,,,,,,,,,7,A,2023-09-01_12h04.10.655,exp3,2022.2.2,
high_opac_v,0.01,1,0.01,3,0.82,3.5,0.01,0,0.01,4,5,Valid,1,24,70,start,lin,0.29729336942677265,0,0.29729336942677265,0,True,,,,,,,,,,,,7,A,2023-09-01_12h04.10.655,exp3,2022.2.2,
low_opac_i,0.4,1,0.01,3,0.82,3.5,0.01,0,0.01,4,5,Invalid,2,24,71,start,lin,0.7339009171310847,0.7339009171310847,0.7339009171310847,1,True,,,,,,,,,,,,7,A,2023-09-01_12h04.10.655,exp3,2022.2.2,
low_opac_i,0.4,1,0.01,3,0.82,3.5,0.01,0,0.01,4,5,Invalid,2,25,72,start,lin,0.7298273878222072,0.7298273878222072,0.7298273878222072,1,True,,,,,,,,,,,,7,A,2023-09-01_12h04.10.655,exp3,2022.2.2,
high_opac_v,0.01,1,0.01,3,0.82,3.5,0.01,0,0.01,4,5,Valid,1,25,73,start,lin,0.31400607093722954,0,0.31400607093722954,1,True,,,,,,,,,,,,7,A,2023-09-01_12h04.10.655,exp3,2022.2.2,
low_opac_v,0.4,1,0.01,3,0.82,3.5,0.01,0,0.01,4,5,Valid,0,25,74,start,lin,0.4565337257776584,0.4565337257776584,0.4565337257776584,1,True,,,,,,,,,,,,7,A,2023-09-01_12h04.10.655,exp3,2022.2.2,
low_opac_v,0.4,1,0.01,3,0.82,3.5,0.01,0,0.01,4,5,Valid,0,26,75,start,lin,0.45309684601595085,0,0.45309684601595085,1,True,,,,,,,,,,,,7,A,2023-09-01_12h04.10.655,exp3,2022.2.2,
low_opac_i,0.4,1,0.01,3,0.82,3.5,0.01,0,0.01,4,5,Invalid,2,26,76,start,lin,0.7260930147139224,0.7260930147139224,0.7260930147139224,1,True,,,,,,,,,,,,7,A,2023-09-01_12h04.10.655,exp3,2022.2.2,
high_opac_v,0.01,1,0.01,3,0.82,3.5,0.01,0,0.01,4,5,Valid,1,26,77,start,lin,0.30993146200626204,0,0.30993146200626204,1,True,,,,,,,,,,,,7,A,2023-09-01_12h04.10.655,exp3,2022.2.2,
low_opac_i,0.4,1,0.01,3,0.82,3.5,0.01,0,0.01,4,5,Invalid,2,27,78,start,lin,0.7226538772186117,0.7226538772186117,0.7226538772186117,1,True,,,,,,,,,,,,7,A,2023-09-01_12h04.10.655,exp3,2022.2.2,
high_opac_v,0.01,1,0.01,3,0.82,3.5,0.01,0,0.01,4,5,Valid,1,27,79,start,lin,0.30619655317080197,0.30619655317080197,0.30619655317080197,1,True,,,,,,,,,,,,7,A,2023-09-01_12h04.10.655,exp3,2022.2.2,
low_opac_v,0.4,1,0.01,3,0.82,3.5,0.01,0,0.01,4,5,Valid,0,27,80,start,lin,0.449585772706774,0.449585772706774,0.449585772706774,1,True,,,,,,,,,,,,7,A,2023-09-01_12h04.10.655,exp3,2022.2.2,
low_opac_i,0.4,1,0.01,3,0.82,3.5,0.01,0,0.01,4,5,Invalid,2,28,81,start,lin,0.719127280227243,0,0.719127280227243,0,True,,,,,,,,,,,,7,A,2023-09-01_12h04.10.655,exp3,2022.2.2,
low_opac_v,0.4,1,0.01,3,0.82,3.5,0.01,0,0.01,4,5,Valid,0,28,82,start,lin,0.44634441508881445,0,0.44634441508881445,0,True,,,,,,,,,,,,7,A,2023-09-01_12h04.10.655,exp3,2022.2.2,
high_opac_v,0.01,1,0.01,3,0.82,3.5,0.01,0,0.01,4,5,Valid,1,28,83,start,lin,0.302760107849587,0.302760107849587,0.302760107849587,1,True,,,,,,,,,,,,7,A,2023-09-01_12h04.10.655,exp3,2022.2.2,
low_opac_v,0.4,1,0.01,3,0.82,3.5,0.01,0,0.01,4,5,Valid,0,29,84,start,lin,0.4592029458647421,0,0.4592029458647421,0,True,,,,,,,,,,,,7,A,2023-09-01_12h04.10.655,exp3,2022.2.2,
low_opac_i,0.4,1,0.01,3,0.82,3.5,0.01,0,0.01,4,5,Invalid,2,29,85,start,lin,0.7323875484400185,0,0.7323875484400185,1,True,,,,,,,,,,,,7,A,2023-09-01_12h04.10.655,exp3,2022.2.2,
high_opac_v,0.01,1,0.01,3,0.82,3.5,0.01,0,0.01,4,5,Valid,1,29,86,start,lin,0.2992384167748975,0,0.2992384167748975,0,True,,,,,,,,,,,,7,A,2023-09-01_12h04.10.655,exp3,2022.2.2,
low_opac_i,0.4,1,0.01,3,0.82,3.5,0.01,0,0.01,4,5,Invalid,2,30,87,start,lin,0.7291589037260937,0,0.7291589037260937,1,True,,,,,,,,,,,,7,A,2023-09-01_12h04.10.655,exp3,2022.2.2,
high_opac_v,0.01,1,0.01,3,0.82,3.5,0.01,0,0.01,4,5,Valid,1,30,88,start,lin,0.312461286886827,0,0.312461286886827,1,True,,,,,,,,,,,,7,A,2023-09-01_12h04.10.655,exp3,2022.2.2,
low_opac_v,0.4,1,0.01,3,0.82,3.5,0.01,0,0.01,4,5,Valid,0,30,89,start,lin,0.47142735172015204,0.47142735172015204,0.47142735172015204,1,True,,,,,,,,,,,,7,A,2023-09-01_12h04.10.655,exp3,2022.2.2,
low_opac_i,0.4,1,0.01,3,0.82,3.5,0.01,0,0.01,4,5,Invalid,2,31,90,start,lin,0.7261671651272796,0,0.7261671651272796,1,True,,,,,,,,,,,,7,A,2023-09-01_12h04.10.655,exp3,2022.2.2,
low_opac_v,0.4,1,0.01,3,0.82,3.5,0.01,0,0.01,4,5,Valid,0,31,91,start,lin,0.46843504062767233,0,0.46843504062767233,0,True,,,,,,,,,,,,7,A,2023-09-01_12h04.10.655,exp3,2022.2.2,
high_opac_v,0.01,1,0.01,3,0.82,3.5,0.01,0,0.01,4,5,Valid,1,31,92,start,lin,0.30923229060469515,0.30923229060469515,0.30923229060469515,1,True,,,,,,,,,,,,7,A,2023-09-01_12h04.10.655,exp3,2022.2.2,
low_opac_v,0.4,1,0.01,3,0.82,3.5,0.01,0,0.01,4,5,Valid,0,32,93,start,lin,0.47993329024542813,0.47993329024542813,0.47993329024542813,1,True,,,,,,,,,,,,7,A,2023-09-01_12h04.10.655,exp3,2022.2.2,
high_opac_v,0.01,1,0.01,3,0.82,3.5,0.01,0,0.01,4,5,Valid,1,32,94,start,lin,0.3062404193159857,0,0.3062404193159857,1,True,,,,,,,,,,,,7,A,2023-09-01_12h04.10.655,exp3,2022.2.2,
low_opac_i,0.4,1,0.01,3,0.82,3.5,0.01,0,0.01,4,5,Invalid,2,32,95,start,lin,0.7233732361300331,0.7233732361300331,0.7233732361300331,1,True,,,,,,,,,,,,7,A,2023-09-01_12h04.10.655,exp3,2022.2.2,
high_opac_v,0.01,1,0.01,3,0.82,3.5,0.01,0,0.01,4,5,Valid,1,33,96,start,lin,0.30344816566064925,0,0.30344816566064925,1,True,,,,,,,,,,,,7,A,2023-09-01_12h04.10.655,exp3,2022.2.2,
low_opac_i,0.4,1,0.01,3,0.82,3.5,0.01,0,0.01,4,5,Invalid,2,33,97,start,lin,0.7204748975068309,0.7204748975068309,0.7204748975068309,1,True,,,,,,,,,,,,7,A,2023-09-01_12h04.10.655,exp3,2022.2.2,
low_opac_v,0.4,1,0.01,3,0.82,3.5,0.01,0,0.01,4,5,Valid,0,33,98,start,lin,0.477182473194262,0,0.477182473194262,1,True,,,,,,,,,,,,7,A,2023-09-01_12h04.10.655,exp3,2022.2.2,
low_opac_v,0.4,1,0.01,3,0.82,3.5,0.01,0,0.01,4,5,Valid,0,34,99,start,lin,0.4746223228255985,0,0.4746223228255985,1,True,,,,,,,,,,,,7,A,2023-09-01_12h04.10.655,exp3,2022.2.2,
high_opac_v,0.01,1,0.01,3,0.82,3.5,0.01,0,0.01,4,5,Valid,1,34,100,start,lin,0.30055373179523226,0,0.30055373179523226,0,True,,,,,,,,,,,,7,A,2023-09-01_12h04.10.655,exp3,2022.2.2,
low_opac_i,0.4,1,0.01,3,0.82,3.5,0.01,0,0.01,4,5,Invalid,2,34,101,start,lin,0.7177206396842407,0,0.7177206396842407,0,True,,,,,,,,,,,,7,A,2023-09-01_12h04.10.655,exp3,2022.2.2,
low_opac_i,0.4,1,0.01,3,0.82,3.5,0.01,0,0.01,4,5,Invalid,2,35,102,start,lin,0.7285125819519411,0.7285125819519411,0.7285125819519411,1,True,,,,,,,,,,,,7,A,2023-09-01_12h04.10.655,exp3,2022.2.2,
low_opac_v,0.4,1,0.01,3,0.82,3.5,0.01,0,0.01,4,5,Valid,0,35,103,start,lin,0.47198353708292407,0,0.47198353708292407,0,True,,,,,,,,,,,,7,A,2023-09-01_12h04.10.655,exp3,2022.2.2,
high_opac_v,0.01,1,0.01,3,0.82,3.5,0.01,0,0.01,4,5,Valid,1,35,104,start,lin,0.31146116875455776,0,0.31146116875455776,0,True,,,,,,,,,,,,7,A,2023-09-01_12h04.10.655,exp3,2022.2.2,
high_opac_v,0.01,1,0.01,3,0.82,3.5,0.01,0,0.01,4,5,Valid,1,36,105,start,lin,0.3219074000498664,0,0.3219074000498664,0,True,,,,,,,,,,,,7,A,2023-09-01_12h04.10.655,exp3,2022.2.2,
low_opac_v,0.4,1,0.01,3,0.82,3.5,0.01,0,0.01,4,5,Valid,0,36,106,start,lin,0.48185103208530966,0.48185103208530966,0.48185103208530966,1,True,,,,,,,,,,,,7,A,2023-09-01_12h04.10.655,exp3,2022.2.2,
low_opac_i,0.4,1,0.01,3,0.82,3.5,0.01,0,0.01,4,5,Invalid,2,36,107,start,lin,0.7260267235762181,0.7260267235762181,0.7260267235762181,1,True,,,,,,,,,,,,7,A,2023-09-01_12h04.10.655,exp3,2022.2.2,
high_opac_v,0.01,1,0.01,3,0.82,3.5,0.01,0,0.01,4,5,Valid,1,37,108,start,lin,0.332017419233163,0.332017419233163,0.332017419233163,1,True,,,,,,,,,,,,7,A,2023-09-01_12h04.10.655,exp3,2022.2.2,
low_opac_i,0.4,1,0.01,3,0.82,3.5,0.01,0,0.01,4,5,Invalid,2,37,109,start,lin,0.7236805228240575,0,0.7236805228240575,1,True,,,,,,,,,,,,7,A,2023-09-01_12h04.10.655,exp3,2022.2.2,
low_opac_v,0.4,1,0.01,3,0.82,3.5,0.01,0,0.01,4,5,Valid,0,37,110,start,lin,0.4793682619637012,0.4793682619637012,0.4793682619637012,1,True,,,,,,,,,,,,7,A,2023-09-01_12h04.10.655,exp3,2022.2.2,
high_opac_v,0.01,1,0.01,3,0.82,3.5,0.01,0,0.01,4,5,Valid,1,38,111,start,lin,0.3294782642917067,0,0.3294782642917067,1,True,,,,,,,,,,,,7,A,2023-09-01_12h04.10.655,exp3,2022.2.2,
low_opac_i,0.4,1,0.01,3,0.82,3.5,0.01,0,0.01,4,5,Invalid,2,38,112,start,lin,0.7212289130113199,0.7212289130113199,0.7212289130113199,1,True,,,,,,,,,,,,7,A,2023-09-01_12h04.10.655,exp3,2022.2.2,
low_opac_v,0.4,1,0.01,3,0.82,3.5,0.01,0,0.01,4,5,Valid,0,38,113,start,lin,0.4770456458619545,0,0.4770456458619545,1,True,,,,,,,,,,,,7,A,2023-09-01_12h04.10.655,exp3,2022.2.2,
low_opac_i,0.4,1,0.01,3,0.82,3.5,0.01,0,0.01,4,5,Invalid,2,39,114,start,lin,0.7188544174161424,0,0.7188544174161424,0,True,,,,,,,,,,,,7,A,2023-09-01_12h04.10.655,exp3,2022.2.2,
low_opac_v,0.4,1,0.01,3,0.82,3.5,0.01,0,0.01,4,5,Valid,0,39,115,start,lin,0.474862799124646,0.474862799124646,0.474862799124646,1,True,,,,,,,,,,,,7,A,2023-09-01_12h04.10.655,exp3,2022.2.2,
high_opac_v,0.01,1,0.01,3,0.82,3.5,0.01,0,0.01,4,5,Valid,1,39,116,start,lin,0.32710018246840106,0.32710018246840106,0.32710018246840106,1,True,,,,,,,,,,,,7,A,2023-09-01_12h04.10.655,exp3,2022.2.2,
low_opac_v,0.4,1,0.01,3,0.82,3.5,0.01,0,0.01,4,5,Valid,0,40,117,start,lin,0.472597141536143,0.472597141536143,0.472597141536143,1,True,,,,,,,,,,,,7,A,2023-09-01_12h04.10.655,exp3,2022.2.2,
low_opac_i,0.4,1,0.01,3,0.82,3.5,0.01,0,0.01,4,5,Invalid,2,40,118,start,lin,0.7280590965498406,0.7280590965498406,0.7280590965498406,1,True,,,,,,,,,,,,7,A,2023-09-01_12h04.10.655,exp3,2022.2.2,
high_opac_v,0.01,1,0.01,3,0.82,3.5,0.01,0,0.01,4,5,Valid,1,40,119,start,lin,0.324867463032671,0.324867463032671,0.324867463032671,1,True,,,,,,,,,,,,7,A,2023-09-01_12h04.10.655,exp3,2022.2.2,
low_opac_v,0.4,1,0.01,3,0.82,3.5,0.01,0,0.01,4,5,Valid,0,41,120,start,lin,0.4704005668128995,0.4704005668128995,0.4704005668128995,1,True,,,,,,,,,,,,7,A,2023-09-01_12h04.10.655,exp3,2022.2.2,
high_opac_v,0.01,1,0.01,3,0.82,3.5,0.01,0,0.01,4,5,Valid,1,41,121,start,lin,0.32255164429898664,0,0.32255164429898664,0,True,,,,,,,,,,,,7,A,2023-09-01_12h04.10.655,exp3,2022.2.2,
low_opac_i,0.4,1,0.01,3,0.82,3.5,0.01,0,0.01,4,5,Invalid,2,41,122,start,lin,0.7259338100948819,0,0.7259338100948819,1,True,,,,,,,,,,,,7,A,2023-09-01_12h04.10.655,exp3,2022.2.2,
low_opac_v,0.4,1,0.01,3,0.82,3.5,0.01,0,0.01,4,5,Valid,0,42,123,start,lin,0.46829038869561224,0,0.46829038869561224,1,True,,,,,,,,,,,,7,A,2023-09-01_12h04.10.655,exp3,2022.2.2,
high_opac_v,0.01,1,0.01,3,0.82,3.5,0.01,0,0.01,4,5,Valid,1,42,124,start,lin,0.33125108563770395,0,0.33125108563770395,1,True,,,,,,,,,,,,7,A,2023-09-01_12h04.10.655,exp3,2022.2.2,
low_opac_i,0.4,1,0.01,3,0.82,3.5,0.01,0,0.01,4,5,Invalid,2,42,125,start,lin,0.7239126690317557,0.7239126690317557,0.7239126690317557,1,True,,,,,,,,,,,,7,A,2023-09-01_12h04.10.655,exp3,2022.2.2,
low_opac_i,0.4,1,0.01,3,0.82,3.5,0.01,0,0.01,4,5,Invalid,2,43,126,start,lin,0.7217896464643245,0.7217896464643245,0.7217896464643245,1,True,,,,,,,,,,,,7,A,2023-09-01_12h04.10.655,exp3,2022.2.2,
low_opac_v,0.4,1,0.01,3,0.82,3.5,0.01,0,0.01,4,5,Valid,0,43,127,start,lin,0.46630950560155665,0.46630950560155665,0.46630950560155665,1,True,,,,,,,,,,,,7,A,2023-09-01_12h04.10.655,exp3,2022.2.2,
high_opac_v,0.01,1,0.01,3,0.82,3.5,0.01,0,0.01,4,5,Valid,1,43,128,start,lin,0.32906580929017915,0.32906580929017915,0.32906580929017915,1,True,,,,,,,,,,,,7,A,2023-09-01_12h04.10.655,exp3,2022.2.2,
high_opac_v,0.01,1,0.01,3,0.82,3.5,0.01,0,0.01,4,5,Valid,1,44,129,start,lin,0.3270137936841818,0,0.3270137936841818,1,True,,,,,,,,,,,,7,A,2023-09-01_12h04.10.655,exp3,2022.2.2,
low_opac_i,0.4,1,0.01,3,0.82,3.5,0.01,0,0.01,4,5,Invalid,2,44,130,start,lin,0.719712675390773,0.719712675390773,0.719712675390773,1,True,,,,,,,,,,,,7,A,2023-09-01_12h04.10.655,exp3,2022.2.2,
low_opac_v,0.4,1,0.01,3,0.82,3.5,0.01,0,0.01,4,5,Valid,0,44,131,start,lin,0.4644256887856217,0.4644256887856217,0.4644256887856217,1,True,,,,,,,,,,,,7,A,2023-09-01_12h04.10.655,exp3,2022.2.2,
low_opac_v,0.4,1,0.01,3,0.82,3.5,0.01,0,0.01,4,5,Valid,0,45,132,start,lin,0.4624498321075514,0.4624498321075514,0.4624498321075514,1,True,,,,,,,,,,,,7,A,2023-09-01_12h04.10.655,exp3,2022.2.2,
low_opac_i,0.4,1,0.01,3,0.82,3.5,0.01,0,0.01,4,5,Invalid,2,45,133,start,lin,0.7177302002147972,0.7177302002147972,0.7177302002147972,1,True,,,,,,,,,,,,7,A,2023-09-01_12h04.10.655,exp3,2022.2.2,
high_opac_v,0.01,1,0.01,3,0.82,3.5,0.01,0,0.01,4,5,Valid,1,45,134,start,lin,0.32507327724078683,0,0.32507327724078683,1,True,,,,,,,,,,,,7,A,2023-09-01_12h04.10.655,exp3,2022.2.2,
low_opac_i,0.4,1,0.01,3,0.82,3.5,0.01,0,0.01,4,5,Invalid,2,46,135,start,lin,0.7158560274113591,0.7158560274113591,0.7158560274113591,1,True,,,,,,,,,,,,7,A,2023-09-01_12h04.10.655,exp3,2022.2.2,
low_opac_v,0.4,1,0.01,3,0.82,3.5,0.01,0,0.01,4,5,Valid,0,46,136,start,lin,0.4605197117047367,0,0.4605197117047367,0,True,,,,,,,,,,,,7,A,2023-09-01_12h04.10.655,exp3,2022.2.2,
high_opac_v,0.01,1,0.01,3,0.82,3.5,0.01,0,0.01,4,5,Valid,1,46,137,start,lin,0.32321418903135674,0,0.32321418903135674,1,True,,,,,,,,,,,,7,A,2023-09-01_12h04.10.655,exp3,2022.2.2,
low_opac_v,0.4,1,0.01,3,0.82,3.5,0.01,0,0.01,4,5,Valid,0,47,138,start,lin,0.46793813568063325,0.46793813568063325,0.46793813568063325,1,True,,,,,,,,,,,,7,A,2023-09-01_12h04.10.655,exp3,2022.2.2,
high_opac_v,0.01,1,0.01,3,0.82,3.5,0.01,0,0.01,4,5,Valid,1,47,139,start,lin,0.3212476250738553,0,0.3212476250738553,0,True,,,,,,,,,,,,7,A,2023-09-01_12h04.10.655,exp3,2022.2.2,
low_opac_i,0.4,1,0.01,3,0.82,3.5,0.01,0,0.01,4,5,Invalid,2,47,140,start,lin,0.7140624386329777,0.7140624386329777,0.7140624386329777,1,True,,,,,,,,,,,,7,A,2023-09-01_12h04.10.655,exp3,2022.2.2,
high_opac_v,0.01,1,0.01,3,0.82,3.5,0.01,0,0.01,4,5,Valid,1,48,141,start,lin,0.32876246889607913,0.32876246889607913,0.32876246889607913,1,True,,,,,,,,,,,,7,A,2023-09-01_12h04.10.655,exp3,2022.2.2,
low_opac_i,0.4,1,0.01,3,0.82,3.5,0.01,0,0.01,4,5,Invalid,2,48,142,start,lin,0.7121693978735588,0.7121693978735588,0.7121693978735588,1,True,,,,,,,,,,,,7,A,2023-09-01_12h04.10.655,exp3,2022.2.2,
low_opac_v,0.4,1,0.01,3,0.82,3.5,0.01,0,0.01,4,5,Valid,0,48,143,start,lin,0.46619461602840084,0.46619461602840084,0.46619461602840084,1,True,,,,,,,,,,,,7,A,2023-09-01_12h04.10.655,exp3,2022.2.2,
low_opac_v,0.4,1,0.01,3,0.82,3.5,0.01,0,0.01,4,5,Valid,0,49,144,start,lin,0.46452742942984215,0,0.46452742942984215,1,True,,,,,,,,,,,,7,A,2023-09-01_12h04.10.655,exp3,2022.2.2,
low_opac_i,0.4,1,0.01,3,0.82,3.5,0.01,0,0.01,4,5,Invalid,2,49,145,start,lin,0.7103108326174117,0,0.7103108326174117,1,True,,,,,,,,,,,,7,A,2023-09-01_12h04.10.655,exp3,2022.2.2,
high_opac_v,0.01,1,0.01,3,0.82,3.5,0.01,0,0.01,4,5,Valid,1,49,146,start,lin,0.3269580208407898,0,0.3269580208407898,0,True,,,,,,,,,,,,7,A,2023-09-01_12h04.10.655,exp3,2022.2.2,
low_opac_v,0.4,1,0.01,3,0.82,3.5,0.01,0,0.01,4,5,Valid,0,50,147,start,lin,0.4627717354750407,0,0.4627717354750407,1,True,,,,,,,,,,,,7,A,2023-09-01_12h04.10.655,exp3,2022.2.2,
low_opac_i,0.4,1,0.01,3,0.82,3.5,0.01,0,0.01,4,5,Invalid,2,50,148,start,lin,0.7084981848423584,0.7084981848423584,0.7084981848423584,1,True,,,,,,,,,,,,7,A,2023-09-01_12h04.10.655,exp3,2022.2.2,
high_opac_v,0.01,1,0.01,3,0.82,3.5,0.01,0,0.01,4,5,Valid,1,50,149,start,lin,0.3344377213797275,0.3344377213797275,0.3344377213797275,1,True,,,,,,,,,,,,7,A,2023-09-01_12h04.10.655,exp3,2022.2.2,
high_opac_v,0.01,1,0.01,3,0.82,3.5,0.01,0,0.01,4,5,Valid,1,51,150,start,lin,0.3326448549563802,0.3326448549563802,0.3326448549563802,1,True,,,,,,,,,,,,7,A,2023-09-01_12h04.10.655,exp3,2022.2.2,
low_opac_v,0.4,1,0.01,3,0.82,3.5,0.01,0,0.01,4,5,Valid,0,51,151,start,lin,0.46105280942079074,0.46105280942079074,0.46105280942079074,1,True,,,,,,,,,,,,7,A,2023-09-01_12h04.10.655,exp3,2022.2.2,
low_opac_i,0.4,1,0.01,3,0.82,3.5,0.01,0,0.01,4,5,Invalid,2,51,152,start,lin,0.7067820682154883,0,0.7067820682154883,1,True,,,,,,,,,,,,7,A,2023-09-01_12h04.10.655,exp3,2022.2.2,
low_opac_i,0.4,1,0.01,3,0.82,3.5,0.01,0,0.01,4,5,Invalid,2,52,153,start,lin,0.7051416696475239,0,0.7051416696475239,1,True,,,,,,,,,,,,7,A,2023-09-01_12h04.10.655,exp3,2022.2.2,
low_opac_v,0.4,1,0.01,3,0.82,3.5,0.01,0,0.01,4,5,Valid,0,52,154,start,lin,0.4593581434389657,0.4593581434389657,0.4593581434389657,1,True,,,,,,,,,,,,7,A,2023-09-01_12h04.10.655,exp3,2022.2.2,
high_opac_v,0.01,1,0.01,3,0.82,3.5,0.01,0,0.01,4,5,Valid,1,52,155,start,lin,0.33089093847784595,0.33089093847784595,0.33089093847784595,1,True,,,,,,,,,,,,7,A,2023-09-01_12h04.10.655,exp3,2022.2.2,
low_opac_i,0.4,1,0.01,3,0.82,3.5,0.01,0,0.01,4,5,Invalid,2,53,156,start,lin,0.7035568409522052,0,0.7035568409522052,1,True,,,,,,,,,,,,7,A,2023-09-01_12h04.10.655,exp3,2022.2.2,
low_opac_v,0.4,1,0.01,3,0.82,3.5,0.01,0,0.01,4,5,Valid,0,53,157,start,lin,0.45774424204487285,0.45774424204487285,0.45774424204487285,1,True,,,,,,,,,,,,7,A,2023-09-01_12h04.10.655,exp3,2022.2.2,
high_opac_v,0.01,1,0.01,3,0.82,3.5,0.01,0,0.01,4,5,Valid,1,53,158,start,lin,0.3291700251103159,0.3291700251103159,0.3291700251103159,1,True,,,,,,,,,,,,7,A,2023-09-01_12h04.10.655,exp3,2022.2.2,
high_opac_v,0.01,1,0.01,3,0.82,3.5,0.01,0,0.01,4,5,Valid,1,54,159,start,lin,0.32753982948291027,0,0.32753982948291027,0,True,,,,,,,,,,,,7,A,2023-09-01_12h04.10.655,exp3,2022.2.2,
low_opac_i,0.4,1,0.01,3,0.82,3.5,0.01,0,0.01,4,5,Invalid,2,54,160,start,lin,0.7018692448774291,0,0.7018692448774291,1,True,,,,,,,,,,,,7,A,2023-09-01_12h04.10.655,exp3,2022.2.2,
low_opac_v,0.4,1,0.01,3,0.82,3.5,0.01,0,0.01,4,5,Valid,0,54,161,start,lin,0.4562087448691037,0,0.4562087448691037,0,True,,,,,,,,,,,,7,A,2023-09-01_12h04.10.655,exp3,2022.2.2,
low_opac_v,0.4,1,0.01,3,0.82,3.5,0.01,0,0.01,4,5,Valid,0,55,162,start,lin,0.46277511062361426,0,0.46277511062361426,1,True,,,,,,,,,,,,7,A,2023-09-01_12h04.10.655,exp3,2022.2.2,
high_opac_v,0.01,1,0.01,3,0.82,3.5,0.01,0,0.01,4,5,Valid,1,55,163,start,lin,0.33425372405308484,0.33425372405308484,0.33425372405308484,1,True,,,,,,,,,,,,7,A,2023-09-01_12h04.10.655,exp3,2022.2.2,
low_opac_i,0.4,1,0.01,3,0.82,3.5,0.01,0,0.01,4,5,Invalid,2,55,164,start,lin,0.700201231821266,0,0.700201231821266,0,True,,,,,,,,,,,,7,A,2023-09-01_12h04.10.655,exp3,2022.2.2,
low_opac_i,0.4,1,0.01,3,0.82,3.5,0.01,0,0.01,4,5,Invalid,2,56,165,start,lin,0.7066733359021473,0.7066733359021473,0.7066733359021473,1,True,,,,,,,,,,,,7,A,2023-09-01_12h04.10.655,exp3,2022.2.2,
low_opac_v,0.4,1,0.01,3,0.82,3.5,0.01,0,0.01,4,5,Valid,0,56,166,start,lin,0.46122594215838414,0,0.46122594215838414,1,True,,,,,,,,,,,,7,A,2023-09-01_12h04.10.655,exp3,2022.2.2,
high_opac_v,0.01,1,0.01,3,0.82,3.5,0.01,0,0.01,4,5,Valid,1,56,167,start,lin,0.33264684240090564,0.33264684240090564,0.33264684240090564,1,True,,,,,,,,,,,,7,A,2023-09-01_12h04.10.655,exp3,2022.2.2,
low_opac_i,0.4,1,0.01,3,0.82,3.5,0.01,0,0.01,4,5,Invalid,2,57,168,start,lin,0.7051994828811362,0.7051994828811362,0.7051994828811362,1,True,,,,,,,,,,,,7,A,2023-09-01_12h04.10.655,exp3,2022.2.2,
low_opac_v,0.4,1,0.01,3,0.82,3.5,0.01,0,0.01,4,5,Valid,0,57,169,start,lin,0.45968969747604643,0,0.45968969747604643,0,True,,,,,,,,,,,,7,A,2023-09-01_12h04.10.655,exp3,2022.2.2,
high_opac_v,0.01,1,0.01,3,0.82,3.5,0.01,0,0.01,4,5,Valid,1,57,170,start,lin,0.3310688731763823,0,0.3310688731763823,0,True,,,,,,,,,,,,7,A,2023-09-01_12h04.10.655,exp3,2022.2.2,
high_opac_v,0.01,1,0.01,3,0.82,3.5,0.01,0,0.01,4,5,Valid,1,58,171,start,lin,0.33715063750038904,0,0.33715063750038904,0,True,,,,,,,,,,,,7,A,2023-09-01_12h04.10.655,exp3,2022.2.2,
low_opac_i,0.4,1,0.01,3,0.82,3.5,0.01,0,0.01,4,5,Invalid,2,58,172,start,lin,0.7037717257235849,0,0.7037717257235849,0,True,,,,,,,,,,,,7,A,2023-09-01_12h04.10.655,exp3,2022.2.2,
low_opac_v,0.4,1,0.01,3,0.82,3.5,0.01,0,0.01,4,5,Valid,0,58,173,start,lin,0.465678607095906,0,0.465678607095906,1,True,,,,,,,,,,,,7,A,2023-09-01_12h04.10.655,exp3,2022.2.2,
low_opac_i,0.4,1,0.01,3,0.82,3.5,0.01,0,0.01,4,5,Invalid,2,59,174,start,lin,0.7096828079464634,0.7096828079464634,0.7096828079464634,1,True,,,,,,,,,,,,7,A,2023-09-01_12h04.10.655,exp3,2022.2.2,
low_opac_v,0.4,1,0.01,3,0.82,3.5,0.01,0,0.01,4,5,Valid,0,59,175,start,lin,0.46433050282267174,0.46433050282267174,0.46433050282267174,1,True,,,,,,,,,,,,7,A,2023-09-01_12h04.10.655,exp3,2022.2.2,
high_opac_v,0.01,1,0.01,3,0.82,3.5,0.01,0,0.01,4,5,Valid,1,59,176,start,lin,0.34340782867755887,0,0.34340782867755887,1,True,,,,,,,,,,,,7,A,2023-09-01_12h04.10.655,exp3,2022.2.2,
low_opac_v,0.4,1,0.01,3,0.82,3.5,0.01,0,0.01,4,5,Valid,0,60,177,start,lin,0.4628989820149321,0,0.4628989820149321,0,True,,,,,,,,,,,,7,A,2023-09-01_12h04.10.655,exp3,2022.2.2,
high_opac_v,0.01,1,0.01,3,0.82,3.5,0.01,0,0.01,4,5,Valid,1,60,178,start,lin,0.3419169759717872,0,0.3419169759717872,0,True,,,,,,,,,,,,7,A,2023-09-01_12h04.10.655,exp3,2022.2.2,
low_opac_i,0.4,1,0.01,3,0.82,3.5,0.01,0,0.01,4,5,Invalid,2,60,179,start,lin,0.7082168041686021,0,0.7082168041686021,1,True,,,,,,,,,,,,7,A,2023-09-01_12h04.10.655,exp3,2022.2.2,
high_opac_v,0.01,1,0.01,3,0.82,3.5,0.01,0,0.01,4,5,Valid,1,61,180,start,lin,0.3476389219502777,0,0.3476389219502777,0,True,,,,,,,,,,,,7,A,2023-09-01_12h04.10.655,exp3,2022.2.2,
low_opac_v,0.4,1,0.01,3,0.82,3.5,0.01,0,0.01,4,5,Valid,0,61,181,start,lin,0.4683703060675066,0,0.4683703060675066,1,True,,,,,,,,,,,,7,A,2023-09-01_12h04.10.655,exp3,2022.2.2,
low_opac_i,0.4,1,0.01,3,0.82,3.5,0.01,0,0.01,4,5,Invalid,2,61,182,start,lin,0.7068200758469565,0.7068200758469565,0.7068200758469565,1,True,,,,,,,,,,,,7,A,2023-09-01_12h04.10.655,exp3,2022.2.2,
low_opac_v,0.4,1,0.01,3,0.82,3.5,0.01,0,0.01,4,5,Valid,0,62,183,start,lin,0.4670417111640648,0.4670417111640648,0.4670417111640648,1,True,,,,,,,,,,,,7,A,2023-09-01_12h04.10.655,exp3,2022.2.2,
high_opac_v,0.01,1,0.01,3,0.82,3.5,0.01,0,0.01,4,5,Valid,1,62,184,start,lin,0.3535864355013514,0.3535864355013514,0.3535864355013514,1,True,,,,,,,,,,,,7,A,2023-09-01_12h04.10.655,exp3,2022.2.2,
low_opac_i,0.4,1,0.01,3,0.82,3.5,0.01,0,0.01,4,5,Invalid,2,62,185,start,lin,0.705477603775505,0.705477603775505,0.705477603775505,1,True,,,,,,,,,,,,7,A,2023-09-01_12h04.10.655,exp3,2022.2.2,
high_opac_v,0.01,1,0.01,3,0.82,3.5,0.01,0,0.01,4,5,Valid,1,63,186,start,lin,0.3521652500132232,0,0.3521652500132232,1,True,,,,,,,,,,,,7,A,2023-09-01_12h04.10.655,exp3,2022.2.2,
low_opac_i,0.4,1,0.01,3,0.82,3.5,0.01,0,0.01,4,5,Invalid,2,63,187,start,lin,0.7041760646015329,0,0.7041760646015329,0,True,,,,,,,,,,,,7,A,2023-09-01_12h04.10.655,exp3,2022.2.2,
low_opac_v,0.4,1,0.01,3,0.82,3.5,0.01,0,0.01,4,5,Valid,0,63,188,start,lin,0.4657665572861748,0,0.4657665572861748,0,True,,,,,,,,,,,,7,A,2023-09-01_12h04.10.655,exp3,2022.2.2,
high_opac_v,0.01,1,0.01,3,0.82,3.5,0.01,0,0.01,4,5,Valid,1,64,189,start,lin,0.35076098560482494,0.35076098560482494,0.35076098560482494,1,True,,,,,,,,,,,,7,A,2023-09-01_12h04.10.655,exp3,2022.2.2,
low_opac_v,0.4,1,0.01,3,0.82,3.5,0.01,0,0.01,4,5,Valid,0,64,190,start,lin,0.4713484066094645,0,0.4713484066094645,0,True,,,,,,,,,,,,7,A,2023-09-01_12h04.10.655,exp3,2022.2.2,
low_opac_i,0.4,1,0.01,3,0.82,3.5,0.01,0,0.01,4,5,Invalid,2,64,191,start,lin,0.7095624455345237,0,0.7095624455345237,1,True,,,,,,,,,,,,7,A,2023-09-01_12h04.10.655,exp3,2022.2.2,
low_opac_i,0.4,1,0.01,3,0.82,3.5,0.01,0,0.01,4,5,Invalid,2,65,192,start,lin,0.7082211705039172,0,0.7082211705039172,0,True,,,,,,,,,,,,7,A,2023-09-01_12h04.10.655,exp3,2022.2.2,
low_opac_v,0.4,1,0.01,3,0.82,3.5,0.01,0,0.01,4,5,Valid,0,65,193,start,lin,0.47651375744401975,0,0.47651375744401975,0,True,,,,,,,,,,,,7,A,2023-09-01_12h04.10.655,exp3,2022.2.2,
high_opac_v,0.01,1,0.01,3,0.82,3.5,0.01,0,0.01,4,5,Valid,1,65,194,start,lin,0.34937206604121857,0,0.34937206604121857,0,True,,,,,,,,,,,,7,A,2023-09-01_12h04.10.655,exp3,2022.2.2,
low_opac_v,0.4,1,0.01,3,0.82,3.5,0.01,0,0.01,4,5,Valid,0,66,195,start,lin,0.4819050902823133,0.4819050902823133,0.4819050902823133,1,True,,,,,,,,,,,,7,A,2023-09-01_12h04.10.655,exp3,2022.2.2,
high_opac_v,0.01,1,0.01,3,0.82,3.5,0.01,0,0.01,4,5,Valid,1,66,196,start,lin,0.3548349335675127,0.3548349335675127,0.3548349335675127,1,True,,,,,,,,,,,,7,A,2023-09-01_12h04.10.655,exp3,2022.2.2,
low_opac_i,0.4,1,0.01,3,0.82,3.5,0.01,0,0.01,4,5,Invalid,2,66,197,start,lin,0.7137007032010498,0,0.7137007032010498,0,True,,,,,,,,,,,,7,A,2023-09-01_12h04.10.655,exp3,2022.2.2,
high_opac_v,0.01,1,0.01,3,0.82,3.5,0.01,0,0.01,4,5,Valid,1,67,198,start,lin,0.35350834792925356,0,0.35350834792925356,0,True,,,,,,,,,,,,7,A,2023-09-01_12h04.10.655,exp3,2022.2.2,
low_opac_v,0.4,1,0.01,3,0.82,3.5,0.01,0,0.01,4,5,Valid,0,67,199,start,lin,0.4806222394175066,0,0.4806222394175066,0,True,,,,,,,,,,,,7,A,2023-09-01_12h04.10.655,exp3,2022.2.2,
low_opac_i,0.4,1,0.01,3,0.82,3.5,0.01,0,0.01,4,5,Invalid,2,67,200,start,lin,0.718727825219609,0,0.718727825219609,1,True,,,,,,,,,,,,7,A,2023-09-01_12h04.10.655,exp3,2022.2.2,
low_opac_v,0.4,1,0.01,3,0.82,3.5,0.01,0,0.01,4,5,Valid,0,68,201,start,lin,0.4856092659826312,0,0.4856092659826312,1,True,,,,,,,,,,,,7,A,2023-09-01_12h04.10.655,exp3,2022.2.2,
high_opac_v,0.01,1,0.01,3,0.82,3.5,0.01,0,0.01,4,5,Valid,1,68,202,start,lin,0.35856258939577157,0.35856258939577157,0.35856258939577157,1,True,,,,,,,,,,,,7,A,2023-09-01_12h04.10.655,exp3,2022.2.2,
low_opac_i,0.4,1,0.01,3,0.82,3.5,0.01,0,0.01,4,5,Invalid,2,68,203,start,lin,0.7174926767368581,0,0.7174926767368581,1,True,,,,,,,,,,,,7,A,2023-09-01_12h04.10.655,exp3,2022.2.2,
low_opac_v,0.4,1,0.01,3,0.82,3.5,0.01,0,0.01,4,5,Valid,0,69,204,start,lin,0.48447260226513783,0,0.48447260226513783,1,True,,,,,,,,,,,,7,A,2023-09-01_12h04.10.655,exp3,2022.2.2,
high_opac_v,0.01,1,0.01,3,0.82,3.5,0.01,0,0.01,4,5,Valid,1,69,205,start,lin,0.35731763159229907,0.35731763159229907,0.35731763159229907,1,True,,,,,,,,,,,,7,A,2023-09-01_12h04.10.655,exp3,2022.2.2,
low_opac_i,0.4,1,0.01,3,0.82,3.5,0.01,0,0.01,4,5,Invalid,2,69,206,start,lin,0.7163072004914528,0,0.7163072004914528,1,True,,,,,,,,,,,,7,A,2023-09-01_12h04.10.655,exp3,2022.2.2,
low_opac_i,0.4,1,0.01,3,0.82,3.5,0.01,0,0.01,4,5,Invalid,2,70,207,start,lin,0.7151607752986183,0.7151607752986183,0.7151607752986183,1,True,,,,,,,,,,,,7,A,2023-09-01_12h04.10.655,exp3,2022.2.2,
low_opac_v,0.4,1,0.01,3,0.82,3.5,0.01,0,0.01,4,5,Valid,0,70,208,start,lin,0.4832623559420932,0.4832623559420932,0.4832623559420932,1,True,,,,,,,,,,,,7,A,2023-09-01_12h04.10.655,exp3,2022.2.2,
high_opac_v,0.01,1,0.01,3,0.82,3.5,0.01,0,0.01,4,5,Valid,1,70,209,start,lin,0.3561238106130136,0,0.3561238106130136,0,True,,,,,,,,,,,,7,A,2023-09-01_12h04.10.655,exp3,2022.2.2,
high_opac_v,0.01,1,0.01,3,0.82,3.5,0.01,0,0.01,4,5,Valid,1,71,210,start,lin,0.3613417930867021,0.3613417930867021,0.3613417930867021,1,True,,,,,,,,,,,,7,A,2023-09-01_12h04.10.655,exp3,2022.2.2,
low_opac_v,0.4,1,0.01,3,0.82,3.5,0.01,0,0.01,4,5,Valid,0,71,211,start,lin,0.48206951009146587,0.48206951009146587,0.48206951009146587,1,True,,,,,,,,,,,,7,A,2023-09-01_12h04.10.655,exp3,2022.2.2,
low_opac_i,0.4,1,0.01,3,0.82,3.5,0.01,0,0.01,4,5,Invalid,2,71,212,start,lin,0.714043835530212,0,0.714043835530212,1,True,,,,,,,,,,,,7,A,2023-09-01_12h04.10.655,exp3,2022.2.2,
low_opac_v,0.4,1,0.01,3,0.82,3.5,0.01,0,0.01,4,5,Valid,0,72,213,start,lin,0.4808840306488036,0,0.4808840306488036,1,True,,,,,,,,,,,,7,A,2023-09-01_12h04.10.655,exp3,2022.2.2,
high_opac_v,0.01,1,0.01,3,0.82,3.5,0.01,0,0.01,4,5,Valid,1,72,214,start,lin,0.3600887117834348,0,0.3600887117834348,1,True,,,,,,,,,,,,7,A,2023-09-01_12h04.10.655,exp3,2022.2.2,
low_opac_i,0.4,1,0.01,3,0.82,3.5,0.01,0,0.01,4,5,Invalid,2,72,215,start,lin,0.7128485321561168,0,0.7128485321561168,1,True,,,,,,,,,,,,7,A,2023-09-01_12h04.10.655,exp3,2022.2.2,
high_opac_v,0.01,1,0.01,3,0.82,3.5,0.01,0,0.01,4,5,Valid,1,73,216,start,lin,0.35886779084207165,0.35886779084207165,0.35886779084207165,1,True,,,,,,,,,,,,7,A,2023-09-01_12h04.10.655,exp3,2022.2.2,
low_opac_i,0.4,1,0.01,3,0.82,3.5,0.01,0,0.01,4,5,Invalid,2,73,217,start,lin,0.7116651440365183,0,0.7116651440365183,1,True,,,,,,,,,,,,7,A,2023-09-01_12h04.10.655,exp3,2022.2.2,
low_opac_v,0.4,1,0.01,3,0.82,3.5,0.01,0,0.01,4,5,Valid,0,73,218,start,lin,0.47969943855550756,0.47969943855550756,0.47969943855550756,1,True,,,,,,,,,,,,7,A,2023-09-01_12h04.10.655,exp3,2022.2.2,
low_opac_v,0.4,1,0.01,3,0.82,3.5,0.01,0,0.01,4,5,Valid,0,74,219,start,lin,0.47855755149681023,0,0.47855755149681023,1,True,,,,,,,,,,,,7,A,2023-09-01_12h04.10.655,exp3,2022.2.2,
low_opac_i,0.4,1,0.01,3,0.82,3.5,0.01,0,0.01,4,5,Invalid,2,74,220,start,lin,0.7104840746061556,0.7104840746061556,0.7104840746061556,1,True,,,,,,,,,,,,7,A,2023-09-01_12h04.10.655,exp3,2022.2.2,
high_opac_v,0.01,1,0.01,3,0.82,3.5,0.01,0,0.01,4,5,Valid,1,74,221,start,lin,0.3577058763820614,0.3577058763820614,0.3577058763820614,1,True,,,,,,,,,,,,7,A,2023-09-01_12h04.10.655,exp3,2022.2.2,
low_opac_i,0.4,1,0.01,3,0.82,3.5,0.01,0,0.01,4,5,Invalid,2,75,222,start,lin,0.7093062075305376,0.7093062075305376,0.7093062075305376,1,True,,,,,,,,,,,,7,A,2023-09-01_12h04.10.655,exp3,2022.2.2,
high_opac_v,0.01,1,0.01,3,0.82,3.5,0.01,0,0.01,4,5,Valid,1,75,223,start,lin,0.3565919533283703,0,0.3565919533283703,1,True,,,,,,,,,,,,7,A,2023-09-01_12h04.10.655,exp3,2022.2.2,
low_opac_v,0.4,1,0.01,3,0.82,3.5,0.01,0,0.01,4,5,Valid,0,75,224,start,lin,0.47746659805632446,0,0.47746659805632446,0,True,,,,,,,,,,,,7,A,2023-09-01_12h04.10.655,exp3,2022.2.2,
,,,,,,,,,,,,,,,,,,,,,,,0,1158,Valid,signal,0,1,1234.6844550999813,1,4.0,13.799007399939,True,7,A,2023-09-01_12h04.10.655,exp3,2022.2.2,
,,,,,,,,,,,,,,,,,,,,,,,0,557,Valid,signal,0,1,1248.6207693000324,1,4.0,4.029414099873975,True,7,A,2023-09-01_12h04.10.655,exp3,2022.2.2,
,,,,,,,,,,,,,,,,,,,,,,,0,-1716,Invalid,signal,0,1,1253.1320954000112,1,4.0,3.2298166998662055,True,7,A,2023-09-01_12h04.10.655,exp3,2022.2.2,
,,,,,,,,,,,,,,,,,,,,,,,0,557,Valid,noise,0,2,1258.6052854999434,1,2.0,5.213698700070381,True,7,A,2023-09-01_12h04.10.655,exp3,2022.2.2,
,,,,,,,,,,,,,,,,,,,,,,,0,-2274,Valid,signal,0,1,1264.0291822000872,1,3.0,4.196863200049847,True,7,A,2023-09-01_12h04.10.655,exp3,2022.2.2,
,,,,,,,,,,,,,,,,,,,,,,,0,2274,Valid,signal,0,1,1268.6207133000717,1,3.0,3.112777299946174,True,7,A,2023-09-01_12h04.10.655,exp3,2022.2.2,
,,,,,,,,,,,,,,,,,,,,,,,0,-1158,Invalid,noise,0,1,1274.0762933001388,0,2.0,4.996873199939728,True,7,A,2023-09-01_12h04.10.655,exp3,2022.2.2,
,,,,,,,,,,,,,,,,,,,,,,,0,557,Valid,signal,0,1,1278.3960005999543,1,4.0,2.79611560003832,True,7,A,2023-09-01_12h04.10.655,exp3,2022.2.2,
,,,,,,,,,,,,,,,,,,,,,,,0,1716,Invalid,signal,0,1,1282.9081200000364,1,3.0,3.629867000039667,True,7,A,2023-09-01_12h04.10.655,exp3,2022.2.2,
,,,,,,,,,,,,,,,,,,,,,,,0,1158,Valid,signal,0,1,1286.9093231000006,1,4.0,3.9802550999447703,True,7,A,2023-09-01_12h04.10.655,exp3,2022.2.2,
,,,,,,,,,,,,,,,,,,,,,,,0,-557,Valid,signal,0,1,1292.1248789001256,1,4.0,4.096352000022307,True,7,A,2023-09-01_12h04.10.655,exp3,2022.2.2,
,,,,,,,,,,,,,,,,,,,,,,,0,1716,Valid,noise,0,1,1297.324261700036,0,2.0,3.529662000015378,True,7,A,2023-09-01_12h04.10.655,exp3,2022.2.2,
,,,,,,,,,,,,,,,,,,,,,,,0,2274,Valid,signal,0,1,1301.7092273000162,1,3.0,2.9795232000760734,True,7,A,2023-09-01_12h04.10.655,exp3,2022.2.2,
,,,,,,,,,,,,,,,,,,,,,,,0,-1158,Invalid,signal,0,1,1305.4848678999115,1,4.0,2.7958905999548733,True,7,A,2023-09-01_12h04.10.655,exp3,2022.2.2,
,,,,,,,,,,,,,,,,,,,,,,,0,2274,Valid,noise,0,1,1310.4121222000103,0,2.0,4.113428500015289,True,7,A,2023-09-01_12h04.10.655,exp3,2022.2.2,
,,,,,,,,,,,,,,,,,,,,,,,0,557,Invalid,noise,0,2,1315.5805754999164,1,3.0,4.063865100033581,True,7,A,2023-09-01_12h04.10.655,exp3,2022.2.2,
,,,,,,,,,,,,,,,,,,,,,,,0,557,Valid,noise,0,2,1320.0602565999143,1,4.0,3.6293975999578834,True,7,A,2023-09-01_12h04.10.655,exp3,2022.2.2,
,,,,,,,,,,,,,,,,,,,,,,,0,-1716,Valid,signal,0,1,1324.1720040999353,1,4.0,3.5286725000478327,True,7,A,2023-09-01_12h04.10.655,exp3,2022.2.2,
,,,,,,,,,,,,,,,,,,,,,,,0,557,Valid,signal,0,1,1330.8922270999756,1,4.0,4.9973768999334425,True,7,A,2023-09-01_12h04.10.655,exp3,2022.2.2,
,,,,,,,,,,,,,,,,,,,,,,,0,2274,Valid,signal,0,1,1334.860730000073,1,3.0,3.045986899873242,True,7,A,2023-09-01_12h04.10.655,exp3,2022.2.2,
,,,,,,,,,,,,,,,,,,,,,,,0,1716,Valid,signal,0,1,1338.7959443000145,1,4.0,2.7463661001529545,True,7,A,2023-09-01_12h04.10.655,exp3,2022.2.2,
,,,,,,,,,,,,,,,,,,,,,,,0,1158,Valid,noise,0,2,1344.5085955001414,1,3.0,5.630505499895662,True,7,A,2023-09-01_12h04.10.655,exp3,2022.2.2,
,,,,,,,,,,,,,,,,,,,,,,,0,-2274,Valid,noise,0,2,1350.1399954999797,1,2.0,3.9965649000369012,True,7,A,2023-09-01_12h04.10.655,exp3,2022.2.2,
,,,,,,,,,,,,,,,,,,,,,,,0,1158,Valid,noise,0,1,1355.5651942000259,0,1.0,4.763807800132781,True,7,A,2023-09-01_12h04.10.655,exp3,2022.2.2,
,,,,,,,,,,,,,,,,,,,,,,,0,-1716,Valid,noise,0,2,1360.8762165000662,1,1.0,3.7127769999206066,True,7,A,2023-09-01_12h04.10.655,exp3,2022.2.2,
,,,,,,,,,,,,,,,,,,,,,,,0,-2274,Invalid,signal,0,1,1367.8364445001353,1,2.0,6.08136499999091,True,7,A,2023-09-01_12h04.10.655,exp3,2022.2.2,
,,,,,,,,,,,,,,,,,,,,,,,0,557,Invalid,noise,0,2,1372.5888994999696,1,2.0,4.229704499943182,True,7,A,2023-09-01_12h04.10.655,exp3,2022.2.2,
,,,,,,,,,,,,,,,,,,,,,,,0,1158,Invalid,signal,0,1,1377.1322948001325,1,4.0,3.0630713999271393,True,7,A,2023-09-01_12h04.10.655,exp3,2022.2.2,
,,,,,,,,,,,,,,,,,,,,,,,0,-2274,Valid,noise,0,2,1381.6607234000694,1,2.0,3.9468163000419736,True,7,A,2023-09-01_12h04.10.655,exp3,2022.2.2,
,,,,,,,,,,,,,,,,,,,,,,,0,-2274,Valid,noise,0,2,1386.5239307999145,1,2.0,3.1297953999601305,True,7,A,2023-09-01_12h04.10.655,exp3,2022.2.2,
,,,,,,,,,,,,,,,,,,,,,,,0,1158,Valid,signal,0,1,1390.0922876000404,1,4.0,3.279274200089276,True,7,A,2023-09-01_12h04.10.655,exp3,2022.2.2,
,,,,,,,,,,,,,,,,,,,,,,,0,-557,Valid,signal,0,1,1394.4918941000942,1,4.0,3.980083800153807,True,7,A,2023-09-01_12h04.10.655,exp3,2022.2.2,
,,,,,,,,,,,,,,,,,,,,,,,0,2274,Valid,signal,0,1,1399.452238400001,1,4.0,3.33023629989475,True,7,A,2023-09-01_12h04.10.655,exp3,2022.2.2,
,,,,,,,,,,,,,,,,,,,,,,,0,-2274,Valid,noise,0,2,1404.0290723000653,1,1.0,3.695961100049317,True,7,A,2023-09-01_12h04.10.655,exp3,2022.2.2,
,,,,,,,,,,,,,,,,,,,,,,,0,-557,Valid,noise,0,2,1408.5406212001108,1,3.0,4.463341500144452,True,7,A,2023-09-01_12h04.10.655,exp3,2022.2.2,
,,,,,,,,,,,,,,,,,,,,,,,0,1158,Valid,noise,0,1,1421.0041147000156,0,2.0,10.932884500129148,True,7,A,2023-09-01_12h04.10.655,exp3,2022.2.2,
,,,,,,,,,,,,,,,,,,,,,,,0,1716,Invalid,noise,0,2,1426.4128837999888,1,2.0,3.5128355999477208,True,7,A,2023-09-01_12h04.10.655,exp3,2022.2.2,
,,,,,,,,,,,,,,,,,,,,,,,0,-1158,Invalid,noise,0,2,1433.228631200036,1,1.0,5.881658500060439,True,7,A,2023-09-01_12h04.10.655,exp3,2022.2.2,
,,,,,,,,,,,,,,,,,,,,,,,0,-1158,Valid,signal,0,1,1437.2452279001009,1,4.0,3.0629412999842316,True,7,A,2023-09-01_12h04.10.655,exp3,2022.2.2,
,,,,,,,,,,,,,,,,,,,,,,,0,557,Valid,signal,0,1,1441.2920997999609,1,4.0,3.478942099958658,True,7,A,2023-09-01_12h04.10.655,exp3,2022.2.2,
,,,,,,,,,,,,,,,,,,,,,,,0,1158,Valid,signal,0,1,1446.0764409999829,1,4.0,3.5294031999073923,True,7,A,2023-09-01_12h04.10.655,exp3,2022.2.2,
,,,,,,,,,,,,,,,,,,,,,,,0,-2274,Valid,signal,0,1,1450.8449279000051,1,3.0,3.31340379989706,True,7,A,2023-09-01_12h04.10.655,exp3,2022.2.2,
,,,,,,,,,,,,,,,,,,,,,,,0,557,Valid,signal,0,1,1454.4932583000045,1,4.0,2.763138599926606,True,7,A,2023-09-01_12h04.10.655,exp3,2022.2.2,
,,,,,,,,,,,,,,,,,,,,,,,0,-1158,Valid,noise,0,2,1461.595929000061,1,1.0,6.630579499993473,True,7,A,2023-09-01_12h04.10.655,exp3,2022.2.2,
,,,,,,,,,,,,,,,,,,,,,,,0,1716,Valid,noise,0,2,1466.3322787000798,1,1.0,3.729648199863732,True,7,A,2023-09-01_12h04.10.655,exp3,2022.2.2,
,,,,,,,,,,,,,,,,,,,,,,,0,2274,Valid,signal,0,1,1470.7644120999612,1,3.0,2.9799049999564886,True,7,A,2023-09-01_12h04.10.655,exp3,2022.2.2,
,,,,,,,,,,,,,,,,,,,,,,,0,-557,Valid,signal,0,1,1474.8131455001421,1,4.0,2.7793966000899673,True,7,A,2023-09-01_12h04.10.655,exp3,2022.2.2,
,,,,,,,,,,,,,,,,,,,,,,,0,2274,Valid,signal,0,1,1479.0204598000273,1,2.0,3.3968346999026835,True,7,A,2023-09-01_12h04.10.655,exp3,2022.2.2,
,,,,,,,,,,,,,,,,,,,,,,,0,1716,Valid,noise,0,1,1486.9081451999955,0,2.0,7.764077400090173,True,7,A,2023-09-01_12h04.10.655,exp3,2022.2.2,
,,,,,,,,,,,,,,,,,,,,,,,0,-1716,Valid,noise,0,2,1493.8848546000663,1,1.0,5.030632399953902,True,7,A,2023-09-01_12h04.10.655,exp3,2022.2.2,
,,,,,,,,,,,,,,,,,,,,,,,0,1158,Valid,noise,0,2,1500.2044140999205,1,2.0,5.631538499845192,True,7,A,2023-09-01_12h04.10.655,exp3,2022.2.2,
,,,,,,,,,,,,,,,,,,,,,,,0,1716,Valid,noise,0,2,1506.7806611999404,1,1.0,5.61277320003137,True,7,A,2023-09-01_12h04.10.655,exp3,2022.2.2,
,,,,,,,,,,,,,,,,,,,,,,,0,2274,Valid,signal,0,1,1513.2279385000002,1,2.0,5.497474600095302,True,7,A,2023-09-01_12h04.10.655,exp3,2022.2.2,
,,,,,,,,,,,,,,,,,,,,,,,0,-1158,Valid,noise,0,2,1518.028754600091,1,1.0,3.229100399883464,True,7,A,2023-09-01_12h04.10.655,exp3,2022.2.2,
,,,,,,,,,,,,,,,,,,,,,,,0,1158,Valid,signal,0,1,1521.7561482000165,1,4.0,3.7968480999115855,True,7,A,2023-09-01_12h04.10.655,exp3,2022.2.2,
,,,,,,,,,,,,,,,,,,,,,,,0,-1716,Valid,signal,0,1,1527.9639254999347,1,4.0,4.26334759988822,True,7,A,2023-09-01_12h04.10.655,exp3,2022.2.2,
,,,,,,,,,,,,,,,,,,,,,,,0,1716,Invalid,signal,0,1,1532.02866489999,1,4.0,2.946215100120753,True,7,A,2023-09-01_12h04.10.655,exp3,2022.2.2,
,,,,,,,,,,,,,,,,,,,,,,,0,-2274,Valid,signal,0,1,1535.9808511999436,1,4.0,4.7469600001350045,True,7,A,2023-09-01_12h04.10.655,exp3,2022.2.2,
,,,,,,,,,,,,,,,,,,,,,,,0,-557,Valid,signal,0,1,1541.7719837999903,1,4.0,2.929308000020683,True,7,A,2023-09-01_12h04.10.655,exp3,2022.2.2,
,,,,,,,,,,,,,,,,,,,,,,,0,-1158,Valid,signal,0,1,1545.59690340003,1,4.0,3.3967571000102907,True,7,A,2023-09-01_12h04.10.655,exp3,2022.2.2,
,,,,,,,,,,,,,,,,,,,,,,,0,557,Valid,noise,0,2,1551.4199125999585,1,3.0,4.963618000037968,True,7,A,2023-09-01_12h04.10.655,exp3,2022.2.2,
,,,,,,,,,,,,,,,,,,,,,,,0,-1716,Valid,noise,0,2,1557.884707099991,1,2.0,6.197481600102037,True,7,A,2023-09-01_12h04.10.655,exp3,2022.2.2,
,,,,,,,,,,,,,,,,,,,,,,,0,1158,Invalid,signal,0,1,1563.4840232001152,1,4.0,3.36396270012483,True,7,A,2023-09-01_12h04.10.655,exp3,2022.2.2,
,,,,,,,,,,,,,,,,,,,,,,,0,-557,Invalid,noise,0,2,1571.004691499984,1,3.0,6.647012800211087,True,7,A,2023-09-01_12h04.10.655,exp3,2022.2.2,
,,,,,,,,,,,,,,,,,,,,,,,0,1716,Valid,signal,0,1,1575.2126955999993,1,4.0,4.313838700065389,True,7,A,2023-09-01_12h04.10.655,exp3,2022.2.2,
,,,,,,,,,,,,,,,,,,,,,,,0,1716,Valid,signal,0,1,1580.6851584000979,1,4.0,4.012526000151411,True,7,A,2023-09-01_12h04.10.655,exp3,2022.2.2,
,,,,,,,,,,,,,,,,,,,,,,,0,557,Valid,signal,0,1,1585.2443061000668,1,4.0,2.379652700154111,True,7,A,2023-09-01_12h04.10.655,exp3,2022.2.2,
,,,,,,,,,,,,,,,,,,,,,,,0,-2274,Valid,noise,0,2,1590.1727668999229,1,2.0,5.397159699816257,True,7,A,2023-09-01_12h04.10.655,exp3,2022.2.2,
,,,,,,,,,,,,,,,,,,,,,,,0,557,Valid,noise,0,2,1595.772584100021,1,3.0,3.696791599970311,True,7,A,2023-09-01_12h04.10.655,exp3,2022.2.2,
,,,,,,,,,,,,,,,,,,,,,,,0,1716,Valid,noise,0,2,1604.076508200029,1,2.0,7.413858499843627,True,7,A,2023-09-01_12h04.10.655,exp3,2022.2.2,
,,,,,,,,,,,,,,,,,,,,,,,0,2274,Valid,signal,0,1,1608.476252600085,1,2.0,2.8965594000183046,True,7,A,2023-09-01_12h04.10.655,exp3,2022.2.2,
,,,,,,,,,,,,,,,,,,,,,,,0,-557,Invalid,signal,0,1,1612.268952500075,1,4.0,2.9959745998494327,True,7,A,2023-09-01_12h04.10.655,exp3,2022.2.2,
,,,,,,,,,,,,,,,,,,,,,,,0,-557,Valid,noise,0,2,1617.516158600105,1,1.0,4.2137066998984665,True,7,A,2023-09-01_12h04.10.655,exp3,2022.2.2,
,,,,,,,,,,,,,,,,,,,,,,,0,-2274,Invalid,noise,0,2,1625.867723000003,1,1.0,7.214652699884027,True,7,A,2023-09-01_12h04.10.655,exp3,2022.2.2,
,,,,,,,,,,,,,,,,,,,,,,,0,-1158,Valid,noise,0,1,1630.461042900104,0,2.0,4.26281169988215,True,7,A,2023-09-01_12h04.10.655,exp3,2022.2.2,
,,,,,,,,,,,,,,,,,,,,,,,0,-1716,Valid,noise,0,1,1636.0449115999509,0,1.0,4.280870500020683,True,7,A,2023-09-01_12h04.10.655,exp3,2022.2.2,
,,,,,,,,,,,,,,,,,,,,,,,0,-1158,Valid,signal,0,1,1640.204739100067,1,4.0,2.7287632999941707,True,7,A,2023-09-01_12h04.10.655,exp3,2022.2.2,
,,,,,,,,,,,,,,,,,,,,,,,0,-1716,Valid,noise,0,2,1648.940113400109,1,2.0,9.465653400169685,True,7,A,2023-09-01_12h04.10.655,exp3,2022.2.2,
,,,,,,,,,,,,,,,,,,,,,,,0,-2274,Valid,signal,0,1,1654.9561489000916,1,4.0,4.680664800107479,True,7,A,2023-09-01_12h04.10.655,exp3,2022.2.2,
,,,,,,,,,,,,,,,,,,,,,,,0,-2274,Valid,noise,0,2,1660.7644607999828,1,2.0,4.096339100040495,True,7,A,2023-09-01_12h04.10.655,exp3,2022.2.2,
,,,,,,,,,,,,,,,,,,,,,,,0,1158,Valid,noise,0,1,1665.4526905000675,0,2.0,2.8296656999737024,True,7,A,2023-09-01_12h04.10.655,exp3,2022.2.2,
,,,,,,,,,,,,,,,,,,,,,,,0,1716,Valid,signal,0,1,1668.9560426000971,1,4.0,3.879422500031069,True,7,A,2023-09-01_12h04.10.655,exp3,2022.2.2,
,,,,,,,,,,,,,,,,,,,,,,,0,2274,Valid,noise,0,1,1674.4609044999816,0,2.0,4.11322439997457,True,7,A,2023-09-01_12h04.10.655,exp3,2022.2.2,
,,,,,,,,,,,,,,,,,,,,,,,0,-1158,Invalid,signal,0,1,1679.3402557000518,1,4.0,3.7464903998188674,True,7,A,2023-09-01_12h04.10.655,exp3,2022.2.2,
,,,,,,,,,,,,,,,,,,,,,,,0,-557,Valid,noise,0,2,1688.892390300054,1,2.0,12.783836599905044,True,7,A,2023-09-01_12h04.10.655,exp3,2022.2.2,
,,,,,,,,,,,,,,,,,,,,,,,0,-2274,Valid,signal,0,1,1697.9803758999333,1,3.0,4.197195099899545,True,7,A,2023-09-01_12h04.10.655,exp3,2022.2.2,
,,,,,,,,,,,,,,,,,,,,,,,0,2274,Invalid,noise,0,2,1704.2364855001215,1,2.0,4.312685300130397,True,7,A,2023-09-01_12h04.10.655,exp3,2022.2.2,
,,,,,,,,,,,,,,,,,,,,,,,0,-557,Invalid,signal,0,1,1708.3327252001036,1,4.0,3.3797408000100404,True,7,A,2023-09-01_12h04.10.655,exp3,2022.2.2,
,,,,,,,,,,,,,,,,,,,,,,,0,-1716,Valid,noise,0,2,1712.8603187999688,1,3.0,4.263489600038156,True,7,A,2023-09-01_12h04.10.655,exp3,2022.2.2,
,,,,,,,,,,,,,,,,,,,,,,,0,-1158,Valid,noise,0,2,1717.9159552000929,1,3.0,2.846136699896306,True,7,A,2023-09-01_12h04.10.655,exp3,2022.2.2,
,,,,,,,,,,,,,,,,,,,,,,,0,-557,Valid,noise,0,2,1724.6685556999873,1,3.0,6.847858099965379,True,7,A,2023-09-01_12h04.10.655,exp3,2022.2.2,
,,,,,,,,,,,,,,,,,,,,,,,0,1158,Valid,noise,0,2,1732.156789700035,1,2.0,6.664024700177833,True,7,A,2023-09-01_12h04.10.655,exp3,2022.2.2,
,,,,,,,,,,,,,,,,,,,,,,,0,1716,Valid,noise,0,2,1737.5805842999835,1,1.0,3.530377000104636,True,7,A,2023-09-01_12h04.10.655,exp3,2022.2.2,
,,,,,,,,,,,,,,,,,,,,,,,0,1716,Valid,signal,0,1,1743.8838667999953,1,4.0,5.246736200060695,True,7,A,2023-09-01_12h04.10.655,exp3,2022.2.2,
,,,,,,,,,,,,,,,,,,,,,,,0,-557,Valid,signal,0,1,1747.9004031999502,1,4.0,4.047206599963829,True,7,A,2023-09-01_12h04.10.655,exp3,2022.2.2,
,,,,,,,,,,,,,,,,,,,,,,,0,-1716,Valid,signal,0,1,1752.796078399988,1,4.0,2.5121736000292003,True,7,A,2023-09-01_12h04.10.655,exp3,2022.2.2,
,,,,,,,,,,,,,,,,,,,,,,,0,2274,Invalid,noise,0,2,1756.764201699989,1,2.0,3.212691699853167,True,7,A,2023-09-01_12h04.10.655,exp3,2022.2.2,
,,,,,,,,,,,,,,,,,,,,,,,0,-1716,Valid,signal,0,1,1760.4757894999348,1,4.0,2.6131456000730395,True,7,A,2023-09-01_12h04.10.655,exp3,2022.2.2,
,,,,,,,,,,,,,,,,,,,,,,,0,557,Valid,noise,0,2,1764.8278189999983,1,4.0,3.4963647997938097,True,7,A,2023-09-01_12h04.10.655,exp3,2022.2.2,
,,,,,,,,,,,,,,,,,,,,,,,0,1158,Valid,signal,0,1,1768.7803032000083,1,4.0,2.7296869000419974,True,7,A,2023-09-01_12h04.10.655,exp3,2022.2.2,
,,,,,,,,,,,,,,,,,,,,,,,0,2274,Valid,noise,0,1,1773.9163790999446,0,1.0,5.230209500063211,True,7,A,2023-09-01_12h04.10.655,exp3,2022.2.2,
,,,,,,,,,,,,,,,,,,,,,,,0,1716,Valid,signal,0,1,1778.6841086000204,1,4.0,3.129379100166261,True,7,A,2023-09-01_12h04.10.655,exp3,2022.2.2,
,,,,,,,,,,,,,,,,,,,,,,,0,2274,Valid,noise,0,2,1783.4357752001379,1,2.0,3.796717599965632,True,7,A,2023-09-01_12h04.10.655,exp3,2022.2.2,
,,,,,,,,,,,,,,,,,,,,,,,0,-2274,Valid,noise,0,2,1788.1558715000283,1,2.0,3.280049999943003,True,7,A,2023-09-01_12h04.10.655,exp3,2022.2.2,
,,,,,,,,,,,,,,,,,,,,,,,0,1158,Invalid,noise,0,2,1792.8437598000746,1,2.0,3.5961629000958055,True,7,A,2023-09-01_12h04.10.655,exp3,2022.2.2,
,,,,,,,,,,,,,,,,,,,,,,,0,1158,Valid,noise,0,2,1797.7883922001347,1,1.0,5.113608400104567,True,7,A,2023-09-01_12h04.10.655,exp3,2022.2.2,
,,,,,,,,,,,,,,,,,,,,,,,0,-1716,Valid,signal,0,1,1802.6844105001073,1,4.0,4.946736699901521,True,7,A,2023-09-01_12h04.10.655,exp3,2022.2.2,
,,,,,,,,,,,,,,,,,,,,,,,0,-1716,Invalid,noise,0,2,1809.4366784000304,1,2.0,3.6635805000551045,True,7,A,2023-09-01_12h04.10.655,exp3,2022.2.2,
,,,,,,,,,,,,,,,,,,,,,,,0,-1158,Valid,noise,0,1,1823.6607762000058,0,1.0,12.916015299968421,True,7,A,2023-09-01_12h04.10.655,exp3,2022.2.2,
,,,,,,,,,,,,,,,,,,,,,,,0,-1158,Valid,noise,0,2,1827.579956300091,1,3.0,3.696780900005251,True,7,A,2023-09-01_12h04.10.655,exp3,2022.2.2,
,,,,,,,,,,,,,,,,,,,,,,,0,-1716,Valid,noise,0,2,1833.4995937999338,1,2.0,7.731654100120068,True,7,A,2023-09-01_12h04.10.655,exp3,2022.2.2,
,,,,,,,,,,,,,,,,,,,,,,,0,-1716,Valid,signal,0,1,1847.3568126999307,1,4.0,11.932510399958119,True,7,A,2023-09-01_12h04.10.655,exp3,2022.2.2,
,,,,,,,,,,,,,,,,,,,,,,,0,2274,Valid,noise,0,2,1856.2202936001122,1,2.0,5.531247199978679,True,7,A,2023-09-01_12h04.10.655,exp3,2022.2.2,
,,,,,,,,,,,,,,,,,,,,,,,0,-557,Valid,noise,0,2,1867.3562493000645,1,2.0,10.065528600011021,True,7,A,2023-09-01_12h04.10.655,exp3,2022.2.2,
,,,,,,,,,,,,,,,,,,,,,,,0,-1716,Valid,noise,0,2,1871.7558673999738,1,2.0,3.3127568000927567,True,7,A,2023-09-01_12h04.10.655,exp3,2022.2.2,
,,,,,,,,,,,,,,,,,,,,,,,0,-557,Invalid,noise,0,2,1876.3489099999424,1,3.0,4.0797195001505315,True,7,A,2023-09-01_12h04.10.655,exp3,2022.2.2,
,,,,,,,,,,,,,,,,,,,,,,,0,-1158,Valid,signal,0,1,1880.6840584999882,1,4.0,3.6798467999324203,True,7,A,2023-09-01_12h04.10.655,exp3,2022.2.2,
,,,,,,,,,,,,,,,,,,,,,,,0,-2274,Valid,signal,0,1,1885.8525147000328,1,4.0,3.162940600188449,True,7,A,2023-09-01_12h04.10.655,exp3,2022.2.2,
,,,,,,,,,,,,,,,,,,,,,,,0,2274,Invalid,signal,0,1,1889.5323501001112,1,2.0,3.429815199924633,True,7,A,2023-09-01_12h04.10.655,exp3,2022.2.2,
,,,,,,,,,,,,,,,,,,,,,,,0,-1158,Valid,noise,0,2,1894.0765530001372,1,3.0,2.979900299804285,True,7,A,2023-09-01_12h04.10.655,exp3,2022.2.2,
,,,,,,,,,,,,,,,,,,,,,,,0,-1158,Valid,noise,0,2,1898.236177700106,1,3.0,3.22966740000993,True,7,A,2023-09-01_12h04.10.655,exp3,2022.2.2,
,,,,,,,,,,,,,,,,,,,,,,,0,-2274,Valid,noise,0,2,1902.6049792999402,1,2.0,3.729975099908188,True,7,A,2023-09-01_12h04.10.655,exp3,2022.2.2,
,,,,,,,,,,,,,,,,,,,,,,,0,1158,Valid,noise,0,2,1906.9565761999693,1,3.0,2.945643100189045,True,7,A,2023-09-01_12h04.10.655,exp3,2022.2.2,
,,,,,,,,,,,,,,,,,,,,,,,0,-1716,Invalid,noise,0,2,1911.1158185000531,1,3.0,3.1132525999564677,True,7,A,2023-09-01_12h04.10.655,exp3,2022.2.2,
,,,,,,,,,,,,,,,,,,,,,,,0,-1716,Valid,signal,0,1,1914.9562379000708,1,4.0,2.878887299913913,True,7,A,2023-09-01_12h04.10.655,exp3,2022.2.2,
,,,,,,,,,,,,,,,,,,,,,,,0,1716,Valid,signal,0,1,1918.6517878000159,1,4.0,2.630208099959418,True,7,A,2023-09-01_12h04.10.655,exp3,2022.2.2,
,,,,,,,,,,,,,,,,,,,,,,,0,1716,Valid,noise,0,2,1922.4606491001323,1,3.0,3.8296815999783576,True,7,A,2023-09-01_12h04.10.655,exp3,2022.2.2,
,,,,,,,,,,,,,,,,,,,,,,,0,-557,Valid,noise,0,2,1928.7329919000622,1,2.0,4.379816700005904,True,7,A,2023-09-01_12h04.10.655,exp3,2022.2.2,
,,,,,,,,,,,,,,,,,,,,,,,0,2274,Invalid,signal,0,1,1932.8442870001309,1,3.0,3.462929500034079,True,7,A,2023-09-01_12h04.10.655,exp3,2022.2.2,
,,,,,,,,,,,,,,,,,,,,,,,0,-1716,Invalid,signal,0,1,1937.020289100008,1,4.0,3.9798318000975996,True,7,A,2023-09-01_12h04.10.655,exp3,2022.2.2,
,,,,,,,,,,,,,,,,,,,,,,,0,1158,Invalid,noise,0,2,1942.6204737999942,1,2.0,3.4300958001986146,True,7,A,2023-09-01_12h04.10.655,exp3,2022.2.2,
,,,,,,,,,,,,,,,,,,,,,,,0,1716,Valid,noise,0,2,1948.1395372999832,1,2.0,4.780554499942809,True,7,A,2023-09-01_12h04.10.655,exp3,2022.2.2,
,,,,,,,,,,,,,,,,,,,,,,,0,-557,Valid,noise,0,2,1956.2198292999528,1,3.0,7.5305115999653935,True,7,A,2023-09-01_12h04.10.655,exp3,2022.2.2,
,,,,,,,,,,,,,,,,,,,,,,,0,-2274,Invalid,signal,0,1,1961.8517660000362,1,2.0,3.8470560999121517,True,7,A,2023-09-01_12h04.10.655,exp3,2022.2.2,
,,,,,,,,,,,,,,,,,,,,,,,0,-1158,Valid,signal,0,1,1965.8363934999797,1,4.0,2.9627664000727236,True,7,A,2023-09-01_12h04.10.655,exp3,2022.2.2,
,,,,,,,,,,,,,,,,,,,,,,,0,2274,Valid,noise,0,1,1971.900994299911,0,2.0,5.2795559000223875,True,7,A,2023-09-01_12h04.10.655,exp3,2022.2.2,
,,,,,,,,,,,,,,,,,,,,,,,0,557,Valid,noise,0,2,1976.5078775000293,1,3.0,3.5304892000276595,True,7,A,2023-09-01_12h04.10.655,exp3,2022.2.2,
,,,,,,,,,,,,,,,,,,,,,,,0,1716,Valid,signal,0,1,1980.4927694001235,1,4.0,2.9460511000361294,True,7,A,2023-09-01_12h04.10.655,exp3,2022.2.2,
,,,,,,,,,,,,,,,,,,,,,,,0,-557,Valid,signal,0,1,1984.4916018000804,1,4.0,2.7294142998289317,True,7,A,2023-09-01_12h04.10.655,exp3,2022.2.2,
,,,,,,,,,,,,,,,,,,,,,,,0,-557,Valid,signal,0,1,1993.163868600037,1,4.0,7.947845799848437,True,7,A,2023-09-01_12h04.10.655,exp3,2022.2.2,
,,,,,,,,,,,,,,,,,,,,,,,0,-2274,Valid,noise,0,2,1998.619868400041,1,1.0,4.580082200001925,True,7,A,2023-09-01_12h04.10.655,exp3,2022.2.2,
,,,,,,,,,,,,,,,,,,,,,,,0,2274,Valid,noise,0,2,2003.5479524999391,1,1.0,4.063503100071102,True,7,A,2023-09-01_12h04.10.655,exp3,2022.2.2,
,,,,,,,,,,,,,,,,,,,,,,,0,2274,Valid,noise,0,2,2008.8600419000722,1,1.0,3.5464906999841332,True,7,A,2023-09-01_12h04.10.655,exp3,2022.2.2,
,,,,,,,,,,,,,,,,,,,,,,,0,2274,Valid,signal,0,1,2012.6365877999924,1,2.0,3.296294800005853,True,7,A,2023-09-01_12h04.10.655,exp3,2022.2.2,
,,,,,,,,,,,,,,,,,,,,,,,0,1716,Valid,signal,0,1,2016.700872000074,1,4.0,3.229942200006917,True,7,A,2023-09-01_12h04.10.655,exp3,2022.2.2,
,,,,,,,,,,,,,,,,,,,,,,,0,-2274,Valid,signal,0,1,2021.180110400077,1,3.0,2.9289716000203043,True,7,A,2023-09-01_12h04.10.655,exp3,2022.2.2,
,,,,,,,,,,,,,,,,,,,,,,,0,557,Valid,noise,0,2,2027.8681058001239,1,4.0,6.297515699872747,True,7,A,2023-09-01_12h04.10.655,exp3,2022.2.2,
,,,,,,,,,,,,,,,,,,,,,,,0,-557,Valid,noise,0,2,2036.2846037999261,1,4.0,7.314892000053078,True,7,A,2023-09-01_12h04.10.655,exp3,2022.2.2,
,,,,,,,,,,,,,,,,,,,,,,,0,557,Invalid,signal,0,1,2040.4918438000605,1,4.0,2.762190100038424,True,7,A,2023-09-01_12h04.10.655,exp3,2022.2.2,
,,,,,,,,,,,,,,,,,,,,,,,0,1158,Valid,signal,0,1,2046.5243033000734,1,4.0,5.496930700028315,True,7,A,2023-09-01_12h04.10.655,exp3,2022.2.2,
,,,,,,,,,,,,,,,,,,,,,,,0,557,Valid,noise,0,2,2051.2764387999196,1,4.0,4.9140315998811275,True,7,A,2023-09-01_12h04.10.655,exp3,2022.2.2,
,,,,,,,,,,,,,,,,,,,,,,,0,-1158,Valid,signal,0,1,2056.5244811000302,1,4.0,2.696441400097683,True,7,A,2023-09-01_12h04.10.655,exp3,2022.2.2,
,,,,,,,,,,,,,,,,,,,,,,,0,2274,Valid,noise,0,2,2061.051519199973,1,2.0,3.7963103998918086,True,7,A,2023-09-01_12h04.10.655,exp3,2022.2.2,
,,,,,,,,,,,,,,,,,,,,,,,0,557,Valid,signal,0,1,2066.1564466001,1,4.0,5.697377199772745,True,7,A,2023-09-01_12h04.10.655,exp3,2022.2.2,
,,,,,,,,,,,,,,,,,,,,,,,0,557,Invalid,signal,0,1,2071.9167649000883,1,4.0,3.4466448000166565,True,7,A,2023-09-01_12h04.10.655,exp3,2022.2.2,
,,,,,,,,,,,,,,,,,,,,,,,0,-2274,Valid,signal,0,1,2076.347507199971,1,3.0,3.196637300075963,True,7,A,2023-09-01_12h04.10.655,exp3,2022.2.2,
,,,,,,,,,,,,,,,,,,,,,,,0,-1158,Valid,signal,0,1,2082.892452799948,1,4.0,5.446423199959099,True,7,A,2023-09-01_12h04.10.655,exp3,2022.2.2,
,,,,,,,,,,,,,,,,,,,,,,,0,-2274,Invalid,noise,0,2,2087.723719100002,1,3.0,3.9300198999699205,True,7,A,2023-09-01_12h04.10.655,exp3,2022.2.2,
,,,,,,,,,,,,,,,,,,,,,,,0,557,Valid,signal,0,1,2091.931699400069,1,4.0,3.2304948000237346,True,7,A,2023-09-01_12h04.10.655,exp3,2022.2.2,
,,,,,,,,,,,,,,,,,,,,,,,0,-1716,Valid,signal,0,1,2095.8838378000073,1,4.0,2.8623480000533164,True,7,A,2023-09-01_12h04.10.655,exp3,2022.2.2,
,,,,,,,,,,,,,,,,,,,,,,,0,-1158,Valid,noise,0,2,2102.5714523999486,1,2.0,5.913986200001091,True,7,A,2023-09-01_12h04.10.655,exp3,2022.2.2,
,,,,,,,,,,,,,,,,,,,,,,,0,557,Valid,signal,0,1,2109.2127140001394,1,4.0,7.014533899957314,True,7,A,2023-09-01_12h04.10.655,exp3,2022.2.2,
,,,,,,,,,,,,,,,,,,,,,,,0,1158,Valid,noise,0,2,2118.8123335000128,1,3.0,7.781457999954,True,7,A,2023-09-01_12h04.10.655,exp3,2022.2.2,
,,,,,,,,,,,,,,,,,,,,,,,0,-1716,Valid,signal,0,1,2124.0766249001026,1,3.0,5.080376700032502,True,7,A,2023-09-01_12h04.10.655,exp3,2022.2.2,
,,,,,,,,,,,,,,,,,,,,,,,0,1716,Invalid,noise,0,2,2130.4118073000573,1,2.0,3.763259199913591,True,7,A,2023-09-01_12h04.10.655,exp3,2022.2.2,
,,,,,,,,,,,,,,,,,,,,,,,0,557,Valid,noise,0,2,2134.7805147999898,1,4.0,3.9468212998472154,True,7,A,2023-09-01_12h04.10.655,exp3,2022.2.2,
,,,,,,,,,,,,,,,,,,,,,,,0,-557,Valid,signal,0,1,2141.6760313000996,1,4.0,6.147783099906519,True,7,A,2023-09-01_12h04.10.655,exp3,2022.2.2,
,,,,,,,,,,,,,,,,,,,,,,,0,1158,Valid,signal,0,1,2146.699616200058,1,4.0,2.6623809998854995,True,7,A,2023-09-01_12h04.10.655,exp3,2022.2.2,
,,,,,,,,,,,,,,,,,,,,,,,0,-557,Valid,signal,0,1,2150.236799000064,1,4.0,2.613037300063297,True,7,A,2023-09-01_12h04.10.655,exp3,2022.2.2,
,,,,,,,,,,,,,,,,,,,,,,,0,1158,Valid,signal,0,1,2153.724116400117,1,4.0,2.695831899996847,True,7,A,2023-09-01_12h04.10.655,exp3,2022.2.2,
,,,,,,,,,,,,,,,,,,,,,,,0,-2274,Valid,signal,0,1,2157.8199780001305,1,4.0,2.9631423000246286,True,7,A,2023-09-01_12h04.10.655,exp3,2022.2.2,
,,,,,,,,,,,,,,,,,,,,,,,0,-1158,Valid,signal,0,1,2161.404876700137,1,4.0,2.5626445000525564,True,7,A,2023-09-01_12h04.10.655,exp3,2022.2.2,
,,,,,,,,,,,,,,,,,,,,,,,0,-557,Valid,noise,0,2,2165.3234510999173,1,3.0,4.246968399966136,True,7,A,2023-09-01_12h04.10.655,exp3,2022.2.2,
,,,,,,,,,,,,,,,,,,,,,,,0,-1158,Valid,signal,0,1,2170.2686022999696,1,4.0,2.4796641999855638,True,7,A,2023-09-01_12h04.10.655,exp3,2022.2.2,
,,,,,,,,,,,,,,,,,,,,,,,0,1716,Valid,noise,0,2,2174.0287945000455,1,3.0,3.1127322998363525,True,7,A,2023-09-01_12h04.10.655,exp3,2022.2.2,
,,,,,,,,,,,,,,,,,,,,,,,0,-1716,Valid,noise,0,2,2179.1002241999377,1,2.0,3.7968422998674214,True,7,A,2023-09-01_12h04.10.655,exp3,2022.2.2,
,,,,,,,,,,,,,,,,,,,,,,,1,-2274,Valid,noise,0,2,2363.3885016001295,1,2.0,62.28018179978244,True,7,A,2023-09-01_12h04.10.655,exp3,2022.2.2,
,,,,,,,,,,,,,,,,,,,,,,,2,1158,Valid,noise,0,2,2369.532234299928,1,2.0,2.979651500005275,True,7,A,2023-09-01_12h04.10.655,exp3,2022.2.2,
,,,,,,,,,,,,,,,,,,,,,,,3,-1716,Valid,noise,0,2,2373.8686965000816,1,2.0,3.4303114998620003,True,7,A,2023-09-01_12h04.10.655,exp3,2022.2.2,
,,,,,,,,,,,,,,,,,,,,,,,4,-557,Valid,noise,0,2,2377.8995729000308,1,3.0,3.162347399862483,True,7,A,2023-09-01_12h04.10.655,exp3,2022.2.2,
,,,,,,,,,,,,,,,,,,,,,,,5,-1716,Valid,noise,0,2,2382.55598439998,1,2.0,4.1967393001541495,True,7,A,2023-09-01_12h04.10.655,exp3,2022.2.2,
,,,,,,,,,,,,,,,,,,,,,,,6,-1158,Valid,signal,0,1,2387.0363038999494,1,4.0,2.612752899993211,True,7,A,2023-09-01_12h04.10.655,exp3,2022.2.2,
,,,,,,,,,,,,,,,,,,,,,,,7,-557,Invalid,noise,0,2,2391.5006683999673,1,2.0,3.5300530998501927,True,7,A,2023-09-01_12h04.10.655,exp3,2022.2.2,
,,,,,,,,,,,,,,,,,,,,,,,8,1158,Valid,noise,0,2,2395.3405259000137,1,3.0,3.2634407998993993,True,7,A,2023-09-01_12h04.10.655,exp3,2022.2.2,
,,,,,,,,,,,,,,,,,,,,,,,9,-2274,Valid,signal,0,1,2399.4202252000105,1,4.0,2.5961245999205858,True,7,A,2023-09-01_12h04.10.655,exp3,2022.2.2,
,,,,,,,,,,,,,,,,,,,,,,,10,557,Invalid,signal,0,1,2405.5322954999283,1,4.0,5.247120600193739,True,7,A,2023-09-01_12h04.10.655,exp3,2022.2.2,
,,,,,,,,,,,,,,,,,,,,,,,11,-1158,Invalid,signal,0,1,2409.324443300022,1,4.0,2.678937500109896,True,7,A,2023-09-01_12h04.10.655,exp3,2022.2.2,
,,,,,,,,,,,,,,,,,,,,,,,12,-2274,Valid,noise,0,2,2413.436429500114,1,2.0,3.779608700191602,True,7,A,2023-09-01_12h04.10.655,exp3,2022.2.2,
,,,,,,,,,,,,,,,,,,,,,,,13,-1158,Valid,signal,0,1,2417.6604035999626,1,4.0,2.679362199967727,True,7,A,2023-09-01_12h04.10.655,exp3,2022.2.2,
,,,,,,,,,,,,,,,,,,,,,,,14,-1716,Valid,signal,0,1,2423.243483199971,1,4.0,4.7299800999462605,True,7,A,2023-09-01_12h04.10.655,exp3,2022.2.2,
,,,,,,,,,,,,,,,,,,,,,,,15,1716,Valid,signal,0,1,2429.2766311999876,1,4.0,4.5638039000332355,True,7,A,2023-09-01_12h04.10.655,exp3,2022.2.2,
,,,,,,,,,,,,,,,,,,,,,,,16,-2274,Valid,noise,0,2,2433.644377999939,1,1.0,3.6971317001152784,True,7,A,2023-09-01_12h04.10.655,exp3,2022.2.2,
,,,,,,,,,,,,,,,,,,,,,,,17,1158,Valid,signal,0,1,2437.3877783000935,1,4.0,3.429437199840322,True,7,A,2023-09-01_12h04.10.655,exp3,2022.2.2,
,,,,,,,,,,,,,,,,,,,,,,,18,-2274,Invalid,noise,0,1,2442.843351500109,0,1.0,4.179301699856296,True,7,A,2023-09-01_12h04.10.655,exp3,2022.2.2,
,,,,,,,,,,,,,,,,,,,,,,,19,-557,Valid,signal,0,1,2447.1000188000035,1,4.0,3.079254599986598,True,7,A,2023-09-01_12h04.10.655,exp3,2022.2.2,
,,,,,,,,,,,,,,,,,,,,,,,20,2274,Invalid,noise,0,2,2453.9165302000474,1,3.0,6.580600599991158,True,7,A,2023-09-01_12h04.10.655,exp3,2022.2.2,
,,,,,,,,,,,,,,,,,,,,,,,21,1716,Invalid,noise,0,2,2459.2123070999514,1,2.0,3.1795829001348466,True,7,A,2023-09-01_12h04.10.655,exp3,2022.2.2,
,,,,,,,,,,,,,,,,,,,,,,,22,1158,Valid,signal,0,1,2463.6117320000194,1,4.0,3.696649800054729,True,7,A,2023-09-01_12h04.10.655,exp3,2022.2.2,
,,,,,,,,,,,,,,,,,,,,,,,23,-557,Valid,signal,0,1,2470.123658400029,1,4.0,4.963476500008255,True,7,A,2023-09-01_12h04.10.655,exp3,2022.2.2,
,,,,,,,,,,,,,,,,,,,,,,,24,-2274,Valid,signal,0,1,2473.611375800101,1,3.0,2.6632634999696165,True,7,A,2023-09-01_12h04.10.655,exp3,2022.2.2,
,,,,,,,,,,,,,,,,,,,,,,,25,-1716,Valid,signal,0,1,2477.5164531001355,1,4.0,3.646120799938217,True,7,A,2023-09-01_12h04.10.655,exp3,2022.2.2,
,,,,,,,,,,,,,,,,,,,,,,,26,-557,Invalid,signal,0,1,2482.363617599942,1,4.0,3.2293071998283267,True,7,A,2023-09-01_12h04.10.655,exp3,2022.2.2,
,,,,,,,,,,,,,,,,,,,,,,,27,-557,Valid,signal,0,1,2486.1886070999317,1,4.0,2.6794404999818653,True,7,A,2023-09-01_12h04.10.655,exp3,2022.2.2,
,,,,,,,,,,,,,,,,,,,,,,,28,-1158,Valid,noise,0,2,2490.220069800038,1,3.0,3.2635896001011133,True,7,A,2023-09-01_12h04.10.655,exp3,2022.2.2,
,,,,,,,,,,,,,,,,,,,,,,,29,1158,Valid,signal,0,1,2494.011677399976,1,4.0,2.5622117000166327,True,7,A,2023-09-01_12h04.10.655,exp3,2022.2.2,
,,,,,,,,,,,,,,,,,,,,,,,30,2274,Valid,signal,0,1,2498.044197899988,1,4.0,4.363670600112528,True,7,A,2023-09-01_12h04.10.655,exp3,2022.2.2,
,,,,,,,,,,,,,,,,,,,,,,,31,557,Valid,signal,0,1,2502.9553517999593,1,4.0,2.346089200116694,True,7,A,2023-09-01_12h04.10.655,exp3,2022.2.2,
,,,,,,,,,,,,,,,,,,,,,,,32,-1158,Valid,noise,0,2,2506.7963705,1,3.0,3.596762799890712,True,7,A,2023-09-01_12h04.10.655,exp3,2022.2.2,
,,,,,,,,,,,,,,,,,,,,,,,33,-1158,Valid,noise,0,2,2512.555777099915,1,3.0,4.013128199847415,True,7,A,2023-09-01_12h04.10.655,exp3,2022.2.2,
,,,,,,,,,,,,,,,,,,,,,,,34,-1158,Valid,noise,0,2,2516.524609300075,1,3.0,3.4301374999340624,True,7,A,2023-09-01_12h04.10.655,exp3,2022.2.2,
,,,,,,,,,,,,,,,,,,,,,,,35,1158,Invalid,signal,0,1,2520.4923513999674,1,4.0,2.7958561999257654,True,7,A,2023-09-01_12h04.10.655,exp3,2022.2.2,
,,,,,,,,,,,,,,,,,,,,,,,36,557,Valid,signal,0,1,2527.084488300141,1,4.0,6.497738899895921,True,7,A,2023-09-01_12h04.10.655,exp3,2022.2.2,
,,,,,,,,,,,,,,,,,,,,,,,37,1158,Valid,signal,0,1,2531.8201170000248,1,4.0,2.5625310000032187,True,7,A,2023-09-01_12h04.10.655,exp3,2022.2.2,
,,,,,,,,,,,,,,,,,,,,,,,38,-1158,Valid,noise,0,2,2536.3155809999444,1,4.0,7.313643499976024,True,7,A,2023-09-01_12h04.10.655,exp3,2022.2.2,
,,,,,,,,,,,,,,,,,,,,,,,39,-557,Valid,noise,0,2,2543.8997323999647,1,4.0,2.7295769001357257,True,7,A,2023-09-01_12h04.10.655,exp3,2022.2.2,
,,,,,,,,,,,,,,,,,,,,,,,40,1716,Valid,noise,0,2,2548.060372899985,1,3.0,3.9639734998345375,True,7,A,2023-09-01_12h04.10.655,exp3,2022.2.2,
,,,,,,,,,,,,,,,,,,,,,,,41,-2274,Valid,noise,0,2,2552.4434662000276,1,3.0,2.6123840000946075,True,7,A,2023-09-01_12h04.10.655,exp3,2022.2.2,
,,,,,,,,,,,,,,,,,,,,,,,42,1716,Valid,signal,0,1,2560.79561079992,1,4.0,7.614828699966893,True,7,A,2023-09-01_12h04.10.655,exp3,2022.2.2,
,,,,,,,,,,,,,,,,,,,,,,,43,-1158,Valid,noise,0,2,2565.227363300044,1,3.0,3.229690399952233,True,7,A,2023-09-01_12h04.10.655,exp3,2022.2.2,
,,,,,,,,,,,,,,,,,,,,,,,44,-1716,Valid,signal,0,1,2571.100384199992,1,4.0,5.180430400185287,True,7,A,2023-09-01_12h04.10.655,exp3,2022.2.2,
,,,,,,,,,,,,,,,,,,,,,,,45,557,Valid,signal,0,1,2575.0357570000924,1,4.0,2.7627675000112504,True,7,A,2023-09-01_12h04.10.655,exp3,2022.2.2,
,,,,,,,,,,,,,,,,,,,,,,,46,-2274,Valid,noise,0,2,2579.4353501999285,1,3.0,5.4977460000664,True,7,A,2023-09-01_12h04.10.655,exp3,2022.2.2,
,,,,,,,,,,,,,,,,,,,,,,,47,1716,Valid,noise,0,2,2590.2833805999253,1,3.0,8.598178899846971,True,7,A,2023-09-01_12h04.10.655,exp3,2022.2.2,
,,,,,,,,,,,,,,,,,,,,,,,48,-1158,Invalid,noise,0,2,2595.3401297000237,1,3.0,3.0294202000368387,True,7,A,2023-09-01_12h04.10.655,exp3,2022.2.2,
,,,,,,,,,,,,,,,,,,,,,,,49,-1716,Invalid,signal,0,1,2599.13179689995,1,4.0,2.863268000073731,True,7,A,2023-09-01_12h04.10.655,exp3,2022.2.2,
,,,,,,,,,,,,,,,,,,,,,,,50,-2274,Invalid,signal,0,1,2603.228556700051,1,3.0,5.614057600032538,True,7,A,2023-09-01_12h04.10.655,exp3,2022.2.2,
,,,,,,,,,,,,,,,,,,,,,,,51,-1716,Valid,noise,0,2,2609.8677660000976,1,1.0,3.3130666001234204,True,7,A,2023-09-01_12h04.10.655,exp3,2022.2.2,
,,,,,,,,,,,,,,,,,,,,,,,52,-557,Valid,signal,0,1,2613.739828299964,1,4.0,3.029748900095001,True,7,A,2023-09-01_12h04.10.655,exp3,2022.2.2,
,,,,,,,,,,,,,,,,,,,,,,,53,-557,Invalid,noise,0,2,2618.0442667999305,1,3.0,2.9132248999085277,True,7,A,2023-09-01_12h04.10.655,exp3,2022.2.2,
,,,,,,,,,,,,,,,,,,,,,,,54,1158,Invalid,signal,0,1,2622.9717920999974,1,4.0,4.5632120000664145,True,7,A,2023-09-01_12h04.10.655,exp3,2022.2.2,
,,,,,,,,,,,,,,,,,,,,,,,55,2274,Invalid,signal,0,1,2627.275332899997,1,4.0,2.729578400030732,True,7,A,2023-09-01_12h04.10.655,exp3,2022.2.2,
,,,,,,,,,,,,,,,,,,,,,,,56,-2274,Valid,noise,0,2,2631.180076000048,1,3.0,7.3979235999286175,True,7,A,2023-09-01_12h04.10.655,exp3,2022.2.2,
,,,,,,,,,,,,,,,,,,,,,,,57,-2274,Valid,noise,0,2,2639.7074806001037,1,2.0,2.9626515000127256,True,7,A,2023-09-01_12h04.10.655,exp3,2022.2.2,
,,,,,,,,,,,,,,,,,,,,,,,58,1158,Valid,noise,0,2,2643.611249000067,1,2.0,2.8632490998134017,True,7,A,2023-09-01_12h04.10.655,exp3,2022.2.2,
,,,,,,,,,,,,,,,,,,,,,,,59,1716,Valid,signal,0,1,2649.4994612999726,1,3.0,7.881426699925214,True,7,A,2023-09-01_12h04.10.655,exp3,2022.2.2,
,,,,,,,,,,,,,,,,,,,,,,,60,1716,Valid,noise,0,2,2659.899784800131,1,2.0,6.5143573000095785,True,7,A,2023-09-01_12h04.10.655,exp3,2022.2.2,
,,,,,,,,,,,,,,,,,,,,,,,61,557,Valid,signal,0,1,2663.7722179000266,1,4.0,3.229994500055909,True,7,A,2023-09-01_12h04.10.655,exp3,2022.2.2,
,,,,,,,,,,,,,,,,,,,,,,,62,1716,Invalid,signal,0,1,2667.9159313999116,1,4.0,2.4790727000217885,True,7,A,2023-09-01_12h04.10.655,exp3,2022.2.2,
,,,,,,,,,,,,,,,,,,,,,,,63,557,Valid,noise,0,2,2671.4837458999828,1,3.0,3.1300337000284344,True,7,A,2023-09-01_12h04.10.655,exp3,2022.2.2,
,,,,,,,,,,,,,,,,,,,,,,,64,1716,Valid,signal,0,1,2675.899777899962,1,4.0,4.229351100046188,True,7,A,2023-09-01_12h04.10.655,exp3,2022.2.2,
,,,,,,,,,,,,,,,,,,,,,,,65,1716,Valid,noise,0,2,2685.996291700052,1,3.0,9.615826500114053,True,7,A,2023-09-01_12h04.10.655,exp3,2022.2.2,
,,,,,,,,,,,,,,,,,,,,,,,66,557,Valid,noise,0,2,2691.836021899944,1,3.0,3.2628604997880757,True,7,A,2023-09-01_12h04.10.655,exp3,2022.2.2,
,,,,,,,,,,,,,,,,,,,,,,,67,557,Valid,signal,0,1,2695.6760021999944,1,4.0,2.729889699956402,True,7,A,2023-09-01_12h04.10.655,exp3,2022.2.2,
,,,,,,,,,,,,,,,,,,,,,,,68,-1716,Invalid,signal,0,1,2701.6114034000784,1,4.0,4.7795847998932,True,7,A,2023-09-01_12h04.10.655,exp3,2022.2.2,
,,,,,,,,,,,,,,,,,,,,,,,69,-557,Invalid,signal,0,1,2707.8525225999765,1,4.0,5.497657299973071,True,7,A,2023-09-01_12h04.10.655,exp3,2022.2.2,
,,,,,,,,,,,,,,,,,,,,,,,70,-1716,Valid,signal,0,1,2711.7884456000756,1,4.0,3.0961391001474112,True,7,A,2023-09-01_12h04.10.655,exp3,2022.2.2,
,,,,,,,,,,,,,,,,,,,,,,,71,2274,Valid,noise,0,2,2718.811987000052,1,2.0,5.980625100200996,True,7,A,2023-09-01_12h04.10.655,exp3,2022.2.2,
,,,,,,,,,,,,,,,,,,,,,,,72,-557,Valid,noise,0,2,2725.516331800027,1,4.0,6.097497900016606,True,7,A,2023-09-01_12h04.10.655,exp3,2022.2.2,
,,,,,,,,,,,,,,,,,,,,,,,73,-557,Valid,noise,0,2,2730.028280999977,1,4.0,3.063207299914211,True,7,A,2023-09-01_12h04.10.655,exp3,2022.2.2,
,,,,,,,,,,,,,,,,,,,,,,,74,-1716,Invalid,noise,0,2,2734.0433513000607,1,4.0,2.879891499876976,True,7,A,2023-09-01_12h04.10.655,exp3,2022.2.2,
,,,,,,,,,,,,,,,,,,,,,,,75,1158,Valid,noise,0,2,2738.0277824001387,1,4.0,2.6785899000242352,True,7,A,2023-09-01_12h04.10.655,exp3,2022.2.2,
,,,,,,,,,,,,,,,,,,,,,,,76,-1158,Valid,signal,0,1,2741.4357384000905,1,4.0,2.413119599921629,True,7,A,2023-09-01_12h04.10.655,exp3,2022.2.2,
,,,,,,,,,,,,,,,,,,,,,,,77,2274,Valid,signal,0,1,2745.7561355999205,1,2.0,3.980440800078213,True,7,A,2023-09-01_12h04.10.655,exp3,2022.2.2,
,,,,,,,,,,,,,,,,,,,,,,,78,2274,Invalid,noise,0,2,2750.2355516001116,1,2.0,3.0620281000155956,True,7,A,2023-09-01_12h04.10.655,exp3,2022.2.2,
,,,,,,,,,,,,,,,,,,,,,,,79,1158,Valid,noise,0,2,2761.7078434999567,1,2.0,10.366405099863186,True,7,A,2023-09-01_12h04.10.655,exp3,2022.2.2,
,,,,,,,,,,,,,,,,,,,,,,,80,2274,Valid,signal,0,1,2766.7483044001274,1,1.0,5.129695300012827,True,7,A,2023-09-01_12h04.10.655,exp3,2022.2.2,
,,,,,,,,,,,,,,,,,,,,,,,81,2274,Valid,noise,0,2,2771.676459999988,1,1.0,2.929551700130105,True,7,A,2023-09-01_12h04.10.655,exp3,2022.2.2,
,,,,,,,,,,,,,,,,,,,,,,,82,-1716,Valid,noise,0,2,2779.4193603000604,1,1.0,7.33119019982405,True,7,A,2023-09-01_12h04.10.655,exp3,2022.2.2,
,,,,,,,,,,,,,,,,,,,,,,,83,-1158,Valid,signal,0,1,2783.6444145001005,1,4.0,2.8463733000680804,True,7,A,2023-09-01_12h04.10.655,exp3,2022.2.2,
,,,,,,,,,,,,,,,,,,,,,,,84,-1716,Valid,noise,0,2,2787.803083000006,1,1.0,3.045940199866891,True,7,A,2023-09-01_12h04.10.655,exp3,2022.2.2,
,,,,,,,,,,,,,,,,,,,,,,,85,-557,Valid,signal,0,1,2791.580048300093,1,4.0,3.9467746999580413,True,7,A,2023-09-01_12h04.10.655,exp3,2022.2.2,
,,,,,,,,,,,,,,,,,,,,,,,86,-1158,Valid,signal,0,1,2796.4439668999985,1,4.0,2.8293403999414295,True,7,A,2023-09-01_12h04.10.655,exp3,2022.2.2,
,,,,,,,,,,,,,,,,,,,,,,,87,-1716,Valid,noise,0,2,2801.1314398001414,1,2.0,3.8972053001634777,True,7,A,2023-09-01_12h04.10.655,exp3,2022.2.2,
,,,,,,,,,,,,,,,,,,,,,,,88,-557,Valid,noise,0,2,2805.5482386001386,1,4.0,3.1459999999497086,True,7,A,2023-09-01_12h04.10.655,exp3,2022.2.2,
,,,,,,,,,,,,,,,,,,,,,,,89,557,Valid,noise,0,2,2809.531719899969,1,4.0,2.8627026001922786,True,7,A,2023-09-01_12h04.10.655,exp3,2022.2.2,
,,,,,,,,,,,,,,,,,,,,,,,90,-2274,Valid,signal,0,1,2816.379704199964,1,3.0,6.480635999934748,True,7,A,2023-09-01_12h04.10.655,exp3,2022.2.2,
,,,,,,,,,,,,,,,,,,,,,,,91,2274,Valid,noise,0,2,2820.908304899931,1,2.0,3.497147799935192,True,7,A,2023-09-01_12h04.10.655,exp3,2022.2.2,
,,,,,,,,,,,,,,,,,,,,,,,92,1716,Valid,signal,0,1,2825.3235673001036,1,4.0,2.978911500191316,True,7,A,2023-09-01_12h04.10.655,exp3,2022.2.2,
,,,,,,,,,,,,,,,,,,,,,,,93,-2274,Invalid,noise,0,2,2833.4673417999875,1,2.0,7.581986699951813,True,7,A,2023-09-01_12h04.10.655,exp3,2022.2.2,
,,,,,,,,,,,,,,,,,,,,,,,94,-2274,Valid,noise,0,2,2838.6837959999684,1,2.0,3.845893699908629,True,7,A,2023-09-01_12h04.10.655,exp3,2022.2.2,
,,,,,,,,,,,,,,,,,,,,,,,95,-1716,Valid,signal,0,1,2842.7631199001335,1,4.0,2.96318730013445,True,7,A,2023-09-01_12h04.10.655,exp3,2022.2.2,
,,,,,,,,,,,,,,,,,,,,,,,96,-557,Valid,noise,0,2,2847.547121200012,1,4.0,3.946986500173807,True,7,A,2023-09-01_12h04.10.655,exp3,2022.2.2,
,,,,,,,,,,,,,,,,,,,,,,,97,-1158,Valid,signal,0,1,2851.7231097000185,1,4.0,3.629486900055781,True,7,A,2023-09-01_12h04.10.655,exp3,2022.2.2,
,,,,,,,,,,,,,,,,,,,,,,,98,-1716,Valid,noise,0,2,2856.5080424000043,1,3.0,3.913187899859622,True,7,A,2023-09-01_12h04.10.655,exp3,2022.2.2,
,,,,,,,,,,,,,,,,,,,,,,,99,1716,Valid,noise,0,2,2861.372495500138,1,3.0,2.6133858000393957,True,7,A,2023-09-01_12h04.10.655,exp3,2022.2.2,
,,,,,,,,,,,,,,,,,,,,,,,100,1716,Valid,signal,0,1,2864.828426100081,1,4.0,3.3624757998622954,True,7,A,2023-09-01_12h04.10.655,exp3,2022.2.2,
,,,,,,,,,,,,,,,,,,,,,,,101,557,Valid,signal,0,1,2869.116336799925,1,4.0,2.8294531998690218,True,7,A,2023-09-01_12h04.10.655,exp3,2022.2.2,
,,,,,,,,,,,,,,,,,,,,,,,102,2274,Valid,signal,0,1,2873.339476699941,1,2.0,3.1796337999403477,True,7,A,2023-09-01_12h04.10.655,exp3,2022.2.2,
,,,,,,,,,,,,,,,,,,,,,,,103,-2274,Valid,signal,0,1,2877.2113278000616,1,4.0,3.062966699944809,True,7,A,2023-09-01_12h04.10.655,exp3,2022.2.2,
,,,,,,,,,,,,,,,,,,,,,,,104,-1158,Valid,noise,0,2,2881.644274899969,1,2.0,3.4466542000882328,True,7,A,2023-09-01_12h04.10.655,exp3,2022.2.2,
,,,,,,,,,,,,,,,,,,,,,,,105,-1716,Valid,signal,0,1,2885.595697999932,1,4.0,2.812798700062558,True,7,A,2023-09-01_12h04.10.655,exp3,2022.2.2,
,,,,,,,,,,,,,,,,,,,,,,,106,-1716,Invalid,noise,0,2,2896.92423340003,1,1.0,9.932366299908608,True,7,A,2023-09-01_12h04.10.655,exp3,2022.2.2,
,,,,,,,,,,,,,,,,,,,,,,,107,-557,Valid,signal,0,1,2903.099463300081,1,4.0,6.2137303000781685,True,7,A,2023-09-01_12h04.10.655,exp3,2022.2.2,
,,,,,,,,,,,,,,,,,,,,,,,108,1158,Valid,signal,0,1,2907.819915900007,1,4.0,2.696367399999872,True,7,A,2023-09-01_12h04.10.655,exp3,2022.2.2,
,,,,,,,,,,,,,,,,,,,,,,,109,1716,Valid,noise,0,2,2916.0430980999954,1,1.0,7.731539800064638,True,7,A,2023-09-01_12h04.10.655,exp3,2022.2.2,
,,,,,,,,,,,,,,,,,,,,,,,110,557,Valid,signal,0,1,2919.9472547001205,1,4.0,2.795794799923897,True,7,A,2023-09-01_12h04.10.655,exp3,2022.2.2,
,,,,,,,,,,,,,,,,,,,,,,,111,2274,Valid,noise,0,2,2924.0915834999178,1,1.0,5.213917299872264,True,7,A,2023-09-01_12h04.10.655,exp3,2022.2.2,
,,,,,,,,,,,,,,,,,,,,,,,112,-1716,Valid,signal,0,1,2930.12306839996,1,4.0,3.3631217000074685,True,7,A,2023-09-01_12h04.10.655,exp3,2022.2.2,
,,,,,,,,,,,,,,,,,,,,,,,113,557,Valid,noise,0,2,2934.539597199997,1,4.0,3.0798973999917507,True,7,A,2023-09-01_12h04.10.655,exp3,2022.2.2,
,,,,,,,,,,,,,,,,,,,,,,,114,2274,Valid,signal,0,1,2941.1640232999343,1,3.0,5.263063499936834,True,7,A,2023-09-01_12h04.10.655,exp3,2022.2.2,
,,,,,,,,,,,,,,,,,,,,,,,115,-2274,Valid,signal,0,1,2945.0197175000794,1,3.0,2.6634172999765724,True,7,A,2023-09-01_12h04.10.655,exp3,2022.2.2,
,,,,,,,,,,,,,,,,,,,,,,,116,2274,Valid,noise,0,2,2949.4033349000383,1,1.0,3.8128541000187397,True,7,A,2023-09-01_12h04.10.655,exp3,2022.2.2,
,,,,,,,,,,,,,,,,,,,,,,,117,2274,Valid,signal,0,1,2953.612435600022,1,2.0,4.44707589992322,True,7,A,2023-09-01_12h04.10.655,exp3,2022.2.2,
,,,,,,,,,,,,,,,,,,,,,,,118,1158,Valid,noise,0,2,2958.9561761999503,1,2.0,2.7462168999481946,True,7,A,2023-09-01_12h04.10.655,exp3,2022.2.2,
,,,,,,,,,,,,,,,,,,,,,,,119,1158,Valid,noise,0,2,2962.555182199925,1,2.0,2.6796682998538017,True,7,A,2023-09-01_12h04.10.655,exp3,2022.2.2,
,,,,,,,,,,,,,,,,,,,,,,,120,2274,Valid,noise,0,2,2966.2839067000896,1,2.0,2.5129774999804795,True,7,A,2023-09-01_12h04.10.655,exp3,2022.2.2,
,,,,,,,,,,,,,,,,,,,,,,,121,-2274,Valid,signal,0,1,2969.74019520008,1,3.0,2.9962416000198573,True,7,A,2023-09-01_12h04.10.655,exp3,2022.2.2,
,,,,,,,,,,,,,,,,,,,,,,,122,1158,Valid,signal,0,1,2973.7397130001336,1,4.0,2.7961774000432342,True,7,A,2023-09-01_12h04.10.655,exp3,2022.2.2,
,,,,,,,,,,,,,,,,,,,,,,,123,-557,Valid,signal,0,1,2979.6281280999538,1,4.0,5.51388859981671,True,7,A,2023-09-01_12h04.10.655,exp3,2022.2.2,
,,,,,,,,,,,,,,,,,,,,,,,124,557,Valid,noise,0,2,2984.186984800035,1,4.0,3.046199900098145,True,7,A,2023-09-01_12h04.10.655,exp3,2022.2.2,
,,,,,,,,,,,,,,,,,,,,,,,125,557,Invalid,noise,0,2,2988.4912092001177,1,3.0,3.3967091001104563,True,7,A,2023-09-01_12h04.10.655,exp3,2022.2.2,
,,,,,,,,,,,,,,,,,,,,,,,126,-1158,Invalid,signal,0,1,2992.668096000096,1,4.0,3.113129800185561,True,7,A,2023-09-01_12h04.10.655,exp3,2022.2.2,
,,,,,,,,,,,,,,,,,,,,,,,127,2274,Valid,signal,0,1,2996.6837407001294,1,3.0,4.7968978001736104,True,7,A,2023-09-01_12h04.10.655,exp3,2022.2.2,
,,,,,,,,,,,,,,,,,,,,,,,128,2274,Valid,noise,0,1,3005.644094099989,0,1.0,6.081034899922088,True,7,A,2023-09-01_12h04.10.655,exp3,2022.2.2,
,,,,,,,,,,,,,,,,,,,,,,,129,-2274,Invalid,signal,0,1,3009.7721879999153,1,2.0,3.196738700149581,True,7,A,2023-09-01_12h04.10.655,exp3,2022.2.2,
,,,,,,,,,,,,,,,,,,,,,,,130,557,Valid,noise,0,2,3016.2675950999837,1,3.0,9.847908399999142,True,7,A,2023-09-01_12h04.10.655,exp3,2022.2.2,
,,,,,,,,,,,,,,,,,,,,,,,131,2274,Invalid,signal,0,1,3027.339559700107,1,4.0,5.664461100008339,True,7,A,2023-09-01_12h04.10.655,exp3,2022.2.2,
,,,,,,,,,,,,,,,,,,,,,,,132,-1158,Valid,signal,0,1,3031.372268300038,1,4.0,2.5959995000157505,True,7,A,2023-09-01_12h04.10.655,exp3,2022.2.2,
,,,,,,,,,,,,,,,,,,,,,,,133,557,Valid,signal,0,1,3037.1002112000715,1,4.0,5.013464899966493,True,7,A,2023-09-01_12h04.10.655,exp3,2022.2.2,
,,,,,,,,,,,,,,,,,,,,,,,134,-557,Valid,noise,0,2,3041.675546800019,1,3.0,11.082955899881199,True,7,A,2023-09-01_12h04.10.655,exp3,2022.2.2,
,,,,,,,,,,,,,,,,,,,,,,,135,1716,Invalid,noise,0,2,3056.2035725000314,1,2.0,6.730567600112408,True,7,A,2023-09-01_12h04.10.655,exp3,2022.2.2,
,,,,,,,,,,,,,,,,,,,,,,,136,-557,Valid,signal,0,1,3061.819145699963,1,4.0,4.163411600049585,True,7,A,2023-09-01_12h04.10.655,exp3,2022.2.2,
,,,,,,,,,,,,,,,,,,,,,,,137,1716,Valid,noise,0,2,3066.2519227000885,1,3.0,3.5136144999414682,True,7,A,2023-09-01_12h04.10.655,exp3,2022.2.2,
,,,,,,,,,,,,,,,,,,,,,,,138,1716,Valid,noise,0,2,3073.0678185001016,1,3.0,5.330576499924064,True,7,A,2023-09-01_12h04.10.655,exp3,2022.2.2,
,,,,,,,,,,,,,,,,,,,,,,,139,557,Valid,noise,0,2,3076.8910084001254,1,4.0,2.946097500156611,True,7,A,2023-09-01_12h04.10.655,exp3,2022.2.2,
,,,,,,,,,,,,,,,,,,,,,,,140,-2274,Valid,noise,0,2,3081.6114378001075,1,2.0,4.130153100006282,True,7,A,2023-09-01_12h04.10.655,exp3,2022.2.2,
,,,,,,,,,,,,,,,,,,,,,,,141,557,Valid,signal,0,1,3089.835039000027,1,4.0,7.797718200134113,True,7,A,2023-09-01_12h04.10.655,exp3,2022.2.2,
,,,,,,,,,,,,,,,,,,,,,,,142,557,Invalid,signal,0,1,3094.891108599957,1,4.0,4.079789999872446,True,7,A,2023-09-01_12h04.10.655,exp3,2022.2.2,
,,,,,,,,,,,,,,,,,,,,,,,143,-557,Valid,noise,0,2,3102.2033581000287,1,4.0,5.7980866997968405,True,7,A,2023-09-01_12h04.10.655,exp3,2022.2.2,
,,,,,,,,,,,,,,,,,,,,,,,144,-1716,Valid,noise,0,2,3107.5162496000994,1,3.0,3.7793158998247236,True,7,A,2023-09-01_12h04.10.655,exp3,2022.2.2,
,,,,,,,,,,,,,,,,,,,,,,,145,2274,Valid,noise,0,2,3113.8190287000034,1,2.0,5.647562900092453,True,7,A,2023-09-01_12h04.10.655,exp3,2022.2.2,
,,,,,,,,,,,,,,,,,,,,,,,146,1158,Valid,signal,0,1,3122.3635183000006,1,4.0,13.883669900009409,True,7,A,2023-09-01_12h04.10.655,exp3,2022.2.2,
,,,,,,,,,,,,,,,,,,,,,,,147,-1158,Valid,noise,0,2,3133.179971799953,1,3.0,3.363074399996549,True,7,A,2023-09-01_12h04.10.655,exp3,2022.2.2,
,,,,,,,,,,,,,,,,,,,,,,,148,-557,Valid,signal,0,1,3141.6272128000855,1,4.0,7.181049200007692,True,7,A,2023-09-01_12h04.10.655,exp3,2022.2.2,
,,,,,,,,,,,,,,,,,,,,,,,149,1158,Invalid,noise,0,2,3145.691938899923,1,3.0,3.196378899971023,True,7,A,2023-09-01_12h04.10.655,exp3,2022.2.2,
,,,,,,,,,,,,,,,,,,,,,,,150,1158,Valid,noise,0,2,3157.1470882000867,1,3.0,11.449857600033283,True,7,A,2023-09-01_12h04.10.655,exp3,2022.2.2,
,,,,,,,,,,,,,,,,,,,,,,,151,-1716,Valid,noise,0,1,3164.7637913001236,0,1.0,5.2977708000689745,True,7,A,2023-09-01_12h04.10.655,exp3,2022.2.2,
,,,,,,,,,,,,,,,,,,,,,,,152,-2274,Valid,signal,0,1,3169.066901399987,1,2.0,3.6624674000777304,True,7,A,2023-09-01_12h04.10.655,exp3,2022.2.2,
,,,,,,,,,,,,,,,,,,,,,,,153,-557,Valid,noise,0,2,3192.411228900077,1,3.0,22.820864300010726,True,7,A,2023-09-01_12h04.10.655,exp3,2022.2.2,
,,,,,,,,,,,,,,,,,,,,,,,154,2274,Valid,noise,0,2,3197.611848599976,1,2.0,3.9632357000373304,True,7,A,2023-09-01_12h04.10.655,exp3,2022.2.2,
,,,,,,,,,,,,,,,,,,,,,,,155,1716,Valid,noise,0,2,3206.9715623001102,1,2.0,8.531774299917743,True,7,A,2023-09-01_12h04.10.655,exp3,2022.2.2,
,,,,,,,,,,,,,,,,,,,,,,,156,1716,Valid,signal,0,1,3211.5639359999914,1,4.0,4.12963439989835,True,7,A,2023-09-01_12h04.10.655,exp3,2022.2.2,
,,,,,,,,,,,,,,,,,,,,,,,157,1158,Valid,signal,0,1,3216.8271344001405,1,3.0,4.66372389998287,True,7,A,2023-09-01_12h04.10.655,exp3,2022.2.2,
,,,,,,,,,,,,,,,,,,,,,,,158,-1158,Valid,signal,0,1,3222.475917200092,1,4.0,3.1961815000977367,True,7,A,2023-09-01_12h04.10.655,exp3,2022.2.2,
,,,,,,,,,,,,,,,,,,,,,,,159,557,Valid,noise,0,2,3229.2270164999645,1,3.0,5.647089699981734,True,7,A,2023-09-01_12h04.10.655,exp3,2022.2.2,
,,,,,,,,,,,,,,,,,,,,,,,160,557,Invalid,noise,0,2,3234.315278199967,1,3.0,3.96322499983944,True,7,A,2023-09-01_12h04.10.655,exp3,2022.2.2,
,,,,,,,,,,,,,,,,,,,,,,,161,557,Valid,noise,0,2,3238.027520200005,1,4.0,3.2462206999771297,True,7,A,2023-09-01_12h04.10.655,exp3,2022.2.2,
,,,,,,,,,,,,,,,,,,,,,,,162,-1716,Valid,signal,0,1,3245.083242499968,1,3.0,5.764340399997309,True,7,A,2023-09-01_12h04.10.655,exp3,2022.2.2,
,,,,,,,,,,,,,,,,,,,,,,,163,2274,Valid,signal,0,1,3249.323986100033,1,2.0,3.4460129998624325,True,7,A,2023-09-01_12h04.10.655,exp3,2022.2.2,
,,,,,,,,,,,,,,,,,,,,,,,164,1158,Valid,noise,0,2,3258.6201136000454,1,2.0,8.298813299974427,True,7,A,2023-09-01_12h04.10.655,exp3,2022.2.2,
,,,,,,,,,,,,,,,,,,,,,,,165,2274,Valid,signal,0,1,3265.0669450999703,1,4.0,8.548463299870491,True,7,A,2023-09-01_12h04.10.655,exp3,2022.2.2,
,,,,,,,,,,,,,,,,,,,,,,,166,-1158,Valid,noise,0,2,3273.404114600038,1,2.0,4.647113800048828,True,7,A,2023-09-01_12h04.10.655,exp3,2022.2.2,
,,,,,,,,,,,,,,,,,,,,,,,167,-1716,Valid,signal,0,1,3278.028064199956,1,4.0,3.246030299924314,True,7,A,2023-09-01_12h04.10.655,exp3,2022.2.2,
,,,,,,,,,,,,,,,,,,,,,,,168,-2274,Valid,signal,0,1,3284.5232561000157,1,3.0,6.047389300074428,True,7,A,2023-09-01_12h04.10.655,exp3,2022.2.2,
,,,,,,,,,,,,,,,,,,,,,,,169,1716,Invalid,signal,0,1,3296.4915774001274,1,4.0,10.14860190008767,True,7,A,2023-09-01_12h04.10.655,exp3,2022.2.2,
,,,,,,,,,,,,,,,,,,,,,,,170,-2274,Valid,signal,0,1,3300.443268300034,1,3.0,3.5803984000813216,True,7,A,2023-09-01_12h04.10.655,exp3,2022.2.2,
,,,,,,,,,,,,,,,,,,,,,,,171,1158,Valid,signal,0,1,3307.194965200033,1,4.0,5.196839099982753,True,7,A,2023-09-01_12h04.10.655,exp3,2022.2.2,
,,,,,,,,,,,,,,,,,,,,,,,172,1716,Valid,signal,0,1,3311.2116889001336,1,4.0,2.4289210999850184,True,7,A,2023-09-01_12h04.10.655,exp3,2022.2.2,
,,,,,,,,,,,,,,,,,,,,,,,173,-1158,Invalid,noise,0,2,3321.451423899969,1,3.0,9.916123800212517,True,7,A,2023-09-01_12h04.10.655,exp3,2022.2.2,
,,,,,,,,,,,,,,,,,,,,,,,174,-1158,Valid,signal,0,1,3327.004247199977,1,4.0,4.396247899858281,True,7,A,2023-09-01_12h04.10.655,exp3,2022.2.2,
,,,,,,,,,,,,,,,,,,,,,,,175,1716,Valid,signal,0,1,3335.2750969000626,1,4.0,7.13117490010336,True,7,A,2023-09-01_12h04.10.655,exp3,2022.2.2,
,,,,,,,,,,,,,,,,,,,,,,,176,1158,Invalid,noise,0,2,3339.9319090999197,1,2.0,3.87989559979178,True,7,A,2023-09-01_12h04.10.655,exp3,2022.2.2,
,,,,,,,,,,,,,,,,,,,,,,,2,-2274,Invalid,noise,0,2,3518.971926599974,1,2.0,54.651034800102934,True,7,A,2023-09-01_12h04.10.655,exp3,2022.2.2,
,,,,,,,,,,,,,,,,,,,,,,,4,-1716,Valid,noise,0,2,3528.1230381000787,1,2.0,8.099029099801555,True,7,A,2023-09-01_12h04.10.655,exp3,2022.2.2,
,,,,,,,,,,,,,,,,,,,,,,,6,1716,Valid,signal,0,1,3532.5712379000615,1,4.0,2.9120851999614388,True,7,A,2023-09-01_12h04.10.655,exp3,2022.2.2,
,,,,,,,,,,,,,,,,,,,,,,,8,-2274,Valid,noise,0,2,3536.63531240006,1,2.0,2.862930499948561,True,7,A,2023-09-01_12h04.10.655,exp3,2022.2.2,
,,,,,,,,,,,,,,,,,,,,,,,10,1716,Valid,noise,0,2,3542.2037687001284,1,2.0,4.496499000117183,True,7,A,2023-09-01_12h04.10.655,exp3,2022.2.2,
,,,,,,,,,,,,,,,,,,,,,,,12,-2274,Valid,noise,0,2,3548.42793060001,1,1.0,6.131136700045317,True,7,A,2023-09-01_12h04.10.655,exp3,2022.2.2,
,,,,,,,,,,,,,,,,,,,,,,,14,-2274,Valid,noise,0,2,3553.1951405000873,1,1.0,2.795725400093943,True,7,A,2023-09-01_12h04.10.655,exp3,2022.2.2,
,,,,,,,,,,,,,,,,,,,,,,,16,2274,Valid,noise,0,1,3559.435061200056,0,1.0,5.2977062000427395,True,7,A,2023-09-01_12h04.10.655,exp3,2022.2.2,
,,,,,,,,,,,,,,,,,,,,,,,18,-1716,Valid,noise,0,2,3563.2437595000956,1,2.0,3.579625500133261,True,7,A,2023-09-01_12h04.10.655,exp3,2022.2.2,
,,,,,,,,,,,,,,,,,,,,,,,20,1158,Valid,noise,0,2,3568.0120771001093,1,1.0,3.930285800015554,True,7,A,2023-09-01_12h04.10.655,exp3,2022.2.2,
,,,,,,,,,,,,,,,,,,,,,,,22,-557,Valid,signal,0,1,3572.6826814999804,1,4.0,15.451382800005376,True,7,A,2023-09-01_12h04.10.655,exp3,2022.2.2,
,,,,,,,,,,,,,,,,,,,,,,,24,-2274,Valid,signal,0,1,3589.5798852001317,1,4.0,3.3290385000873357,True,7,A,2023-09-01_12h04.10.655,exp3,2022.2.2,
,,,,,,,,,,,,,,,,,,,,,,,26,-2274,Valid,noise,0,2,3604.89190050005,1,1.0,14.433874299982563,True,7,A,2023-09-01_12h04.10.655,exp3,2022.2.2,
,,,,,,,,,,,,,,,,,,,,,,,28,-2274,Valid,noise,0,2,3615.3393788000103,1,1.0,8.998889399925247,True,7,A,2023-09-01_12h04.10.655,exp3,2022.2.2,
,,,,,,,,,,,,,,,,,,,,,,,30,-2274,Valid,noise,0,2,3623.083072599955,1,1.0,7.197930899914354,True,7,A,2023-09-01_12h04.10.655,exp3,2022.2.2,
,,,,,,,,,,,,,,,,,,,,,,,32,1716,Invalid,noise,0,2,3629.850732800085,1,2.0,5.9807740999385715,True,7,A,2023-09-01_12h04.10.655,exp3,2022.2.2,
,,,,,,,,,,,,,,,,,,,,,,,34,-2274,Valid,noise,0,2,3634.7787464000285,1,2.0,3.429912499850616,True,7,A,2023-09-01_12h04.10.655,exp3,2022.2.2,
,,,,,,,,,,,,,,,,,,,,,,,36,1158,Invalid,signal,0,1,3638.81120570004,1,4.0,4.329981999937445,True,7,A,2023-09-01_12h04.10.655,exp3,2022.2.2,
,,,,,,,,,,,,,,,,,,,,,,,38,557,Valid,noise,0,2,3644.042618599953,1,4.0,3.463012000080198,True,7,A,2023-09-01_12h04.10.655,exp3,2022.2.2,
,,,,,,,,,,,,,,,,,,,,,,,40,-2274,Valid,noise,0,2,3648.475275600096,1,2.0,3.4466325000394136,True,7,A,2023-09-01_12h04.10.655,exp3,2022.2.2,
,,,,,,,,,,,,,,,,,,,,,,,42,557,Valid,signal,0,1,3652.9717910001054,1,4.0,3.413267199881375,True,7,A,2023-09-01_12h04.10.655,exp3,2022.2.2,
,,,,,,,,,,,,,,,,,,,,,,,44,1158,Invalid,signal,0,1,3657.2591711001005,1,4.0,2.662708600051701,True,7,A,2023-09-01_12h04.10.655,exp3,2022.2.2,
,,,,,,,,,,,,,,,,,,,,,,,46,557,Valid,signal,0,1,3660.7317020001356,1,4.0,2.445652199909091,True,7,A,2023-09-01_12h04.10.655,exp3,2022.2.2,
,,,,,,,,,,,,,,,,,,,,,,,48,1716,Valid,noise,0,2,3670.7946454000194,1,1.0,9.632091799983755,True,7,A,2023-09-01_12h04.10.655,exp3,2022.2.2,
,,,,,,,,,,,,,,,,,,,,,,,50,-1158,Invalid,noise,0,2,3675.1637901000213,1,3.0,3.3467433999758214,True,7,A,2023-09-01_12h04.10.655,exp3,2022.2.2,
,,,,,,,,,,,,,,,,,,,,,,,52,1716,Valid,noise,0,2,3679.818791100057,1,2.0,3.7962617999874055,True,7,A,2023-09-01_12h04.10.655,exp3,2022.2.2,
,,,,,,,,,,,,,,,,,,,,,,,54,1158,Valid,noise,0,2,3686.363983399933,1,3.0,7.248400599928573,True,7,A,2023-09-01_12h04.10.655,exp3,2022.2.2,
,,,,,,,,,,,,,,,,,,,,,,,56,-557,Invalid,signal,0,1,3692.8433745999355,1,4.0,3.8790603999514133,True,7,A,2023-09-01_12h04.10.655,exp3,2022.2.2,
,,,,,,,,,,,,,,,,,,,,,,,58,2274,Invalid,signal,0,2,3699.771464599995,0,1.0,11.399425600189716,True,7,A,2023-09-01_12h04.10.655,exp3,2022.2.2,
,,,,,,,,,,,,,,,,,,,,,,,60,1716,Valid,signal,0,1,3713.051799400011,1,4.0,8.565245900070295,True,7,A,2023-09-01_12h04.10.655,exp3,2022.2.2,
,,,,,,,,,,,,,,,,,,,,,,,62,-1716,Valid,signal,0,1,3719.3228176999837,1,4.0,2.8293725999537855,True,7,A,2023-09-01_12h04.10.655,exp3,2022.2.2,
,,,,,,,,,,,,,,,,,,,,,,,64,1158,Valid,signal,0,1,3722.7798166000284,1,4.0,2.229687600163743,True,7,A,2023-09-01_12h04.10.655,exp3,2022.2.2,
,,,,,,,,,,,,,,,,,,,,,,,66,1158,Valid,noise,0,2,3727.5795694000553,1,2.0,6.763588399859145,True,7,A,2023-09-01_12h04.10.655,exp3,2022.2.2,
,,,,,,,,,,,,,,,,,,,,,,,68,-1158,Valid,signal,0,1,3738.314777499996,1,4.0,7.748124199919403,True,7,A,2023-09-01_12h04.10.655,exp3,2022.2.2,
,,,,,,,,,,,,,,,,,,,,,,,70,1716,Valid,noise,0,2,3745.0035018001217,1,2.0,5.514002300100401,True,7,A,2023-09-01_12h04.10.655,exp3,2022.2.2,
,,,,,,,,,,,,,,,,,,,,,,,72,-1716,Valid,signal,0,1,3749.1471591000445,1,4.0,2.829818099969998,True,7,A,2023-09-01_12h04.10.655,exp3,2022.2.2,
,,,,,,,,,,,,,,,,,,,,,,,74,-1716,Valid,noise,0,2,3753.3388718999922,1,3.0,3.345794500084594,True,7,A,2023-09-01_12h04.10.655,exp3,2022.2.2,
,,,,,,,,,,,,,,,,,,,,,,,76,1716,Valid,signal,0,1,3763.610862700036,1,4.0,9.165347600122914,True,7,A,2023-09-01_12h04.10.655,exp3,2022.2.2,
,,,,,,,,,,,,,,,,,,,,,,,78,1716,Valid,signal,0,1,3767.515616700053,1,4.0,2.5126439000014216,True,7,A,2023-09-01_12h04.10.655,exp3,2022.2.2,
,,,,,,,,,,,,,,,,,,,,,,,80,1158,Valid,signal,0,1,3770.8920106000733,1,4.0,2.212351400172338,True,7,A,2023-09-01_12h04.10.655,exp3,2022.2.2,
,,,,,,,,,,,,,,,,,,,,,,,82,-1158,Valid,noise,0,2,3779.115439099958,1,4.0,7.865393300075084,True,7,A,2023-09-01_12h04.10.655,exp3,2022.2.2,
,,,,,,,,,,,,,,,,,,,,,,,84,2274,Invalid,noise,0,2,3783.7720065000467,1,3.0,3.6125378999859095,True,7,A,2023-09-01_12h04.10.655,exp3,2022.2.2,
,,,,,,,,,,,,,,,,,,,,,,,86,-557,Invalid,signal,0,1,3787.9149424000643,1,4.0,4.063861900009215,True,7,A,2023-09-01_12h04.10.655,exp3,2022.2.2,
,,,,,,,,,,,,,,,,,,,,,,,88,-1716,Valid,signal,0,1,3793.4670396000147,1,4.0,3.446292500011623,True,7,A,2023-09-01_12h04.10.655,exp3,2022.2.2,
,,,,,,,,,,,,,,,,,,,,,,,90,-1716,Valid,signal,0,1,3797.259122800082,1,4.0,2.345782099990174,True,7,A,2023-09-01_12h04.10.655,exp3,2022.2.2,
,,,,,,,,,,,,,,,,,,,,,,,92,-2274,Valid,signal,0,1,3800.5548702001106,1,4.0,2.2457274000626057,True,7,A,2023-09-01_12h04.10.655,exp3,2022.2.2,
,,,,,,,,,,,,,,,,,,,,,,,94,2274,Valid,signal,0,1,3803.7393678999506,1,4.0,2.2459221000317484,True,7,A,2023-09-01_12h04.10.655,exp3,2022.2.2,
,,,,,,,,,,,,,,,,,,,,,,,96,-557,Valid,noise,0,2,3807.2912753000855,1,4.0,3.07997680013068,True,7,A,2023-09-01_12h04.10.655,exp3,2022.2.2,
,,,,,,,,,,,,,,,,,,,,,,,98,-1158,Valid,noise,0,2,3811.259728899924,1,4.0,3.0123958000913262,True,7,A,2023-09-01_12h04.10.655,exp3,2022.2.2,
,,,,,,,,,,,,,,,,,,,,,,,100,-557,Valid,signal,0,1,3815.2277943000663,1,4.0,2.446047200122848,True,7,A,2023-09-01_12h04.10.655,exp3,2022.2.2,
,,,,,,,,,,,,,,,,,,,,,,,102,557,Valid,noise,0,2,3821.5317822999787,1,4.0,5.513999900082126,True,7,A,2023-09-01_12h04.10.655,exp3,2022.2.2,
,,,,,,,,,,,,,,,,,,,,,,,104,-1716,Valid,noise,0,2,3829.9158950999845,1,4.0,7.6982026000041515,True,7,A,2023-09-01_12h04.10.655,exp3,2022.2.2,
,,,,,,,,,,,,,,,,,,,,,,,106,-557,Valid,signal,0,1,3834.251830199966,1,4.0,2.6794606000185013,True,7,A,2023-09-01_12h04.10.655,exp3,2022.2.2,
,,,,,,,,,,,,,,,,,,,,,,,108,-1716,Valid,signal,0,1,3837.4992748999503,1,4.0,2.2626517000608146,True,7,A,2023-09-01_12h04.10.655,exp3,2022.2.2,
,,,,,,,,,,,,,,,,,,,,,,,110,1716,Valid,noise,0,2,3841.003463299945,1,3.0,4.263556499965489,True,7,A,2023-09-01_12h04.10.655,exp3,2022.2.2,
,,,,,,,,,,,,,,,,,,,,,,,112,1716,Valid,signal,0,1,3846.074981499929,1,4.0,2.9964755000546575,True,7,A,2023-09-01_12h04.10.655,exp3,2022.2.2,
,,,,,,,,,,,,,,,,,,,,,,,114,-2274,Invalid,signal,0,1,3857.019342500018,1,3.0,9.949220500187948,True,7,A,2023-09-01_12h04.10.655,exp3,2022.2.2,
,,,,,,,,,,,,,,,,,,,,,,,116,1158,Invalid,noise,0,2,3863.851328100078,1,1.0,5.929821799974889,True,7,A,2023-09-01_12h04.10.655,exp3,2022.2.2,
,,,,,,,,,,,,,,,,,,,,,,,118,557,Valid,signal,0,1,3867.9305754001252,1,4.0,3.9472970999777317,True,7,A,2023-09-01_12h04.10.655,exp3,2022.2.2,
,,,,,,,,,,,,,,,,,,,,,,,120,2274,Valid,noise,0,1,3873.131738499971,0,2.0,3.4128515999764204,True,7,A,2023-09-01_12h04.10.655,exp3,2022.2.2,
,,,,,,,,,,,,,,,,,,,,,,,122,-557,Valid,noise,0,2,3877.547129600076,1,4.0,2.9961401999462396,True,7,A,2023-09-01_12h04.10.655,exp3,2022.2.2,
,,,,,,,,,,,,,,,,,,,,,,,124,1158,Valid,signal,0,1,3889.9153152999934,1,4.0,12.566338100004941,True,7,A,2023-09-01_12h04.10.655,exp3,2022.2.2,
,,,,,,,,,,,,,,,,,,,,,,,126,557,Valid,signal,0,1,3894.9872224999126,1,4.0,2.9964115999173373,True,7,A,2023-09-01_12h04.10.655,exp3,2022.2.2,
,,,,,,,,,,,,,,,,,,,,,,,128,1716,Valid,signal,0,1,3898.875660000136,1,4.0,2.9464606000110507,True,7,A,2023-09-01_12h04.10.655,exp3,2022.2.2,
,,,,,,,,,,,,,,,,,,,,,,,130,-557,Valid,noise,0,2,3905.0354367999826,1,4.0,4.913684099912643,True,7,A,2023-09-01_12h04.10.655,exp3,2022.2.2,
,,,,,,,,,,,,,,,,,,,,,,,132,-1716,Valid,signal,0,1,3908.6984904999845,1,4.0,2.6961057998705655,True,7,A,2023-09-01_12h04.10.655,exp3,2022.2.2,
,,,,,,,,,,,,,,,,,,,,,,,134,557,Valid,noise,0,2,3912.570515899919,1,4.0,2.8626228999346495,True,7,A,2023-09-01_12h04.10.655,exp3,2022.2.2,
