trials.label,trials.startVal,trials.maxVal,trials.minVal,trials.startValSd,trials.pthreshold,trials.beta,trials.delta,trials.gamma,trials.grain,trials.stepSize,trials.range,trials.cue,trials.thisIndex,trials.thisRepN,trials.thisN,trials.direction,trials.stepType,trials.intensity,signalOpacity,level,trials.response,stair_eye_ok,nTrial,position,validity,Stimulus,orientation,response_key,response_rt,response_correct,confidence,confidence_rt,curr_trial_rep,eye_ok,participant,session,date,expName,psychopyVersion,
low_opac_v,0.4,1,0.01,3,0.82,3.5,0.01,0,0.01,4,5,Valid,0,1,0,start,lin,0.4,0,0.4,0,True,,,,,,,,,,,,,13,A,2023-09-11_08h45.40.957,exp3,2022.2.2,
low_opac_i,0.4,1,0.01,3,0.82,3.5,0.01,0,0.01,4,5,Invalid,2,1,1,start,lin,0.4,0.4,0.4,1,True,,,,,,,,,,,,,13,A,2023-09-11_08h45.40.957,exp3,2022.2.2,
high_opac_v,0.01,1,0.01,3,0.82,3.5,0.01,0,0.01,4,5,Valid,1,1,2,start,lin,0.01,0.01,0.01,1,True,,,,,,,,,,,,,13,A,2023-09-11_08h45.40.957,exp3,2022.2.2,
low_opac_i,0.4,1,0.01,3,0.82,3.5,0.01,0,0.01,4,5,Invalid,2,2,3,start,lin,0.01,0,0.01,0,True,,,,,,,,,,,,,13,A,2023-09-11_08h45.40.957,exp3,2022.2.2,
low_opac_v,0.4,1,0.01,3,0.82,3.5,0.01,0,0.01,4,5,Valid,0,2,4,start,lin,1,0,1,0,True,,,,,,,,,,,,,13,A,2023-09-11_08h45.40.957,exp3,2022.2.2,
high_opac_v,0.01,1,0.01,3,0.82,3.5,0.01,0,0.01,4,5,Valid,1,2,5,start,lin,0.01,0.01,0.01,1,True,,,,,,,,,,,,,13,A,2023-09-11_08h45.40.957,exp3,2022.2.2,
high_opac_v,0.01,1,0.01,3,0.82,3.5,0.01,0,0.01,4,5,Valid,1,3,6,start,lin,0.01,0.01,0.01,1,True,,,,,,,,,,,,,13,A,2023-09-11_08h45.40.957,exp3,2022.2.2,
low_opac_v,0.4,1,0.01,3,0.82,3.5,0.01,0,0.01,4,5,Valid,0,3,7,start,lin,1,0,1,0,True,,,,,,,,,,,,,13,A,2023-09-11_08h45.40.957,exp3,2022.2.2,
low_opac_i,0.4,1,0.01,3,0.82,3.5,0.01,0,0.01,4,5,Invalid,2,3,8,start,lin,0.3144098688205103,0.3144098688205103,0.3144098688205103,1,True,,,,,,,,,,,,,13,A,2023-09-11_08h45.40.957,exp3,2022.2.2,
high_opac_v,0.01,1,0.01,3,0.82,3.5,0.01,0,0.01,4,5,Valid,1,4,9,start,lin,0.01,0.01,0.01,0,True,,,,,,,,,,,,,13,A,2023-09-11_08h45.40.957,exp3,2022.2.2,
low_opac_i,0.4,1,0.01,3,0.82,3.5,0.01,0,0.01,4,5,Invalid,2,4,10,start,lin,0.23561159539411833,0.23561159539411833,0.23561159539411833,1,True,,,,,,,,,,,,,13,A,2023-09-11_08h45.40.957,exp3,2022.2.2,
low_opac_v,0.4,1,0.01,3,0.82,3.5,0.01,0,0.01,4,5,Valid,0,4,11,start,lin,1,1,1,1,True,,,,,,,,,,,,,13,A,2023-09-11_08h45.40.957,exp3,2022.2.2,
low_opac_v,0.4,1,0.01,3,0.82,3.5,0.01,0,0.01,4,5,Valid,0,5,12,start,lin,1,0,1,0,True,,,,,,,,,,,,,13,A,2023-09-11_08h45.40.957,exp3,2022.2.2,
low_opac_i,0.4,1,0.01,3,0.82,3.5,0.01,0,0.01,4,5,Invalid,2,5,13,start,lin,0.1841780991895161,0.1841780991895161,0.1841780991895161,1,True,,,,,,,,,,,,,13,A,2023-09-11_08h45.40.957,exp3,2022.2.2,
high_opac_v,0.01,1,0.01,3,0.82,3.5,0.01,0,0.01,4,5,Valid,1,5,14,start,lin,0.01,0,0.01,1,True,,,,,,,,,,,,,13,A,2023-09-11_08h45.40.957,exp3,2022.2.2,
high_opac_v,0.01,1,0.01,3,0.82,3.5,0.01,0,0.01,4,5,Valid,1,6,15,start,lin,0.01,0,0.01,0,True,,,,,,,,,,,,,13,A,2023-09-11_08h45.40.957,exp3,2022.2.2,
low_opac_v,0.4,1,0.01,3,0.82,3.5,0.01,0,0.01,4,5,Valid,0,6,16,start,lin,1,1,1,1,True,,,,,,,,,,,,,13,A,2023-09-11_08h45.40.957,exp3,2022.2.2,
low_opac_i,0.4,1,0.01,3,0.82,3.5,0.01,0,0.01,4,5,Invalid,2,6,17,start,lin,0.14081453445857006,0,0.14081453445857006,0,True,,,,,,,,,,,,,13,A,2023-09-11_08h45.40.957,exp3,2022.2.2,
low_opac_v,0.4,1,0.01,3,0.82,3.5,0.01,0,0.01,4,5,Valid,0,7,18,start,lin,1,0,1,1,True,,,,,,,,,,,,,13,A,2023-09-11_08h45.40.957,exp3,2022.2.2,
high_opac_v,0.01,1,0.01,3,0.82,3.5,0.01,0,0.01,4,5,Valid,1,7,19,start,lin,0.06336997635913784,0,0.06336997635913784,1,True,,,,,,,,,,,,,13,A,2023-09-11_08h45.40.957,exp3,2022.2.2,
low_opac_i,0.4,1,0.01,3,0.82,3.5,0.01,0,0.01,4,5,Invalid,2,7,20,start,lin,0.23618356900306736,0,0.23618356900306736,1,True,,,,,,,,,,,,,13,A,2023-09-11_08h45.40.957,exp3,2022.2.2,
low_opac_i,0.4,1,0.01,3,0.82,3.5,0.01,0,0.01,4,5,Invalid,2,8,21,start,lin,0.217312149817103,0,0.217312149817103,0,True,,,,,,,,,,,,,13,A,2023-09-11_08h45.40.957,exp3,2022.2.2,
low_opac_v,0.4,1,0.01,3,0.82,3.5,0.01,0,0.01,4,5,Valid,0,8,22,start,lin,1,0,1,0,True,,,,,,,,,,,,,13,A,2023-09-11_08h45.40.957,exp3,2022.2.2,
high_opac_v,0.01,1,0.01,3,0.82,3.5,0.01,0,0.01,4,5,Valid,1,8,23,start,lin,0.04826674546431913,0.04826674546431913,0.04826674546431913,1,True,,,,,,,,,,,,,13,A,2023-09-11_08h45.40.957,exp3,2022.2.2,
high_opac_v,0.01,1,0.01,3,0.82,3.5,0.01,0,0.01,4,5,Valid,1,9,24,start,lin,0.035516088164064354,0,0.035516088164064354,0,True,,,,,,,,,,,,,13,A,2023-09-11_08h45.40.957,exp3,2022.2.2,
low_opac_v,0.4,1,0.01,3,0.82,3.5,0.01,0,0.01,4,5,Valid,0,9,25,start,lin,1,1,1,1,True,,,,,,,,,,,,,13,A,2023-09-11_08h45.40.957,exp3,2022.2.2,
low_opac_i,0.4,1,0.01,3,0.82,3.5,0.01,0,0.01,4,5,Invalid,2,9,26,start,lin,0.2737805299809524,0,0.2737805299809524,1,True,,,,,,,,,,,,,13,A,2023-09-11_08h45.40.957,exp3,2022.2.2,
high_opac_v,0.01,1,0.01,3,0.82,3.5,0.01,0,0.01,4,5,Valid,1,10,27,start,lin,0.07808259478356432,0.07808259478356432,0.07808259478356432,1,True,,,,,,,,,,,,,13,A,2023-09-11_08h45.40.957,exp3,2022.2.2,
low_opac_i,0.4,1,0.01,3,0.82,3.5,0.01,0,0.01,4,5,Invalid,2,10,28,start,lin,0.2603958028217646,0.2603958028217646,0.2603958028217646,1,True,,,,,,,,,,,,,13,A,2023-09-11_08h45.40.957,exp3,2022.2.2,
low_opac_v,0.4,1,0.01,3,0.82,3.5,0.01,0,0.01,4,5,Valid,0,10,29,start,lin,1,0,1,0,True,,,,,,,,,,,,,13,A,2023-09-11_08h45.40.957,exp3,2022.2.2,
high_opac_v,0.01,1,0.01,3,0.82,3.5,0.01,0,0.01,4,5,Valid,1,11,30,start,lin,0.06914413220425769,0,0.06914413220425769,0,True,,,,,,,,,,,,,13,A,2023-09-11_08h45.40.957,exp3,2022.2.2,
low_opac_v,0.4,1,0.01,3,0.82,3.5,0.01,0,0.01,4,5,Valid,0,11,31,start,lin,1,0,1,0,True,,,,,,,,,,,,,13,A,2023-09-11_08h45.40.957,exp3,2022.2.2,
low_opac_i,0.4,1,0.01,3,0.82,3.5,0.01,0,0.01,4,5,Invalid,2,11,32,start,lin,0.24907489341035194,0.24907489341035194,0.24907489341035194,1,True,,,,,,,,,,,,,13,A,2023-09-11_08h45.40.957,exp3,2022.2.2,
high_opac_v,0.01,1,0.01,3,0.82,3.5,0.01,0,0.01,4,5,Valid,1,12,33,start,lin,0.10007515712701244,0,0.10007515712701244,0,True,,,,,,,,,,,,,13,A,2023-09-11_08h45.40.957,exp3,2022.2.2,
low_opac_v,0.4,1,0.01,3,0.82,3.5,0.01,0,0.01,4,5,Valid,0,12,34,start,lin,1,1,1,1,True,,,,,,,,,,,,,13,A,2023-09-11_08h45.40.957,exp3,2022.2.2,
low_opac_i,0.4,1,0.01,3,0.82,3.5,0.01,0,0.01,4,5,Invalid,2,12,35,start,lin,0.23912385653864346,0,0.23912385653864346,0,True,,,,,,,,,,,,,13,A,2023-09-11_08h45.40.957,exp3,2022.2.2,
low_opac_v,0.4,1,0.01,3,0.82,3.5,0.01,0,0.01,4,5,Valid,0,13,36,start,lin,1,0,1,1,True,,,,,,,,,,,,,13,A,2023-09-11_08h45.40.957,exp3,2022.2.2,
low_opac_i,0.4,1,0.01,3,0.82,3.5,0.01,0,0.01,4,5,Invalid,2,13,37,start,lin,0.2728607412009295,0.2728607412009295,0.2728607412009295,1,True,,,,,,,,,,,,,13,A,2023-09-11_08h45.40.957,exp3,2022.2.2,
high_opac_v,0.01,1,0.01,3,0.82,3.5,0.01,0,0.01,4,5,Valid,1,13,38,start,lin,0.1292233679211866,0.1292233679211866,0.1292233679211866,1,True,,,,,,,,,,,,,13,A,2023-09-11_08h45.40.957,exp3,2022.2.2,
low_opac_i,0.4,1,0.01,3,0.82,3.5,0.01,0,0.01,4,5,Invalid,2,14,39,start,lin,0.2647829435810306,0.2647829435810306,0.2647829435810306,1,True,,,,,,,,,,,,,13,A,2023-09-11_08h45.40.957,exp3,2022.2.2,
low_opac_v,0.4,1,0.01,3,0.82,3.5,0.01,0,0.01,4,5,Valid,0,14,40,start,lin,1,1,1,1,True,,,,,,,,,,,,,13,A,2023-09-11_08h45.40.957,exp3,2022.2.2,
high_opac_v,0.01,1,0.01,3,0.82,3.5,0.01,0,0.01,4,5,Valid,1,14,41,start,lin,0.12195085403910572,0.12195085403910572,0.12195085403910572,1,True,,,,,,,,,,,,,13,A,2023-09-11_08h45.40.957,exp3,2022.2.2,
high_opac_v,0.01,1,0.01,3,0.82,3.5,0.01,0,0.01,4,5,Valid,1,15,42,start,lin,0.11523457058359837,0.11523457058359837,0.11523457058359837,1,True,,,,,,,,,,,,,13,A,2023-09-11_08h45.40.957,exp3,2022.2.2,
low_opac_v,0.4,1,0.01,3,0.82,3.5,0.01,0,0.01,4,5,Valid,0,15,43,start,lin,1,1,1,1,True,,,,,,,,,,,,,13,A,2023-09-11_08h45.40.957,exp3,2022.2.2,
low_opac_i,0.4,1,0.01,3,0.82,3.5,0.01,0,0.01,4,5,Invalid,2,15,44,start,lin,0.2572939242511697,0.2572939242511697,0.2572939242511697,1,True,,,,,,,,,,,,,13,A,2023-09-11_08h45.40.957,exp3,2022.2.2,
high_opac_v,0.01,1,0.01,3,0.82,3.5,0.01,0,0.01,4,5,Valid,1,16,45,start,lin,0.10941070056411725,0,0.10941070056411725,1,True,,,,,,,,,,,,,13,A,2023-09-11_08h45.40.957,exp3,2022.2.2,
low_opac_i,0.4,1,0.01,3,0.82,3.5,0.01,0,0.01,4,5,Invalid,2,16,46,start,lin,0.2508038635561288,0,0.2508038635561288,0,True,,,,,,,,,,,,,13,A,2023-09-11_08h45.40.957,exp3,2022.2.2,
low_opac_v,0.4,1,0.01,3,0.82,3.5,0.01,0,0.01,4,5,Valid,0,16,47,start,lin,1,0,1,1,True,,,,,,,,,,,,,13,A,2023-09-11_08h45.40.957,exp3,2022.2.2,
high_opac_v,0.01,1,0.01,3,0.82,3.5,0.01,0,0.01,4,5,Valid,1,17,48,start,lin,0.10388269454913229,0.10388269454913229,0.10388269454913229,1,True,,,,,,,,,,,,,13,A,2023-09-11_08h45.40.957,exp3,2022.2.2,
low_opac_i,0.4,1,0.01,3,0.82,3.5,0.01,0,0.01,4,5,Invalid,2,17,49,start,lin,0.27445256548806596,0,0.27445256548806596,1,True,,,,,,,,,,,,,13,A,2023-09-11_08h45.40.957,exp3,2022.2.2,
low_opac_v,0.4,1,0.01,3,0.82,3.5,0.01,0,0.01,4,5,Valid,0,17,50,start,lin,1,1,1,1,True,,,,,,,,,,,,,13,A,2023-09-11_08h45.40.957,exp3,2022.2.2,
low_opac_v,0.4,1,0.01,3,0.82,3.5,0.01,0,0.01,4,5,Valid,0,18,51,start,lin,1,0,1,0,True,,,,,,,,,,,,,13,A,2023-09-11_08h45.40.957,exp3,2022.2.2,
low_opac_i,0.4,1,0.01,3,0.82,3.5,0.01,0,0.01,4,5,Invalid,2,18,52,start,lin,0.268598123045904,0.268598123045904,0.268598123045904,1,True,,,,,,,,,,,,,13,A,2023-09-11_08h45.40.957,exp3,2022.2.2,
high_opac_v,0.01,1,0.01,3,0.82,3.5,0.01,0,0.01,4,5,Valid,1,18,53,start,lin,0.09851726080795774,0.09851726080795774,0.09851726080795774,1,True,,,,,,,,,,,,,13,A,2023-09-11_08h45.40.957,exp3,2022.2.2,
low_opac_v,0.4,1,0.01,3,0.82,3.5,0.01,0,0.01,4,5,Valid,0,19,54,start,lin,1,0,1,1,True,,,,,,,,,,,,,13,A,2023-09-11_08h45.40.957,exp3,2022.2.2,
low_opac_i,0.4,1,0.01,3,0.82,3.5,0.01,0,0.01,4,5,Invalid,2,19,55,start,lin,0.2634075329121861,0,0.2634075329121861,0,True,,,,,,,,,,,,,13,A,2023-09-11_08h45.40.957,exp3,2022.2.2,
high_opac_v,0.01,1,0.01,3,0.82,3.5,0.01,0,0.01,4,5,Valid,1,19,56,start,lin,0.09374411978500072,0,0.09374411978500072,0,True,,,,,,,,,,,,,13,A,2023-09-11_08h45.40.957,exp3,2022.2.2,
low_opac_v,0.4,1,0.01,3,0.82,3.5,0.01,0,0.01,4,5,Valid,0,20,57,start,lin,1,1,1,1,True,,,,,,,,,,,,,13,A,2023-09-11_08h45.40.957,exp3,2022.2.2,
high_opac_v,0.01,1,0.01,3,0.82,3.5,0.01,0,0.01,4,5,Valid,1,20,58,start,lin,0.11131285704755896,0,0.11131285704755896,1,True,,,,,,,,,,,,,13,A,2023-09-11_08h45.40.957,exp3,2022.2.2,
low_opac_i,0.4,1,0.01,3,0.82,3.5,0.01,0,0.01,4,5,Invalid,2,20,59,start,lin,0.28237745782013324,0,0.28237745782013324,1,True,,,,,,,,,,,,,13,A,2023-09-11_08h45.40.957,exp3,2022.2.2,
low_opac_i,0.4,1,0.01,3,0.82,3.5,0.01,0,0.01,4,5,Invalid,2,21,60,start,lin,0.27762704362347074,0.27762704362347074,0.27762704362347074,1,True,,,,,,,,,,,,,13,A,2023-09-11_08h45.40.957,exp3,2022.2.2,
low_opac_v,0.4,1,0.01,3,0.82,3.5,0.01,0,0.01,4,5,Valid,0,21,61,start,lin,1,1,1,1,True,,,,,,,,,,,,,13,A,2023-09-11_08h45.40.957,exp3,2022.2.2,
high_opac_v,0.01,1,0.01,3,0.82,3.5,0.01,0,0.01,4,5,Valid,1,21,62,start,lin,0.10690876422853791,0.10690876422853791,0.10690876422853791,1,True,,,,,,,,,,,,,13,A,2023-09-11_08h45.40.957,exp3,2022.2.2,
low_opac_v,0.4,1,0.01,3,0.82,3.5,0.01,0,0.01,4,5,Valid,0,22,63,start,lin,1,0,1,1,True,,,,,,,,,,,,,13,A,2023-09-11_08h45.40.957,exp3,2022.2.2,
low_opac_i,0.4,1,0.01,3,0.82,3.5,0.01,0,0.01,4,5,Invalid,2,22,64,start,lin,0.2733525778375297,0,0.2733525778375297,0,True,,,,,,,,,,,,,13,A,2023-09-11_08h45.40.957,exp3,2022.2.2,
high_opac_v,0.01,1,0.01,3,0.82,3.5,0.01,0,0.01,4,5,Valid,1,22,65,start,lin,0.10292914435761676,0.10292914435761676,0.10292914435761676,1,True,,,,,,,,,,,,,13,A,2023-09-11_08h45.40.957,exp3,2022.2.2,
high_opac_v,0.01,1,0.01,3,0.82,3.5,0.01,0,0.01,4,5,Valid,1,23,66,start,lin,0.09891325402448684,0,0.09891325402448684,1,True,,,,,,,,,,,,,13,A,2023-09-11_08h45.40.957,exp3,2022.2.2,
low_opac_i,0.4,1,0.01,3,0.82,3.5,0.01,0,0.01,4,5,Invalid,2,23,67,start,lin,0.2894151216070032,0,0.2894151216070032,0,True,,,,,,,,,,,,,13,A,2023-09-11_08h45.40.957,exp3,2022.2.2,
low_opac_v,0.4,1,0.01,3,0.82,3.5,0.01,0,0.01,4,5,Valid,0,23,68,start,lin,1,0,1,1,True,,,,,,,,,,,,,13,A,2023-09-11_08h45.40.957,exp3,2022.2.2,
low_opac_i,0.4,1,0.01,3,0.82,3.5,0.01,0,0.01,4,5,Invalid,2,24,69,start,lin,0.3051953510220735,0.3051953510220735,0.3051953510220735,1,True,,,,,,,,,,,,,13,A,2023-09-11_08h45.40.957,exp3,2022.2.2,
high_opac_v,0.01,1,0.01,3,0.82,3.5,0.01,0,0.01,4,5,Valid,1,24,70,start,lin,0.09524810651432168,0.09524810651432168,0.09524810651432168,0,True,,,,,,,,,,,,,13,A,2023-09-11_08h45.40.957,exp3,2022.2.2,
low_opac_v,0.4,1,0.01,3,0.82,3.5,0.01,0,0.01,4,5,Valid,0,24,71,start,lin,1,0,1,1,True,,,,,,,,,,,,,13,A,2023-09-11_08h45.40.957,exp3,2022.2.2,
low_opac_i,0.4,1,0.01,3,0.82,3.5,0.01,0,0.01,4,5,Invalid,2,25,72,start,lin,0.3015582152185604,0,0.3015582152185604,1,True,,,,,,,,,,,,,13,A,2023-09-11_08h45.40.957,exp3,2022.2.2,
low_opac_v,0.4,1,0.01,3,0.82,3.5,0.01,0,0.01,4,5,Valid,0,25,73,start,lin,1,0,1,0,True,,,,,,,,,,,,,13,A,2023-09-11_08h45.40.957,exp3,2022.2.2,
high_opac_v,0.01,1,0.01,3,0.82,3.5,0.01,0,0.01,4,5,Valid,1,25,74,start,lin,0.10986065956018455,0.10986065956018455,0.10986065956018455,1,True,,,,,,,,,,,,,13,A,2023-09-11_08h45.40.957,exp3,2022.2.2,
low_opac_v,0.4,1,0.01,3,0.82,3.5,0.01,0,0.01,4,5,Valid,0,26,75,start,lin,1,0,1,0,True,,,,,,,,,,,,,13,A,2023-09-11_08h45.40.957,exp3,2022.2.2,
low_opac_i,0.4,1,0.01,3,0.82,3.5,0.01,0,0.01,4,5,Invalid,2,26,76,start,lin,0.2978754049922359,0.2978754049922359,0.2978754049922359,1,True,,,,,,,,,,,,,13,A,2023-09-11_08h45.40.957,exp3,2022.2.2,
high_opac_v,0.01,1,0.01,3,0.82,3.5,0.01,0,0.01,4,5,Valid,1,26,77,start,lin,0.10647367048690733,0,0.10647367048690733,1,True,,,,,,,,,,,,,13,A,2023-09-11_08h45.40.957,exp3,2022.2.2,
low_opac_v,0.4,1,0.01,3,0.82,3.5,0.01,0,0.01,4,5,Valid,0,27,78,start,lin,1,0,1,1,True,,,,,,,,,,,,,13,A,2023-09-11_08h45.40.957,exp3,2022.2.2,
low_opac_i,0.4,1,0.01,3,0.82,3.5,0.01,0,0.01,4,5,Invalid,2,27,79,start,lin,0.2945108969178145,0.2945108969178145,0.2945108969178145,1,True,,,,,,,,,,,,,13,A,2023-09-11_08h45.40.957,exp3,2022.2.2,
high_opac_v,0.01,1,0.01,3,0.82,3.5,0.01,0,0.01,4,5,Valid,1,27,80,start,lin,0.10334348648452589,0.10334348648452589,0.10334348648452589,1,True,,,,,,,,,,,,,13,A,2023-09-11_08h45.40.957,exp3,2022.2.2,
low_opac_i,0.4,1,0.01,3,0.82,3.5,0.01,0,0.01,4,5,Invalid,2,28,81,start,lin,0.29109305082517756,0,0.29109305082517756,1,True,,,,,,,,,,,,,13,A,2023-09-11_08h45.40.957,exp3,2022.2.2,
high_opac_v,0.01,1,0.01,3,0.82,3.5,0.01,0,0.01,4,5,Valid,1,28,82,start,lin,0.10012224616499762,0,0.10012224616499762,0,True,,,,,,,,,,,,,13,A,2023-09-11_08h45.40.957,exp3,2022.2.2,
low_opac_v,0.4,1,0.01,3,0.82,3.5,0.01,0,0.01,4,5,Valid,0,28,83,start,lin,1,0,1,1,True,,,,,,,,,,,,,13,A,2023-09-11_08h45.40.957,exp3,2022.2.2,
low_opac_i,0.4,1,0.01,3,0.82,3.5,0.01,0,0.01,4,5,Invalid,2,29,84,start,lin,0.2878752115224992,0.2878752115224992,0.2878752115224992,1,True,,,,,,,,,,,,,13,A,2023-09-11_08h45.40.957,exp3,2022.2.2,
low_opac_v,0.4,1,0.01,3,0.82,3.5,0.01,0,0.01,4,5,Valid,0,29,85,start,lin,1,1,1,1,True,,,,,,,,,,,,,13,A,2023-09-11_08h45.40.957,exp3,2022.2.2,
high_opac_v,0.01,1,0.01,3,0.82,3.5,0.01,0,0.01,4,5,Valid,1,29,86,start,lin,0.11219373362213102,0,0.11219373362213102,0,True,,,,,,,,,,,,,13,A,2023-09-11_08h45.40.957,exp3,2022.2.2,
low_opac_v,0.4,1,0.01,3,0.82,3.5,0.01,0,0.01,4,5,Valid,0,30,87,start,lin,1,1,1,1,True,,,,,,,,,,,,,13,A,2023-09-11_08h45.40.957,exp3,2022.2.2,
high_opac_v,0.01,1,0.01,3,0.82,3.5,0.01,0,0.01,4,5,Valid,1,30,88,start,lin,0.12366113735572425,0.12366113735572425,0.12366113735572425,1,True,,,,,,,,,,,,,13,A,2023-09-11_08h45.40.957,exp3,2022.2.2,
low_opac_i,0.4,1,0.01,3,0.82,3.5,0.01,0,0.01,4,5,Invalid,2,30,89,start,lin,0.2849060253689584,0,0.2849060253689584,0,True,,,,,,,,,,,,,13,A,2023-09-11_08h45.40.957,exp3,2022.2.2,
high_opac_v,0.01,1,0.01,3,0.82,3.5,0.01,0,0.01,4,5,Valid,1,31,90,start,lin,0.12076521015454414,0.12076521015454414,0.12076521015454414,1,True,,,,,,,,,,,,,13,A,2023-09-11_08h45.40.957,exp3,2022.2.2,
low_opac_v,0.4,1,0.01,3,0.82,3.5,0.01,0,0.01,4,5,Valid,0,31,91,start,lin,1,0,1,1,True,,,,,,,,,,,,,13,A,2023-09-11_08h45.40.957,exp3,2022.2.2,
low_opac_i,0.4,1,0.01,3,0.82,3.5,0.01,0,0.01,4,5,Invalid,2,31,92,start,lin,0.2962906350156875,0.2962906350156875,0.2962906350156875,1,True,,,,,,,,,,,,,13,A,2023-09-11_08h45.40.957,exp3,2022.2.2,
high_opac_v,0.01,1,0.01,3,0.82,3.5,0.01,0,0.01,4,5,Valid,1,32,93,start,lin,0.11802132405065761,0,0.11802132405065761,1,True,,,,,,,,,,,,,13,A,2023-09-11_08h45.40.957,exp3,2022.2.2,
low_opac_v,0.4,1,0.01,3,0.82,3.5,0.01,0,0.01,4,5,Valid,0,32,94,start,lin,1,1,1,1,True,,,,,,,,,,,,,13,A,2023-09-11_08h45.40.957,exp3,2022.2.2,
low_opac_i,0.4,1,0.01,3,0.82,3.5,0.01,0,0.01,4,5,Invalid,2,32,95,start,lin,0.29357913162989663,0.29357913162989663,0.29357913162989663,1,True,,,,,,,,,,,,,13,A,2023-09-11_08h45.40.957,exp3,2022.2.2,
low_opac_i,0.4,1,0.01,3,0.82,3.5,0.01,0,0.01,4,5,Invalid,2,33,96,start,lin,0.29076912457893417,0.29076912457893417,0.29076912457893417,1,True,,,,,,,,,,,,,13,A,2023-09-11_08h45.40.957,exp3,2022.2.2,
low_opac_v,0.4,1,0.01,3,0.82,3.5,0.01,0,0.01,4,5,Valid,0,33,97,start,lin,1,0,1,1,True,,,,,,,,,,,,,13,A,2023-09-11_08h45.40.957,exp3,2022.2.2,
high_opac_v,0.01,1,0.01,3,0.82,3.5,0.01,0,0.01,4,5,Valid,1,33,98,start,lin,0.11547502094388017,0,0.11547502094388017,1,True,,,,,,,,,,,,,13,A,2023-09-11_08h45.40.957,exp3,2022.2.2,
low_opac_v,0.4,1,0.01,3,0.82,3.5,0.01,0,0.01,4,5,Valid,0,34,99,start,lin,1,1,1,1,True,,,,,,,,,,,,,13,A,2023-09-11_08h45.40.957,exp3,2022.2.2,
low_opac_i,0.4,1,0.01,3,0.82,3.5,0.01,0,0.01,4,5,Invalid,2,34,100,start,lin,0.2880911579839399,0.2880911579839399,0.2880911579839399,1,True,,,,,,,,,,,,,13,A,2023-09-11_08h45.40.957,exp3,2022.2.2,
high_opac_v,0.01,1,0.01,3,0.82,3.5,0.01,0,0.01,4,5,Valid,1,34,101,start,lin,0.11307090616164668,0,0.11307090616164668,1,True,,,,,,,,,,,,,13,A,2023-09-11_08h45.40.957,exp3,2022.2.2,
low_opac_i,0.4,1,0.01,3,0.82,3.5,0.01,0,0.01,4,5,Invalid,2,35,102,start,lin,0.28559756806334213,0,0.28559756806334213,0,True,,,,,,,,,,,,,13,A,2023-09-11_08h45.40.957,exp3,2022.2.2,
low_opac_v,0.4,1,0.01,3,0.82,3.5,0.01,0,0.01,4,5,Valid,0,35,103,start,lin,1,0,1,1,True,,,,,,,,,,,,,13,A,2023-09-11_08h45.40.957,exp3,2022.2.2,
high_opac_v,0.01,1,0.01,3,0.82,3.5,0.01,0,0.01,4,5,Valid,1,35,104,start,lin,0.11055537902017164,0,0.11055537902017164,1,True,,,,,,,,,,,,,13,A,2023-09-11_08h45.40.957,exp3,2022.2.2,
low_opac_i,0.4,1,0.01,3,0.82,3.5,0.01,0,0.01,4,5,Invalid,2,36,105,start,lin,0.29590547099909575,0.29590547099909575,0.29590547099909575,1,True,,,,,,,,,,,,,13,A,2023-09-11_08h45.40.957,exp3,2022.2.2,
low_opac_v,0.4,1,0.01,3,0.82,3.5,0.01,0,0.01,4,5,Valid,0,36,106,start,lin,1,1,1,1,True,,,,,,,,,,,,,13,A,2023-09-11_08h45.40.957,exp3,2022.2.2,
high_opac_v,0.01,1,0.01,3,0.82,3.5,0.01,0,0.01,4,5,Valid,1,36,107,start,lin,0.10814862096692522,0.10814862096692522,0.10814862096692522,1,True,,,,,,,,,,,,,13,A,2023-09-11_08h45.40.957,exp3,2022.2.2,
low_opac_i,0.4,1,0.01,3,0.82,3.5,0.01,0,0.01,4,5,Invalid,2,37,108,start,lin,0.2936233819876837,0.2936233819876837,0.2936233819876837,1,True,,,,,,,,,,,,,13,A,2023-09-11_08h45.40.957,exp3,2022.2.2,
low_opac_v,0.4,1,0.01,3,0.82,3.5,0.01,0,0.01,4,5,Valid,0,37,109,start,lin,1,1,1,1,True,,,,,,,,,,,,,13,A,2023-09-11_08h45.40.957,exp3,2022.2.2,
high_opac_v,0.01,1,0.01,3,0.82,3.5,0.01,0,0.01,4,5,Valid,1,37,110,start,lin,0.10589847736220247,0,0.10589847736220247,1,True,,,,,,,,,,,,,13,A,2023-09-11_08h45.40.957,exp3,2022.2.2,
high_opac_v,0.01,1,0.01,3,0.82,3.5,0.01,0,0.01,4,5,Valid,1,38,111,start,lin,0.10376399230341718,0.10376399230341718,0.10376399230341718,0,True,,,,,,,,,,,,,13,A,2023-09-11_08h45.40.957,exp3,2022.2.2,
low_opac_v,0.4,1,0.01,3,0.82,3.5,0.01,0,0.01,4,5,Valid,0,38,112,start,lin,1,1,1,1,True,,,,,,,,,,,,,13,A,2023-09-11_08h45.40.957,exp3,2022.2.2,
low_opac_i,0.4,1,0.01,3,0.82,3.5,0.01,0,0.01,4,5,Invalid,2,38,113,start,lin,0.29123700536176733,0.29123700536176733,0.29123700536176733,1,True,,,,,,,,,,,,,13,A,2023-09-11_08h45.40.957,exp3,2022.2.2,
high_opac_v,0.01,1,0.01,3,0.82,3.5,0.01,0,0.01,4,5,Valid,1,39,114,start,lin,0.11238161984394092,0,0.11238161984394092,1,True,,,,,,,,,,,,,13,A,2023-09-11_08h45.40.957,exp3,2022.2.2,
low_opac_i,0.4,1,0.01,3,0.82,3.5,0.01,0,0.01,4,5,Invalid,2,39,115,start,lin,0.2889256689159452,0,0.2889256689159452,1,True,,,,,,,,,,,,,13,A,2023-09-11_08h45.40.957,exp3,2022.2.2,
low_opac_v,0.4,1,0.01,3,0.82,3.5,0.01,0,0.01,4,5,Valid,0,39,116,start,lin,1,0,1,1,True,,,,,,,,,,,,,13,A,2023-09-11_08h45.40.957,exp3,2022.2.2,
low_opac_i,0.4,1,0.01,3,0.82,3.5,0.01,0,0.01,4,5,Invalid,2,40,117,start,lin,0.2867550174320411,0.2867550174320411,0.2867550174320411,1,True,,,,,,,,,,,,,13,A,2023-09-11_08h45.40.957,exp3,2022.2.2,
low_opac_v,0.4,1,0.01,3,0.82,3.5,0.01,0,0.01,4,5,Valid,0,40,118,start,lin,1,1,1,1,True,,,,,,,,,,,,,13,A,2023-09-11_08h45.40.957,exp3,2022.2.2,
high_opac_v,0.01,1,0.01,3,0.82,3.5,0.01,0,0.01,4,5,Valid,1,40,119,start,lin,0.11020768824010761,0,0.11020768824010761,1,True,,,,,,,,,,,,,13,A,2023-09-11_08h45.40.957,exp3,2022.2.2,
high_opac_v,0.01,1,0.01,3,0.82,3.5,0.01,0,0.01,4,5,Valid,1,41,120,start,lin,0.10812239862177099,0.10812239862177099,0.10812239862177099,1,True,,,,,,,,,,,,,13,A,2023-09-11_08h45.40.957,exp3,2022.2.2,
low_opac_i,0.4,1,0.01,3,0.82,3.5,0.01,0,0.01,4,5,Invalid,2,41,121,start,lin,0.2847014812615252,0.2847014812615252,0.2847014812615252,1,True,,,,,,,,,,,,,13,A,2023-09-11_08h45.40.957,exp3,2022.2.2,
low_opac_v,0.4,1,0.01,3,0.82,3.5,0.01,0,0.01,4,5,Valid,0,41,122,start,lin,1,0,1,1,True,,,,,,,,,,,,,13,A,2023-09-11_08h45.40.957,exp3,2022.2.2,
high_opac_v,0.01,1,0.01,3,0.82,3.5,0.01,0,0.01,4,5,Valid,1,42,123,start,lin,0.1061613008824552,0,0.1061613008824552,1,True,,,,,,,,,,,,,13,A,2023-09-11_08h45.40.957,exp3,2022.2.2,
low_opac_i,0.4,1,0.01,3,0.82,3.5,0.01,0,0.01,4,5,Invalid,2,42,124,start,lin,0.2825571145630939,0.2825571145630939,0.2825571145630939,1,True,,,,,,,,,,,,,13,A,2023-09-11_08h45.40.957,exp3,2022.2.2,
low_opac_v,0.4,1,0.01,3,0.82,3.5,0.01,0,0.01,4,5,Valid,0,42,125,start,lin,1,0,1,1,True,,,,,,,,,,,,,13,A,2023-09-11_08h45.40.957,exp3,2022.2.2,
low_opac_v,0.4,1,0.01,3,0.82,3.5,0.01,0,0.01,4,5,Valid,0,43,126,start,lin,1,1,1,1,True,,,,,,,,,,,,,13,A,2023-09-11_08h45.40.957,exp3,2022.2.2,
high_opac_v,0.01,1,0.01,3,0.82,3.5,0.01,0,0.01,4,5,Valid,1,43,127,start,lin,0.1042929223269493,0.1042929223269493,0.1042929223269493,1,True,,,,,,,,,,,,,13,A,2023-09-11_08h45.40.957,exp3,2022.2.2,
low_opac_i,0.4,1,0.01,3,0.82,3.5,0.01,0,0.01,4,5,Invalid,2,43,128,start,lin,0.2804686949158184,0.2804686949158184,0.2804686949158184,1,True,,,,,,,,,,,,,13,A,2023-09-11_08h45.40.957,exp3,2022.2.2,
high_opac_v,0.01,1,0.01,3,0.82,3.5,0.01,0,0.01,4,5,Valid,1,44,129,start,lin,0.1023295186620679,0,0.1023295186620679,1,True,,,,,,,,,,,,,13,A,2023-09-11_08h45.40.957,exp3,2022.2.2,
low_opac_i,0.4,1,0.01,3,0.82,3.5,0.01,0,0.01,4,5,Invalid,2,44,130,start,lin,0.2784433467984989,0.2784433467984989,0.2784433467984989,1,True,,,,,,,,,,,,,13,A,2023-09-11_08h45.40.957,exp3,2022.2.2,
low_opac_v,0.4,1,0.01,3,0.82,3.5,0.01,0,0.01,4,5,Valid,0,44,131,start,lin,1,0,1,1,True,,,,,,,,,,,,,13,A,2023-09-11_08h45.40.957,exp3,2022.2.2,
low_opac_i,0.4,1,0.01,3,0.82,3.5,0.01,0,0.01,4,5,Invalid,2,45,132,start,lin,0.2765342021028494,0,0.2765342021028494,0,True,,,,,,,,,,,,,13,A,2023-09-11_08h45.40.957,exp3,2022.2.2,
low_opac_v,0.4,1,0.01,3,0.82,3.5,0.01,0,0.01,4,5,Valid,0,45,133,start,lin,1,1,1,1,True,,,,,,,,,,,,,13,A,2023-09-11_08h45.40.957,exp3,2022.2.2,
high_opac_v,0.01,1,0.01,3,0.82,3.5,0.01,0,0.01,4,5,Valid,1,45,134,start,lin,0.10040847537358406,0.10040847537358406,0.10040847537358406,1,True,,,,,,,,,,,,,13,A,2023-09-11_08h45.40.957,exp3,2022.2.2,
low_opac_i,0.4,1,0.01,3,0.82,3.5,0.01,0,0.01,4,5,Invalid,2,46,135,start,lin,0.28447786707177514,0.28447786707177514,0.28447786707177514,1,True,,,,,,,,,,,,,13,A,2023-09-11_08h45.40.957,exp3,2022.2.2,
high_opac_v,0.01,1,0.01,3,0.82,3.5,0.01,0,0.01,4,5,Valid,1,46,136,start,lin,0.09854052209072997,0.09854052209072997,0.09854052209072997,1,True,,,,,,,,,,,,,13,A,2023-09-11_08h45.40.957,exp3,2022.2.2,
low_opac_v,0.4,1,0.01,3,0.82,3.5,0.01,0,0.01,4,5,Valid,0,46,137,start,lin,1,1,1,1,True,,,,,,,,,,,,,13,A,2023-09-11_08h45.40.957,exp3,2022.2.2,
low_opac_i,0.4,1,0.01,3,0.82,3.5,0.01,0,0.01,4,5,Invalid,2,47,138,start,lin,0.28259323298920735,0.28259323298920735,0.28259323298920735,1,True,,,,,,,,,,,,,13,A,2023-09-11_08h45.40.957,exp3,2022.2.2,
high_opac_v,0.01,1,0.01,3,0.82,3.5,0.01,0,0.01,4,5,Valid,1,47,139,start,lin,0.09677613975398279,0,0.09677613975398279,1,True,,,,,,,,,,,,,13,A,2023-09-11_08h45.40.957,exp3,2022.2.2,
low_opac_v,0.4,1,0.01,3,0.82,3.5,0.01,0,0.01,4,5,Valid,0,47,140,start,lin,1,1,1,1,True,,,,,,,,,,,,,13,A,2023-09-11_08h45.40.957,exp3,2022.2.2,
low_opac_i,0.4,1,0.01,3,0.82,3.5,0.01,0,0.01,4,5,Invalid,2,48,141,start,lin,0.28074925673669715,0,0.28074925673669715,1,True,,,,,,,,,,,,,13,A,2023-09-11_08h45.40.957,exp3,2022.2.2,
low_opac_v,0.4,1,0.01,3,0.82,3.5,0.01,0,0.01,4,5,Valid,0,48,142,start,lin,1,1,1,1,True,,,,,,,,,,,,,13,A,2023-09-11_08h45.40.957,exp3,2022.2.2,
high_opac_v,0.01,1,0.01,3,0.82,3.5,0.01,0,0.01,4,5,Valid,1,48,143,start,lin,0.09509282335925665,0,0.09509282335925665,1,True,,,,,,,,,,,,,13,A,2023-09-11_08h45.40.957,exp3,2022.2.2,
low_opac_i,0.4,1,0.01,3,0.82,3.5,0.01,0,0.01,4,5,Invalid,2,49,144,start,lin,0.27894126280666887,0.27894126280666887,0.27894126280666887,1,True,,,,,,,,,,,,,13,A,2023-09-11_08h45.40.957,exp3,2022.2.2,
low_opac_v,0.4,1,0.01,3,0.82,3.5,0.01,0,0.01,4,5,Valid,0,49,145,start,lin,0.9996776173188944,0.9996776173188944,0.9996776173188944,1,True,,,,,,,,,,,,,13,A,2023-09-11_08h45.40.957,exp3,2022.2.2,
high_opac_v,0.01,1,0.01,3,0.82,3.5,0.01,0,0.01,4,5,Valid,1,49,146,start,lin,0.09346902440837468,0.09346902440837468,0.09346902440837468,0,True,,,,,,,,,,,,,13,A,2023-09-11_08h45.40.957,exp3,2022.2.2,
high_opac_v,0.01,1,0.01,3,0.82,3.5,0.01,0,0.01,4,5,Valid,1,50,147,start,lin,0.10017248977355632,0.10017248977355632,0.10017248977355632,0,True,,,,,,,,,,,,,13,A,2023-09-11_08h45.40.957,exp3,2022.2.2,
low_opac_i,0.4,1,0.01,3,0.82,3.5,0.01,0,0.01,4,5,Invalid,2,50,148,start,lin,0.27722808981733243,0,0.27722808981733243,1,True,,,,,,,,,,,,,13,A,2023-09-11_08h45.40.957,exp3,2022.2.2,
low_opac_v,0.4,1,0.01,3,0.82,3.5,0.01,0,0.01,4,5,Valid,0,50,149,start,lin,0.9980099685433336,0.9980099685433336,0.9980099685433336,1,True,,,,,,,,,,,,,13,A,2023-09-11_08h45.40.957,exp3,2022.2.2,
high_opac_v,0.01,1,0.01,3,0.82,3.5,0.01,0,0.01,4,5,Valid,1,51,150,start,lin,0.10682434256699098,0.10682434256699098,0.10682434256699098,1,True,,,,,,,,,,,,,13,A,2023-09-11_08h45.40.957,exp3,2022.2.2,
low_opac_v,0.4,1,0.01,3,0.82,3.5,0.01,0,0.01,4,5,Valid,0,51,151,start,lin,0.9964259485489885,0,0.9964259485489885,1,True,,,,,,,,,,,,,13,A,2023-09-11_08h45.40.957,exp3,2022.2.2,
low_opac_i,0.4,1,0.01,3,0.82,3.5,0.01,0,0.01,4,5,Invalid,2,51,152,start,lin,0.27559573592204484,0,0.27559573592204484,1,True,,,,,,,,,,,,,13,A,2023-09-11_08h45.40.957,exp3,2022.2.2,
high_opac_v,0.01,1,0.01,3,0.82,3.5,0.01,0,0.01,4,5,Valid,1,52,153,start,lin,0.10529527225832314,0.10529527225832314,0.10529527225832314,1,True,,,,,,,,,,,,,13,A,2023-09-11_08h45.40.957,exp3,2022.2.2,
low_opac_v,0.4,1,0.01,3,0.82,3.5,0.01,0,0.01,4,5,Valid,0,52,154,start,lin,0.9949060167423689,0,0.9949060167423689,1,True,,,,,,,,,,,,,13,A,2023-09-11_08h45.40.957,exp3,2022.2.2,
low_opac_i,0.4,1,0.01,3,0.82,3.5,0.01,0,0.01,4,5,Invalid,2,52,155,start,lin,0.27402380126551695,0.27402380126551695,0.27402380126551695,1,True,,,,,,,,,,,,,13,A,2023-09-11_08h45.40.957,exp3,2022.2.2,
high_opac_v,0.01,1,0.01,3,0.82,3.5,0.01,0,0.01,4,5,Valid,1,53,156,start,lin,0.10381873419274694,0.10381873419274694,0.10381873419274694,1,True,,,,,,,,,,,,,13,A,2023-09-11_08h45.40.957,exp3,2022.2.2,
low_opac_v,0.4,1,0.01,3,0.82,3.5,0.01,0,0.01,4,5,Valid,0,53,157,start,lin,0.9933016881770516,0,0.9933016881770516,1,True,,,,,,,,,,,,,13,A,2023-09-11_08h45.40.957,exp3,2022.2.2,
low_opac_i,0.4,1,0.01,3,0.82,3.5,0.01,0,0.01,4,5,Invalid,2,53,158,start,lin,0.27235650368211944,0,0.27235650368211944,0,True,,,,,,,,,,,,,13,A,2023-09-11_08h45.40.957,exp3,2022.2.2,
high_opac_v,0.01,1,0.01,3,0.82,3.5,0.01,0,0.01,4,5,Valid,1,54,159,start,lin,0.10224899563243033,0.10224899563243033,0.10224899563243033,0,True,,,,,,,,,,,,,13,A,2023-09-11_08h45.40.957,exp3,2022.2.2,
low_opac_v,0.4,1,0.01,3,0.82,3.5,0.01,0,0.01,4,5,Valid,0,54,160,start,lin,0.9917292651895467,0.9917292651895467,0.9917292651895467,1,True,,,,,,,,,,,,,13,A,2023-09-11_08h45.40.957,exp3,2022.2.2,
low_opac_i,0.4,1,0.01,3,0.82,3.5,0.01,0,0.01,4,5,Invalid,2,54,161,start,lin,0.27873104422739164,0,0.27873104422739164,0,True,,,,,,,,,,,,,13,A,2023-09-11_08h45.40.957,exp3,2022.2.2,
high_opac_v,0.01,1,0.01,3,0.82,3.5,0.01,0,0.01,4,5,Valid,1,55,162,start,lin,0.10825986394371356,0.10825986394371356,0.10825986394371356,1,True,,,,,,,,,,,,,13,A,2023-09-11_08h45.40.957,exp3,2022.2.2,
low_opac_i,0.4,1,0.01,3,0.82,3.5,0.01,0,0.01,4,5,Invalid,2,55,163,start,lin,0.2851638763706458,0,0.2851638763706458,0,True,,,,,,,,,,,,,13,A,2023-09-11_08h45.40.957,exp3,2022.2.2,
low_opac_v,0.4,1,0.01,3,0.82,3.5,0.01,0,0.01,4,5,Valid,0,55,164,start,lin,0.9901712587954532,0.9901712587954532,0.9901712587954532,1,True,,,,,,,,,,,,,13,A,2023-09-11_08h45.40.957,exp3,2022.2.2,
low_opac_i,0.4,1,0.01,3,0.82,3.5,0.01,0,0.01,4,5,Invalid,2,56,165,start,lin,0.2916048997093216,0,0.2916048997093216,1,True,,,,,,,,,,,,,13,A,2023-09-11_08h45.40.957,exp3,2022.2.2,
low_opac_v,0.4,1,0.01,3,0.82,3.5,0.01,0,0.01,4,5,Valid,0,56,166,start,lin,0.9886429426227937,0,0.9886429426227937,1,True,,,,,,,,,,,,,13,A,2023-09-11_08h45.40.957,exp3,2022.2.2,
high_opac_v,0.01,1,0.01,3,0.82,3.5,0.01,0,0.01,4,5,Valid,1,56,167,start,lin,0.10681515639729833,0,0.10681515639729833,1,True,,,,,,,,,,,,,13,A,2023-09-11_08h45.40.957,exp3,2022.2.2,
low_opac_i,0.4,1,0.01,3,0.82,3.5,0.01,0,0.01,4,5,Invalid,2,57,168,start,lin,0.29007960136869054,0,0.29007960136869054,1,True,,,,,,,,,,,,,13,A,2023-09-11_08h45.40.957,exp3,2022.2.2,
low_opac_v,0.4,1,0.01,3,0.82,3.5,0.01,0,0.01,4,5,Valid,0,57,169,start,lin,0.9871895677395737,0.9871895677395737,0.9871895677395737,1,True,,,,,,,,,,,,,13,A,2023-09-11_08h45.40.957,exp3,2022.2.2,
high_opac_v,0.01,1,0.01,3,0.82,3.5,0.01,0,0.01,4,5,Valid,1,57,170,start,lin,0.10542966155360561,0.10542966155360561,0.10542966155360561,1,True,,,,,,,,,,,,,13,A,2023-09-11_08h45.40.957,exp3,2022.2.2,
low_opac_v,0.4,1,0.01,3,0.82,3.5,0.01,0,0.01,4,5,Valid,0,58,171,start,lin,0.9857961128961312,0,0.9857961128961312,1,True,,,,,,,,,,,,,13,A,2023-09-11_08h45.40.957,exp3,2022.2.2,
low_opac_i,0.4,1,0.01,3,0.82,3.5,0.01,0,0.01,4,5,Invalid,2,58,172,start,lin,0.28859659060014237,0,0.28859659060014237,1,True,,,,,,,,,,,,,13,A,2023-09-11_08h45.40.957,exp3,2022.2.2,
high_opac_v,0.01,1,0.01,3,0.82,3.5,0.01,0,0.01,4,5,Valid,1,58,173,start,lin,0.10408889930011972,0.10408889930011972,0.10408889930011972,0,True,,,,,,,,,,,,,13,A,2023-09-11_08h45.40.957,exp3,2022.2.2,
high_opac_v,0.01,1,0.01,3,0.82,3.5,0.01,0,0.01,4,5,Valid,1,59,174,start,lin,0.10962834160407381,0,0.10962834160407381,1,True,,,,,,,,,,,,,13,A,2023-09-11_08h45.40.957,exp3,2022.2.2,
low_opac_v,0.4,1,0.01,3,0.82,3.5,0.01,0,0.01,4,5,Valid,0,59,175,start,lin,0.9844481193261547,0,0.9844481193261547,1,True,,,,,,,,,,,,,13,A,2023-09-11_08h45.40.957,exp3,2022.2.2,
low_opac_i,0.4,1,0.01,3,0.82,3.5,0.01,0,0.01,4,5,Invalid,2,59,176,start,lin,0.2871885160495758,0,0.2871885160495758,1,True,,,,,,,,,,,,,13,A,2023-09-11_08h45.40.957,exp3,2022.2.2,
high_opac_v,0.01,1,0.01,3,0.82,3.5,0.01,0,0.01,4,5,Valid,1,60,177,start,lin,0.10824239396035518,0.10824239396035518,0.10824239396035518,1,True,,,,,,,,,,,,,13,A,2023-09-11_08h45.40.957,exp3,2022.2.2,
low_opac_v,0.4,1,0.01,3,0.82,3.5,0.01,0,0.01,4,5,Valid,0,60,178,start,lin,0.9830142078526695,0.9830142078526695,0.9830142078526695,1,True,,,,,,,,,,,,,13,A,2023-09-11_08h45.40.957,exp3,2022.2.2,
low_opac_i,0.4,1,0.01,3,0.82,3.5,0.01,0,0.01,4,5,Invalid,2,60,179,start,lin,0.2858397329412768,0.2858397329412768,0.2858397329412768,1,True,,,,,,,,,,,,,13,A,2023-09-11_08h45.40.957,exp3,2022.2.2,
low_opac_v,0.4,1,0.01,3,0.82,3.5,0.01,0,0.01,4,5,Valid,0,61,180,start,lin,0.981600376422472,0.981600376422472,0.981600376422472,1,True,,,,,,,,,,,,,13,A,2023-09-11_08h45.40.957,exp3,2022.2.2,
low_opac_i,0.4,1,0.01,3,0.82,3.5,0.01,0,0.01,4,5,Invalid,2,61,181,start,lin,0.2845364312644879,0.2845364312644879,0.2845364312644879,1,True,,,,,,,,,,,,,13,A,2023-09-11_08h45.40.957,exp3,2022.2.2,
high_opac_v,0.01,1,0.01,3,0.82,3.5,0.01,0,0.01,4,5,Valid,1,61,182,start,lin,0.10692179650105638,0.10692179650105638,0.10692179650105638,1,True,,,,,,,,,,,,,13,A,2023-09-11_08h45.40.957,exp3,2022.2.2,
high_opac_v,0.01,1,0.01,3,0.82,3.5,0.01,0,0.01,4,5,Valid,1,62,183,start,lin,0.10565292687739536,0,0.10565292687739536,1,True,,,,,,,,,,,,,13,A,2023-09-11_08h45.40.957,exp3,2022.2.2,
low_opac_i,0.4,1,0.01,3,0.82,3.5,0.01,0,0.01,4,5,Invalid,2,62,184,start,lin,0.28315246088940244,0.28315246088940244,0.28315246088940244,1,True,,,,,,,,,,,,,13,A,2023-09-11_08h45.40.957,exp3,2022.2.2,
low_opac_v,0.4,1,0.01,3,0.82,3.5,0.01,0,0.01,4,5,Valid,0,62,185,start,lin,0.980192828397402,0,0.980192828397402,1,True,,,,,,,,,,,,,13,A,2023-09-11_08h45.40.957,exp3,2022.2.2,
low_opac_i,0.4,1,0.01,3,0.82,3.5,0.01,0,0.01,4,5,Invalid,2,63,186,start,lin,0.28179034862591484,0,0.28179034862591484,0,True,,,,,,,,,,,,,13,A,2023-09-11_08h45.40.957,exp3,2022.2.2,
low_opac_v,0.4,1,0.01,3,0.82,3.5,0.01,0,0.01,4,5,Valid,0,63,187,start,lin,0.9788004628458974,0,0.9788004628458974,1,True,,,,,,,,,,,,,13,A,2023-09-11_08h45.40.957,exp3,2022.2.2,
high_opac_v,0.01,1,0.01,3,0.82,3.5,0.01,0,0.01,4,5,Valid,1,63,188,start,lin,0.10442369548593723,0,0.10442369548593723,1,True,,,,,,,,,,,,,13,A,2023-09-11_08h45.40.957,exp3,2022.2.2,
low_opac_i,0.4,1,0.01,3,0.82,3.5,0.01,0,0.01,4,5,Invalid,2,64,189,start,lin,0.28704394743597755,0.28704394743597755,0.28704394743597755,1,True,,,,,,,,,,,,,13,A,2023-09-11_08h45.40.957,exp3,2022.2.2,
low_opac_v,0.4,1,0.01,3,0.82,3.5,0.01,0,0.01,4,5,Valid,0,64,190,start,lin,0.9774716820898128,0.9774716820898128,0.9774716820898128,1,True,,,,,,,,,,,,,13,A,2023-09-11_08h45.40.957,exp3,2022.2.2,
high_opac_v,0.01,1,0.01,3,0.82,3.5,0.01,0,0.01,4,5,Valid,1,64,191,start,lin,0.10311543621293029,0,0.10311543621293029,1,True,,,,,,,,,,,,,13,A,2023-09-11_08h45.40.957,exp3,2022.2.2,
low_opac_v,0.4,1,0.01,3,0.82,3.5,0.01,0,0.01,4,5,Valid,0,65,192,start,lin,0.9761954799490529,0,0.9761954799490529,1,True,,,,,,,,,,,,,13,A,2023-09-11_08h45.40.957,exp3,2022.2.2,
high_opac_v,0.01,1,0.01,3,0.82,3.5,0.01,0,0.01,4,5,Valid,1,65,193,start,lin,0.10182577898192284,0.10182577898192284,0.10182577898192284,1,True,,,,,,,,,,,,,13,A,2023-09-11_08h45.40.957,exp3,2022.2.2,
low_opac_i,0.4,1,0.01,3,0.82,3.5,0.01,0,0.01,4,5,Invalid,2,65,194,start,lin,0.28581049886660614,0.28581049886660614,0.28581049886660614,1,True,,,,,,,,,,,,,13,A,2023-09-11_08h45.40.957,exp3,2022.2.2,
low_opac_i,0.4,1,0.01,3,0.82,3.5,0.01,0,0.01,4,5,Invalid,2,66,195,start,lin,0.284615699737575,0.284615699737575,0.284615699737575,1,True,,,,,,,,,,,,,13,A,2023-09-11_08h45.40.957,exp3,2022.2.2,
high_opac_v,0.01,1,0.01,3,0.82,3.5,0.01,0,0.01,4,5,Valid,1,66,196,start,lin,0.10054311996265204,0,0.10054311996265204,1,True,,,,,,,,,,,,,13,A,2023-09-11_08h45.40.957,exp3,2022.2.2,
low_opac_v,0.4,1,0.01,3,0.82,3.5,0.01,0,0.01,4,5,Valid,0,66,197,start,lin,0.9749598501719456,0.9749598501719456,0.9749598501719456,1,True,,,,,,,,,,,,,13,A,2023-09-11_08h45.40.957,exp3,2022.2.2,
low_opac_v,0.4,1,0.01,3,0.82,3.5,0.01,0,0.01,4,5,Valid,0,67,198,start,lin,0.9736458088496326,0,0.9736458088496326,1,True,,,,,,,,,,,,,13,A,2023-09-11_08h45.40.957,exp3,2022.2.2,
low_opac_i,0.4,1,0.01,3,0.82,3.5,0.01,0,0.01,4,5,Invalid,2,67,199,start,lin,0.28334473252206205,0.28334473252206205,0.28334473252206205,1,True,,,,,,,,,,,,,13,A,2023-09-11_08h45.40.957,exp3,2022.2.2,
high_opac_v,0.01,1,0.01,3,0.82,3.5,0.01,0,0.01,4,5,Valid,1,67,200,start,lin,0.0992682034769274,0.0992682034769274,0.0992682034769274,1,True,,,,,,,,,,,,,13,A,2023-09-11_08h45.40.957,exp3,2022.2.2,
low_opac_i,0.4,1,0.01,3,0.82,3.5,0.01,0,0.01,4,5,Invalid,2,68,201,start,lin,0.28209270664403535,0.28209270664403535,0.28209270664403535,1,True,,,,,,,,,,,,,13,A,2023-09-11_08h45.40.957,exp3,2022.2.2,
low_opac_v,0.4,1,0.01,3,0.82,3.5,0.01,0,0.01,4,5,Valid,0,68,202,start,lin,0.9723514483009622,0,0.9723514483009622,1,True,,,,,,,,,,,,,13,A,2023-09-11_08h45.40.957,exp3,2022.2.2,
high_opac_v,0.01,1,0.01,3,0.82,3.5,0.01,0,0.01,4,5,Valid,1,68,203,start,lin,0.09804861695286905,0.09804861695286905,0.09804861695286905,0,True,,,,,,,,,,,,,13,A,2023-09-11_08h45.40.957,exp3,2022.2.2,
low_opac_v,0.4,1,0.01,3,0.82,3.5,0.01,0,0.01,4,5,Valid,0,69,204,start,lin,0.9710650797010905,0.9710650797010905,0.9710650797010905,1,True,,,,,,,,,,,,,13,A,2023-09-11_08h45.40.957,exp3,2022.2.2,
low_opac_i,0.4,1,0.01,3,0.82,3.5,0.01,0,0.01,4,5,Invalid,2,69,205,start,lin,0.2808486232060546,0.2808486232060546,0.2808486232060546,0,True,,,,,,,,,,,,,13,A,2023-09-11_08h45.40.957,exp3,2022.2.2,
high_opac_v,0.01,1,0.01,3,0.82,3.5,0.01,0,0.01,4,5,Valid,1,69,206,start,lin,0.10310174927010692,0,0.10310174927010692,1,True,,,,,,,,,,,,,13,A,2023-09-11_08h45.40.957,exp3,2022.2.2,
low_opac_v,0.4,1,0.01,3,0.82,3.5,0.01,0,0.01,4,5,Valid,0,70,207,start,lin,0.96977392533353,0.96977392533353,0.96977392533353,1,True,,,,,,,,,,,,,13,A,2023-09-11_08h45.40.957,exp3,2022.2.2,
high_opac_v,0.01,1,0.01,3,0.82,3.5,0.01,0,0.01,4,5,Valid,1,70,208,start,lin,0.10191093949933626,0,0.10191093949933626,1,True,,,,,,,,,,,,,13,A,2023-09-11_08h45.40.957,exp3,2022.2.2,
low_opac_i,0.4,1,0.01,3,0.82,3.5,0.01,0,0.01,4,5,Invalid,2,70,209,start,lin,0.285687783396003,0.285687783396003,0.285687783396003,1,True,,,,,,,,,,,,,13,A,2023-09-11_08h45.40.957,exp3,2022.2.2,
high_opac_v,0.01,1,0.01,3,0.82,3.5,0.01,0,0.01,4,5,Valid,1,71,210,start,lin,0.10072495318711028,0,0.10072495318711028,1,True,,,,,,,,,,,,,13,A,2023-09-11_08h45.40.957,exp3,2022.2.2,
low_opac_v,0.4,1,0.01,3,0.82,3.5,0.01,0,0.01,4,5,Valid,0,71,211,start,lin,0.9685074169265411,0.9685074169265411,0.9685074169265411,1,True,,,,,,,,,,,,,13,A,2023-09-11_08h45.40.957,exp3,2022.2.2,
low_opac_i,0.4,1,0.01,3,0.82,3.5,0.01,0,0.01,4,5,Invalid,2,71,212,start,lin,0.28458648208604903,0.28458648208604903,0.28458648208604903,1,True,,,,,,,,,,,,,13,A,2023-09-11_08h45.40.957,exp3,2022.2.2,
high_opac_v,0.01,1,0.01,3,0.82,3.5,0.01,0,0.01,4,5,Valid,1,72,213,start,lin,0.09953890005004103,0,0.09953890005004103,1,True,,,,,,,,,,,,,13,A,2023-09-11_08h45.40.957,exp3,2022.2.2,
low_opac_v,0.4,1,0.01,3,0.82,3.5,0.01,0,0.01,4,5,Valid,0,72,214,start,lin,0.9672950405959728,0.9672950405959728,0.9672950405959728,1,True,,,,,,,,,,,,,13,A,2023-09-11_08h45.40.957,exp3,2022.2.2,
low_opac_i,0.4,1,0.01,3,0.82,3.5,0.01,0,0.01,4,5,Invalid,2,72,215,start,lin,0.2834124043152663,0.2834124043152663,0.2834124043152663,1,True,,,,,,,,,,,,,13,A,2023-09-11_08h45.40.957,exp3,2022.2.2,
high_opac_v,0.01,1,0.01,3,0.82,3.5,0.01,0,0.01,4,5,Valid,1,73,216,start,lin,0.09839650369805437,0,0.09839650369805437,0,True,,,,,,,,,,,,,13,A,2023-09-11_08h45.40.957,exp3,2022.2.2,
low_opac_i,0.4,1,0.01,3,0.82,3.5,0.01,0,0.01,4,5,Invalid,2,73,217,start,lin,0.2822541872062606,0,0.2822541872062606,1,True,,,,,,,,,,,,,13,A,2023-09-11_08h45.40.957,exp3,2022.2.2,
low_opac_v,0.4,1,0.01,3,0.82,3.5,0.01,0,0.01,4,5,Valid,0,73,218,start,lin,0.966125860831428,0,0.966125860831428,1,True,,,,,,,,,,,,,13,A,2023-09-11_08h45.40.957,exp3,2022.2.2,
low_opac_v,0.4,1,0.01,3,0.82,3.5,0.01,0,0.01,4,5,Valid,0,74,219,start,lin,0.9649900110356161,0.9649900110356161,0.9649900110356161,1,True,,,,,,,,,,,,,13,A,2023-09-11_08h45.40.957,exp3,2022.2.2,
high_opac_v,0.01,1,0.01,3,0.82,3.5,0.01,0,0.01,4,5,Valid,1,74,220,start,lin,0.10309104678487811,0.10309104678487811,0.10309104678487811,1,True,,,,,,,,,,,,,13,A,2023-09-11_08h45.40.957,exp3,2022.2.2,
low_opac_i,0.4,1,0.01,3,0.82,3.5,0.01,0,0.01,4,5,Invalid,2,74,221,start,lin,0.28110243214264696,0,0.28110243214264696,1,True,,,,,,,,,,,,,13,A,2023-09-11_08h45.40.957,exp3,2022.2.2,
high_opac_v,0.01,1,0.01,3,0.82,3.5,0.01,0,0.01,4,5,Valid,1,75,222,start,lin,0.10198516609728708,0.10198516609728708,0.10198516609728708,0,True,,,,,,,,,,,,,13,A,2023-09-11_08h45.40.957,exp3,2022.2.2,
low_opac_v,0.4,1,0.01,3,0.82,3.5,0.01,0,0.01,4,5,Valid,0,75,223,start,lin,0.9637785356490779,0.9637785356490779,0.9637785356490779,1,True,,,,,,,,,,,,,13,A,2023-09-11_08h45.40.957,exp3,2022.2.2,
low_opac_i,0.4,1,0.01,3,0.82,3.5,0.01,0,0.01,4,5,Invalid,2,75,224,start,lin,0.27994816331997735,0,0.27994816331997735,0,True,,,,,,,,,,,,,13,A,2023-09-11_08h45.40.957,exp3,2022.2.2,
,,,,,,,,,,,,,,,,,,,,,,,0,-1158,Valid,signal,0,1,963.4233313000004,1,2.0,11.637927399977343,1,True,13,A,2023-09-11_08h45.40.957,exp3,2022.2.2,
,,,,,,,,,,,,,,,,,,,,,,,0,-1716,Invalid,signal,0,1,972.0155331999995,1,4.0,4.18024470002274,1,True,13,A,2023-09-11_08h45.40.957,exp3,2022.2.2,
,,,,,,,,,,,,,,,,,,,,,,,0,2274,Invalid,noise,0,2,979.0723159999761,1,1.0,6.114118199999211,1,True,13,A,2023-09-11_08h45.40.957,exp3,2022.2.2,
,,,,,,,,,,,,,,,,,,,,,,,0,-2274,Valid,signal,0,1,984.3365217999963,1,4.0,4.063923899986548,1,True,13,A,2023-09-11_08h45.40.957,exp3,2022.2.2,
,,,,,,,,,,,,,,,,,,,,,,,0,1158,Valid,noise,0,2,989.152408199996,1,4.0,3.529308299999684,1,True,13,A,2023-09-11_08h45.40.957,exp3,2022.2.2,
,,,,,,,,,,,,,,,,,,,,,,,0,-1158,Valid,noise,0,2,994.1122369999939,1,3.0,4.080128300003707,1,True,13,A,2023-09-11_08h45.40.957,exp3,2022.2.2,
,,,,,,,,,,,,,,,,,,,,,,,0,2274,Valid,noise,0,2,999.8402399999904,1,3.0,4.280149700003676,1,True,13,A,2023-09-11_08h45.40.957,exp3,2022.2.2,
,,,,,,,,,,,,,,,,,,,,,,,0,2274,Valid,noise,0,2,1004.1760198999837,1,4.0,3.395727299997816,1,True,13,A,2023-09-11_08h45.40.957,exp3,2022.2.2,
,,,,,,,,,,,,,,,,,,,,,,,0,557,Valid,signal,0,1,1008.1281116999744,1,4.0,2.7797127999947406,1,True,13,A,2023-09-11_08h45.40.957,exp3,2022.2.2,
,,,,,,,,,,,,,,,,,,,,,,,0,-2274,Valid,signal,0,1,1012.0162397999957,1,4.0,2.9126742999942508,1,True,13,A,2023-09-11_08h45.40.957,exp3,2022.2.2,
,,,,,,,,,,,,,,,,,,,,,,,0,1158,Valid,noise,0,2,1015.9359121999878,1,4.0,2.913248400000157,1,True,13,A,2023-09-11_08h45.40.957,exp3,2022.2.2,
,,,,,,,,,,,,,,,,,,,,,,,0,1158,Invalid,noise,0,1,1020.687967899983,0,2.0,4.030244499997934,1,True,13,A,2023-09-11_08h45.40.957,exp3,2022.2.2,
,,,,,,,,,,,,,,,,,,,,,,,0,1716,Valid,noise,0,2,1025.18424219999,1,3.0,4.463666900002863,1,True,13,A,2023-09-11_08h45.40.957,exp3,2022.2.2,
,,,,,,,,,,,,,,,,,,,,,,,0,2274,Valid,noise,0,2,1030.528217199986,1,3.0,6.980886799981818,1,True,13,A,2023-09-11_08h45.40.957,exp3,2022.2.2,
,,,,,,,,,,,,,,,,,,,,,,,0,-1716,Valid,noise,0,1,1039.1033759999846,0,3.0,4.446955399995204,1,True,13,A,2023-09-11_08h45.40.957,exp3,2022.2.2,
,,,,,,,,,,,,,,,,,,,,,,,0,557,Valid,noise,0,2,1044.0320393999864,1,1.0,4.646508699981496,1,True,13,A,2023-09-11_08h45.40.957,exp3,2022.2.2,
,,,,,,,,,,,,,,,,,,,,,,,0,-1716,Valid,noise,0,2,1049.6000215999957,1,2.0,4.71388319999096,1,True,13,A,2023-09-11_08h45.40.957,exp3,2022.2.2,
,,,,,,,,,,,,,,,,,,,,,,,0,2274,Valid,signal,0,2,1056.1435566,0,2.0,4.129645500011975,1,True,13,A,2023-09-11_08h45.40.957,exp3,2022.2.2,
,,,,,,,,,,,,,,,,,,,,,,,0,1158,Valid,noise,0,2,1060.6240405999997,1,3.0,4.496765499992762,1,True,13,A,2023-09-11_08h45.40.957,exp3,2022.2.2,
,,,,,,,,,,,,,,,,,,,,,,,0,-557,Valid,signal,0,1,1065.8241581999755,1,4.0,3.213245899998583,1,True,13,A,2023-09-11_08h45.40.957,exp3,2022.2.2,
,,,,,,,,,,,,,,,,,,,,,,,0,-1716,Valid,signal,0,1,1070.1436309999845,1,4.0,2.7629892000113614,1,True,13,A,2023-09-11_08h45.40.957,exp3,2022.2.2,
,,,,,,,,,,,,,,,,,,,,,,,0,1158,Valid,noise,0,2,1073.695578599989,1,4.0,3.0125771000166424,1,True,13,A,2023-09-11_08h45.40.957,exp3,2022.2.2,
,,,,,,,,,,,,,,,,,,,,,,,0,-2274,Valid,signal,0,1,1077.9523367999936,1,4.0,3.0967162999731954,1,True,13,A,2023-09-11_08h45.40.957,exp3,2022.2.2,
,,,,,,,,,,,,,,,,,,,,,,,0,1158,Valid,signal,0,1,1081.6644895999925,1,4.0,2.7459768999833614,1,True,13,A,2023-09-11_08h45.40.957,exp3,2022.2.2,
,,,,,,,,,,,,,,,,,,,,,,,0,-557,Invalid,signal,0,2,1086.9113792999997,0,1.0,5.531050599995069,1,True,13,A,2023-09-11_08h45.40.957,exp3,2022.2.2,
,,,,,,,,,,,,,,,,,,,,,,,0,-557,Valid,noise,0,2,1095.039244899992,1,4.0,7.26414179999847,2,True,13,A,2023-09-11_08h45.40.957,exp3,2022.2.2,
,,,,,,,,,,,,,,,,,,,,,,,0,557,Invalid,noise,0,2,1101.4241347999778,1,4.0,4.030528100003721,1,True,13,A,2023-09-11_08h45.40.957,exp3,2022.2.2,
,,,,,,,,,,,,,,,,,,,,,,,0,-557,Valid,noise,0,2,1105.9192909999983,1,4.0,3.512684300018009,1,True,13,A,2023-09-11_08h45.40.957,exp3,2022.2.2,
,,,,,,,,,,,,,,,,,,,,,,,0,1716,Valid,noise,0,2,1109.9197373999923,1,4.0,3.7302113999903668,1,True,13,A,2023-09-11_08h45.40.957,exp3,2022.2.2,
,,,,,,,,,,,,,,,,,,,,,,,0,-1158,Valid,noise,0,2,1115.80805349999,1,3.0,3.7632923000201117,1,True,13,A,2023-09-11_08h45.40.957,exp3,2022.2.2,
,,,,,,,,,,,,,,,,,,,,,,,0,1158,Valid,signal,0,1,1119.552500299993,1,4.0,3.6461568999802694,1,True,13,A,2023-09-11_08h45.40.957,exp3,2022.2.2,
,,,,,,,,,,,,,,,,,,,,,,,0,1716,Valid,noise,0,2,1124.2885822999815,1,4.0,3.363350800005719,1,True,13,A,2023-09-11_08h45.40.957,exp3,2022.2.2,
,,,,,,,,,,,,,,,,,,,,,,,0,-1716,Valid,signal,0,1,1131.2320722999866,1,4.0,7.981994700006908,1,True,13,A,2023-09-11_08h45.40.957,exp3,2022.2.2,
,,,,,,,,,,,,,,,,,,,,,,,0,-557,Valid,noise,0,2,1137.472537900001,1,4.0,4.713240700017195,1,True,13,A,2023-09-11_08h45.40.957,exp3,2022.2.2,
,,,,,,,,,,,,,,,,,,,,,,,0,-1158,Valid,signal,0,1,1143.5355461,1,4.0,3.2630630000203382,1,True,13,A,2023-09-11_08h45.40.957,exp3,2022.2.2,
,,,,,,,,,,,,,,,,,,,,,,,0,1158,Valid,noise,0,2,1147.3594196999911,1,3.0,4.230215199990198,1,True,13,A,2023-09-11_08h45.40.957,exp3,2022.2.2,
,,,,,,,,,,,,,,,,,,,,,,,0,-1716,Valid,noise,0,2,1152.6238336999959,1,2.0,3.7131052000040654,1,True,13,A,2023-09-11_08h45.40.957,exp3,2022.2.2,
,,,,,,,,,,,,,,,,,,,,,,,0,557,Valid,signal,0,1,1157.1999988999742,1,4.0,3.2133596999919973,1,True,13,A,2023-09-11_08h45.40.957,exp3,2022.2.2,
,,,,,,,,,,,,,,,,,,,,,,,0,-1158,Valid,noise,0,2,1162.5436802999757,1,2.0,4.26317179997568,1,True,13,A,2023-09-11_08h45.40.957,exp3,2022.2.2,
,,,,,,,,,,,,,,,,,,,,,,,0,-557,Valid,noise,0,2,1168.2401206999784,1,2.0,4.813823300006334,1,True,13,A,2023-09-11_08h45.40.957,exp3,2022.2.2,
,,,,,,,,,,,,,,,,,,,,,,,0,-1158,Invalid,signal,0,1,1172.8799762999988,1,3.0,3.2460537999868393,1,True,13,A,2023-09-11_08h45.40.957,exp3,2022.2.2,
,,,,,,,,,,,,,,,,,,,,,,,0,-1716,Valid,signal,0,1,1176.960116399976,1,4.0,3.7629252999904566,1,True,13,A,2023-09-11_08h45.40.957,exp3,2022.2.2,
,,,,,,,,,,,,,,,,,,,,,,,0,557,Valid,signal,0,1,1181.903456399974,1,4.0,3.2970792000123765,1,True,13,A,2023-09-11_08h45.40.957,exp3,2022.2.2,
,,,,,,,,,,,,,,,,,,,,,,,0,2274,Valid,signal,0,2,1187.711683899979,0,4.0,5.39713440000196,1,True,13,A,2023-09-11_08h45.40.957,exp3,2022.2.2,
,,,,,,,,,,,,,,,,,,,,,,,0,2274,Valid,noise,0,2,1192.6879315999977,1,2.0,3.879779500013683,1,True,13,A,2023-09-11_08h45.40.957,exp3,2022.2.2,
,,,,,,,,,,,,,,,,,,,,,,,0,-2274,Valid,noise,0,2,1197.4566038999765,1,3.0,4.13008770000306,1,True,13,A,2023-09-11_08h45.40.957,exp3,2022.2.2,
,,,,,,,,,,,,,,,,,,,,,,,0,-1158,Valid,signal,0,1,1204.55988299998,1,4.0,5.513950099993963,2,True,13,A,2023-09-11_08h45.40.957,exp3,2022.2.2,
,,,,,,,,,,,,,,,,,,,,,,,0,-1158,Valid,noise,0,2,1209.0076807999867,1,2.0,3.6465833999973256,1,True,13,A,2023-09-11_08h45.40.957,exp3,2022.2.2,
,,,,,,,,,,,,,,,,,,,,,,,0,-557,Valid,noise,0,2,1213.7924187999743,1,4.0,3.7465843000099994,1,True,13,A,2023-09-11_08h45.40.957,exp3,2022.2.2,
,,,,,,,,,,,,,,,,,,,,,,,0,-557,Invalid,noise,0,2,1219.3593341999804,1,3.0,3.6465889000101015,1,True,13,A,2023-09-11_08h45.40.957,exp3,2022.2.2,
,,,,,,,,,,,,,,,,,,,,,,,0,557,Invalid,signal,0,1,1223.071621799987,1,3.0,3.3298439999925904,1,True,13,A,2023-09-11_08h45.40.957,exp3,2022.2.2,
,,,,,,,,,,,,,,,,,,,,,,,0,1716,Valid,signal,0,1,1227.2632079999894,1,4.0,3.0961745999811683,1,True,13,A,2023-09-11_08h45.40.957,exp3,2022.2.2,
,,,,,,,,,,,,,,,,,,,,,,,0,-1716,Invalid,noise,0,2,1231.8078523000004,1,3.0,3.2467972000013106,1,True,13,A,2023-09-11_08h45.40.957,exp3,2022.2.2,
,,,,,,,,,,,,,,,,,,,,,,,0,-1716,Valid,noise,0,2,1237.7113353000022,1,1.0,5.413805999996839,1,True,13,A,2023-09-11_08h45.40.957,exp3,2022.2.2,
,,,,,,,,,,,,,,,,,,,,,,,0,2274,Valid,noise,0,2,1242.575371999992,1,2.0,3.3634473999845795,1,True,13,A,2023-09-11_08h45.40.957,exp3,2022.2.2,
,,,,,,,,,,,,,,,,,,,,,,,0,-2274,Invalid,signal,0,1,1247.168299699988,1,2.0,3.5970183000026736,1,True,13,A,2023-09-11_08h45.40.957,exp3,2022.2.2,
,,,,,,,,,,,,,,,,,,,,,,,0,1716,Valid,noise,0,2,1251.9357907999947,1,2.0,4.879582900000969,1,True,13,A,2023-09-11_08h45.40.957,exp3,2022.2.2,
,,,,,,,,,,,,,,,,,,,,,,,0,2274,Invalid,signal,0,1,1257.359581799974,1,4.0,3.963278699986404,1,True,13,A,2023-09-11_08h45.40.957,exp3,2022.2.2,
,,,,,,,,,,,,,,,,,,,,,,,0,-1158,Valid,noise,0,2,1262.2232747999951,1,2.0,3.3463502999802586,1,True,13,A,2023-09-11_08h45.40.957,exp3,2022.2.2,
,,,,,,,,,,,,,,,,,,,,,,,0,557,Valid,signal,0,1,1266.1918117000023,1,3.0,2.879653399984818,1,True,13,A,2023-09-11_08h45.40.957,exp3,2022.2.2,
,,,,,,,,,,,,,,,,,,,,,,,0,-2274,Valid,noise,0,2,1270.3996805999777,1,3.0,3.0298226000159048,1,True,13,A,2023-09-11_08h45.40.957,exp3,2022.2.2,
,,,,,,,,,,,,,,,,,,,,,,,0,-1716,Valid,signal,0,1,1274.2394412999856,1,4.0,3.563938400009647,1,True,13,A,2023-09-11_08h45.40.957,exp3,2022.2.2,
,,,,,,,,,,,,,,,,,,,,,,,0,-1716,Valid,noise,0,2,1279.3594427999924,1,2.0,3.746607600012794,1,True,13,A,2023-09-11_08h45.40.957,exp3,2022.2.2,
,,,,,,,,,,,,,,,,,,,,,,,0,-2274,Valid,signal,0,1,1283.7601389999909,1,4.0,2.929309099999955,1,True,13,A,2023-09-11_08h45.40.957,exp3,2022.2.2,
,,,,,,,,,,,,,,,,,,,,,,,0,-1716,Valid,signal,0,1,1287.7765345999796,1,4.0,2.8787746999878436,1,True,13,A,2023-09-11_08h45.40.957,exp3,2022.2.2,
,,,,,,,,,,,,,,,,,,,,,,,0,-557,Valid,signal,0,1,1291.3761457999935,1,4.0,2.5459492999943905,1,True,13,A,2023-09-11_08h45.40.957,exp3,2022.2.2,
,,,,,,,,,,,,,,,,,,,,,,,0,557,Valid,signal,0,1,1294.7032784999756,1,4.0,2.5965264000114985,1,True,13,A,2023-09-11_08h45.40.957,exp3,2022.2.2,
,,,,,,,,,,,,,,,,,,,,,,,0,-557,Valid,signal,0,1,1300.2720185999933,1,4.0,6.581061000004411,2,True,13,A,2023-09-11_08h45.40.957,exp3,2022.2.2,
,,,,,,,,,,,,,,,,,,,,,,,0,557,Valid,noise,0,2,1306.1442467999877,1,2.0,3.1466998000105377,1,True,13,A,2023-09-11_08h45.40.957,exp3,2022.2.2,
,,,,,,,,,,,,,,,,,,,,,,,0,-1158,Valid,signal,0,1,1310.0964938999969,1,4.0,2.4627865999937057,1,True,13,A,2023-09-11_08h45.40.957,exp3,2022.2.2,
,,,,,,,,,,,,,,,,,,,,,,,0,2274,Valid,noise,0,2,1314.9766154999961,1,3.0,4.179523900005734,1,True,13,A,2023-09-11_08h45.40.957,exp3,2022.2.2,
,,,,,,,,,,,,,,,,,,,,,,,0,-2274,Valid,signal,0,1,1319.4080310999998,1,4.0,3.062889799999539,1,True,13,A,2023-09-11_08h45.40.957,exp3,2022.2.2,
,,,,,,,,,,,,,,,,,,,,,,,0,-1158,Valid,noise,0,2,1323.1992921999772,1,2.0,4.030149600002915,1,True,13,A,2023-09-11_08h45.40.957,exp3,2022.2.2,
,,,,,,,,,,,,,,,,,,,,,,,0,2274,Valid,noise,0,2,1328.75130969999,1,3.0,3.847218300012173,1,True,13,A,2023-09-11_08h45.40.957,exp3,2022.2.2,
,,,,,,,,,,,,,,,,,,,,,,,0,557,Valid,signal,0,1,1332.6885201999976,1,4.0,2.6121715000190306,1,True,13,A,2023-09-11_08h45.40.957,exp3,2022.2.2,
,,,,,,,,,,,,,,,,,,,,,,,0,557,Valid,signal,0,1,1336.080029099976,1,4.0,2.145405099989148,1,True,13,A,2023-09-11_08h45.40.957,exp3,2022.2.2,
,,,,,,,,,,,,,,,,,,,,,,,0,1716,Valid,noise,0,2,1339.8887101,1,3.0,11.73333369998727,1,True,13,A,2023-09-11_08h45.40.957,exp3,2022.2.2,
,,,,,,,,,,,,,,,,,,,,,,,0,-557,Valid,noise,0,2,1352.6723070000007,1,3.0,2.929454299999634,1,True,13,A,2023-09-11_08h45.40.957,exp3,2022.2.2,
,,,,,,,,,,,,,,,,,,,,,,,0,1716,Valid,noise,0,2,1356.8637436999998,1,3.0,3.3634124000091106,1,True,13,A,2023-09-11_08h45.40.957,exp3,2022.2.2,
,,,,,,,,,,,,,,,,,,,,,,,0,-1158,Invalid,signal,0,1,1360.7202504999877,1,4.0,3.3296012000064366,1,True,13,A,2023-09-11_08h45.40.957,exp3,2022.2.2,
,,,,,,,,,,,,,,,,,,,,,,,0,557,Valid,noise,0,2,1365.023521999974,1,3.0,3.263029599998845,1,True,13,A,2023-09-11_08h45.40.957,exp3,2022.2.2,
,,,,,,,,,,,,,,,,,,,,,,,0,1716,Valid,signal,0,1,1369.5195921999984,1,4.0,3.0297276999917813,1,True,13,A,2023-09-11_08h45.40.957,exp3,2022.2.2,
,,,,,,,,,,,,,,,,,,,,,,,0,-2274,Valid,signal,0,1,1373.4074706999818,1,4.0,2.6296237999922596,1,True,13,A,2023-09-11_08h45.40.957,exp3,2022.2.2,
,,,,,,,,,,,,,,,,,,,,,,,0,-2274,Valid,noise,0,2,1377.0241800999793,1,4.0,2.728647700016154,1,True,13,A,2023-09-11_08h45.40.957,exp3,2022.2.2,
,,,,,,,,,,,,,,,,,,,,,,,0,2274,Valid,signal,0,1,1381.5035243999737,1,2.0,3.530094200017629,1,True,13,A,2023-09-11_08h45.40.957,exp3,2022.2.2,
,,,,,,,,,,,,,,,,,,,,,,,0,-1158,Valid,signal,0,1,1385.3924309999857,1,4.0,2.829390800005058,1,True,13,A,2023-09-11_08h45.40.957,exp3,2022.2.2,
,,,,,,,,,,,,,,,,,,,,,,,0,-1716,Valid,noise,0,2,1390.4805602999986,1,3.0,5.1803007000125945,1,True,13,A,2023-09-11_08h45.40.957,exp3,2022.2.2,
,,,,,,,,,,,,,,,,,,,,,,,0,557,Valid,signal,0,1,1395.8561931999866,1,4.0,3.6637854000146035,1,True,13,A,2023-09-11_08h45.40.957,exp3,2022.2.2,
,,,,,,,,,,,,,,,,,,,,,,,0,-2274,Invalid,signal,0,1,1400.8961533999827,1,3.0,3.596326800005045,1,True,13,A,2023-09-11_08h45.40.957,exp3,2022.2.2,
,,,,,,,,,,,,,,,,,,,,,,,0,-557,Valid,noise,0,2,1404.5602031999733,1,4.0,3.563243299984606,1,True,13,A,2023-09-11_08h45.40.957,exp3,2022.2.2,
,,,,,,,,,,,,,,,,,,,,,,,0,1158,Invalid,noise,0,2,1410.0314489000011,1,4.0,3.5463530000124592,1,True,13,A,2023-09-11_08h45.40.957,exp3,2022.2.2,
,,,,,,,,,,,,,,,,,,,,,,,0,-2274,Invalid,noise,0,2,1414.8318387999898,1,1.0,3.780513100005919,1,True,13,A,2023-09-11_08h45.40.957,exp3,2022.2.2,
,,,,,,,,,,,,,,,,,,,,,,,0,-2274,Valid,noise,0,2,1420.2241249999788,1,2.0,5.213012299995171,1,True,13,A,2023-09-11_08h45.40.957,exp3,2022.2.2,
,,,,,,,,,,,,,,,,,,,,,,,0,557,Valid,noise,0,2,1424.7679065999982,1,3.0,2.8801391000160947,1,True,13,A,2023-09-11_08h45.40.957,exp3,2022.2.2,
,,,,,,,,,,,,,,,,,,,,,,,0,1158,Invalid,signal,0,1,1428.8480748999864,1,4.0,2.8458812999888323,1,True,13,A,2023-09-11_08h45.40.957,exp3,2022.2.2,
,,,,,,,,,,,,,,,,,,,,,,,0,2274,Invalid,noise,0,1,1433.2003423999995,0,4.0,3.980236800009152,1,True,13,A,2023-09-11_08h45.40.957,exp3,2022.2.2,
,,,,,,,,,,,,,,,,,,,,,,,0,-557,Valid,signal,0,1,1437.600277199992,1,4.0,2.912530900008278,1,True,13,A,2023-09-11_08h45.40.957,exp3,2022.2.2,
,,,,,,,,,,,,,,,,,,,,,,,0,-1158,Valid,noise,0,2,1441.2801315999823,1,4.0,3.2297804999980144,1,True,13,A,2023-09-11_08h45.40.957,exp3,2022.2.2,
,,,,,,,,,,,,,,,,,,,,,,,0,-1158,Valid,signal,0,1,1445.4077199999883,1,4.0,2.4631347999966238,1,True,13,A,2023-09-11_08h45.40.957,exp3,2022.2.2,
,,,,,,,,,,,,,,,,,,,,,,,0,-1158,Valid,signal,0,1,1450.6724385999842,1,4.0,4.213330900005531,2,True,13,A,2023-09-11_08h45.40.957,exp3,2022.2.2,
,,,,,,,,,,,,,,,,,,,,,,,0,-2274,Valid,noise,0,2,1454.2073184999754,1,3.0,2.89627759999712,1,True,13,A,2023-09-11_08h45.40.957,exp3,2022.2.2,
,,,,,,,,,,,,,,,,,,,,,,,0,1158,Valid,signal,0,1,1461.2957004999917,1,4.0,6.064317099982873,3,True,13,A,2023-09-11_08h45.40.957,exp3,2022.2.2,
,,,,,,,,,,,,,,,,,,,,,,,0,-2274,Valid,noise,0,2,1465.4877721999947,1,3.0,3.329700000002049,1,True,13,A,2023-09-11_08h45.40.957,exp3,2022.2.2,
,,,,,,,,,,,,,,,,,,,,,,,0,1716,Valid,signal,0,1,1469.5045065000013,1,2.0,3.0629863000067417,1,True,13,A,2023-09-11_08h45.40.957,exp3,2022.2.2,
,,,,,,,,,,,,,,,,,,,,,,,0,557,Invalid,signal,0,1,1474.0637879999995,1,4.0,3.113768200011691,1,True,13,A,2023-09-11_08h45.40.957,exp3,2022.2.2,
,,,,,,,,,,,,,,,,,,,,,,,0,1716,Valid,signal,0,1,1477.9521305999951,1,4.0,3.3290182999917306,1,True,13,A,2023-09-11_08h45.40.957,exp3,2022.2.2,
,,,,,,,,,,,,,,,,,,,,,,,0,-1158,Valid,signal,0,1,1482.2401658000017,1,4.0,2.6961267999722622,1,True,13,A,2023-09-11_08h45.40.957,exp3,2022.2.2,
,,,,,,,,,,,,,,,,,,,,,,,0,-1158,Valid,noise,0,2,1486.2080021000002,1,3.0,3.0962203000090085,1,True,13,A,2023-09-11_08h45.40.957,exp3,2022.2.2,
,,,,,,,,,,,,,,,,,,,,,,,0,1716,Valid,noise,0,2,1489.983528199984,1,2.0,2.979992600012338,1,True,13,A,2023-09-11_08h45.40.957,exp3,2022.2.2,
,,,,,,,,,,,,,,,,,,,,,,,0,-557,Valid,signal,0,1,1494.8964452999935,1,4.0,3.6305479000147898,1,True,13,A,2023-09-11_08h45.40.957,exp3,2022.2.2,
,,,,,,,,,,,,,,,,,,,,,,,0,1158,Valid,noise,0,2,1498.3192939999863,1,3.0,2.7289505999942776,1,True,13,A,2023-09-11_08h45.40.957,exp3,2022.2.2,
,,,,,,,,,,,,,,,,,,,,,,,0,1716,Valid,signal,0,1,1502.0326534999767,1,3.0,2.329329600004712,1,True,13,A,2023-09-11_08h45.40.957,exp3,2022.2.2,
,,,,,,,,,,,,,,,,,,,,,,,0,-557,Valid,signal,0,1,1505.6166964999866,1,4.0,3.0294657000049483,1,True,13,A,2023-09-11_08h45.40.957,exp3,2022.2.2,
,,,,,,,,,,,,,,,,,,,,,,,0,2274,Valid,noise,0,2,1509.6166994999803,1,4.0,3.296261699986644,1,True,13,A,2023-09-11_08h45.40.957,exp3,2022.2.2,
,,,,,,,,,,,,,,,,,,,,,,,0,1158,Valid,noise,0,2,1514.4007356999791,1,3.0,3.7132001999998465,1,True,13,A,2023-09-11_08h45.40.957,exp3,2022.2.2,
,,,,,,,,,,,,,,,,,,,,,,,0,-1716,Invalid,signal,0,1,1518.4965130999917,1,4.0,2.6134746999887284,1,True,13,A,2023-09-11_08h45.40.957,exp3,2022.2.2,
,,,,,,,,,,,,,,,,,,,,,,,0,557,Invalid,noise,0,2,1522.4474847999809,1,2.0,3.029238599992823,1,True,13,A,2023-09-11_08h45.40.957,exp3,2022.2.2,
,,,,,,,,,,,,,,,,,,,,,,,0,1716,Invalid,signal,0,1,1526.7996748999867,1,4.0,3.263198700005887,1,True,13,A,2023-09-11_08h45.40.957,exp3,2022.2.2,
,,,,,,,,,,,,,,,,,,,,,,,0,1158,Valid,signal,0,1,1530.8484889999963,1,4.0,3.079869900015183,1,True,13,A,2023-09-11_08h45.40.957,exp3,2022.2.2,
,,,,,,,,,,,,,,,,,,,,,,,0,-1158,Invalid,noise,0,2,1534.8003008999804,1,3.0,3.2626391999947373,1,True,13,A,2023-09-11_08h45.40.957,exp3,2022.2.2,
,,,,,,,,,,,,,,,,,,,,,,,0,1716,Invalid,noise,0,1,1538.8965400999878,0,3.0,2.8132870999979787,1,True,13,A,2023-09-11_08h45.40.957,exp3,2022.2.2,
,,,,,,,,,,,,,,,,,,,,,,,0,-2274,Valid,noise,0,2,1543.7601729999878,1,2.0,3.7631862000271212,1,True,13,A,2023-09-11_08h45.40.957,exp3,2022.2.2,
,,,,,,,,,,,,,,,,,,,,,,,0,-1716,Valid,noise,0,2,1547.8886666999897,1,3.0,3.0959614999883343,1,True,13,A,2023-09-11_08h45.40.957,exp3,2022.2.2,
,,,,,,,,,,,,,,,,,,,,,,,0,1158,Valid,noise,0,2,1552.0003466999915,1,2.0,2.979518099979032,1,True,13,A,2023-09-11_08h45.40.957,exp3,2022.2.2,
,,,,,,,,,,,,,,,,,,,,,,,0,1716,Valid,noise,0,2,1555.6163076999946,1,2.0,3.147017600014806,1,True,13,A,2023-09-11_08h45.40.957,exp3,2022.2.2,
,,,,,,,,,,,,,,,,,,,,,,,0,1716,Valid,signal,0,1,1559.8235668999841,1,4.0,2.829142300004605,1,True,13,A,2023-09-11_08h45.40.957,exp3,2022.2.2,
,,,,,,,,,,,,,,,,,,,,,,,0,1158,Valid,signal,0,1,1563.311314199993,1,4.0,2.42927670001518,1,True,13,A,2023-09-11_08h45.40.957,exp3,2022.2.2,
,,,,,,,,,,,,,,,,,,,,,,,0,-557,Valid,signal,0,1,1566.7994438000023,1,4.0,2.362758200004464,1,True,13,A,2023-09-11_08h45.40.957,exp3,2022.2.2,
,,,,,,,,,,,,,,,,,,,,,,,0,2274,Valid,signal,0,2,1570.4958423999778,0,2.0,3.230269599996973,1,True,13,A,2023-09-11_08h45.40.957,exp3,2022.2.2,
,,,,,,,,,,,,,,,,,,,,,,,0,-557,Valid,signal,0,1,1574.4166272000002,1,4.0,2.462572899996303,1,True,13,A,2023-09-11_08h45.40.957,exp3,2022.2.2,
,,,,,,,,,,,,,,,,,,,,,,,0,2274,Valid,signal,0,2,1577.9673848999955,0,2.0,3.579979599977378,1,True,13,A,2023-09-11_08h45.40.957,exp3,2022.2.2,
,,,,,,,,,,,,,,,,,,,,,,,0,-557,Invalid,noise,0,2,1582.8004345999798,1,2.0,2.812194800004363,1,True,13,A,2023-09-11_08h45.40.957,exp3,2022.2.2,
,,,,,,,,,,,,,,,,,,,,,,,0,557,Valid,noise,0,2,1586.319651400001,1,3.0,2.9633526999969035,1,True,13,A,2023-09-11_08h45.40.957,exp3,2022.2.2,
,,,,,,,,,,,,,,,,,,,,,,,0,-1158,Valid,noise,0,2,1590.36804999999,1,3.0,2.579828499990981,1,True,13,A,2023-09-11_08h45.40.957,exp3,2022.2.2,
,,,,,,,,,,,,,,,,,,,,,,,0,2274,Valid,noise,0,2,1598.1926673999988,1,3.0,6.813773500005482,2,True,13,A,2023-09-11_08h45.40.957,exp3,2022.2.2,
,,,,,,,,,,,,,,,,,,,,,,,0,-1716,Valid,signal,0,1,1605.6154281999916,1,4.0,6.731080900004599,1,True,13,A,2023-09-11_08h45.40.957,exp3,2022.2.2,
,,,,,,,,,,,,,,,,,,,,,,,0,1716,Invalid,signal,0,1,1609.7597154999967,1,4.0,2.8130908999883104,1,True,13,A,2023-09-11_08h45.40.957,exp3,2022.2.2,
,,,,,,,,,,,,,,,,,,,,,,,0,1158,Valid,signal,0,1,1613.279745799984,1,4.0,2.462554800004,1,True,13,A,2023-09-11_08h45.40.957,exp3,2022.2.2,
,,,,,,,,,,,,,,,,,,,,,,,0,2274,Valid,signal,0,1,1618.943935599993,1,1.0,5.097035699989647,1,True,13,A,2023-09-11_08h45.40.957,exp3,2022.2.2,
,,,,,,,,,,,,,,,,,,,,,,,0,1716,Valid,signal,0,1,1623.007417899993,1,4.0,2.7631923999870196,1,True,13,A,2023-09-11_08h45.40.957,exp3,2022.2.2,
,,,,,,,,,,,,,,,,,,,,,,,0,-2274,Valid,signal,0,1,1626.6558084999851,1,4.0,2.312321499979589,1,True,13,A,2023-09-11_08h45.40.957,exp3,2022.2.2,
,,,,,,,,,,,,,,,,,,,,,,,0,1716,Valid,signal,0,1,1629.8876381999871,1,4.0,2.312883700011298,1,True,13,A,2023-09-11_08h45.40.957,exp3,2022.2.2,
,,,,,,,,,,,,,,,,,,,,,,,0,557,Valid,signal,0,1,1633.7127977999917,1,4.0,2.8626973000064027,1,True,13,A,2023-09-11_08h45.40.957,exp3,2022.2.2,
,,,,,,,,,,,,,,,,,,,,,,,0,2274,Invalid,signal,0,1,1637.263939299999,1,4.0,2.4292205000238027,1,True,13,A,2023-09-11_08h45.40.957,exp3,2022.2.2,
,,,,,,,,,,,,,,,,,,,,,,,0,1158,Valid,signal,0,1,1642.7514679000014,1,4.0,4.863796799996635,2,True,13,A,2023-09-11_08h45.40.957,exp3,2022.2.2,
,,,,,,,,,,,,,,,,,,,,,,,0,-2274,Valid,signal,0,1,1646.5754402999883,1,4.0,2.7294758999778423,1,True,13,A,2023-09-11_08h45.40.957,exp3,2022.2.2,
,,,,,,,,,,,,,,,,,,,,,,,0,-2274,Valid,signal,0,1,1650.368541599979,1,4.0,2.7295478000014555,1,True,13,A,2023-09-11_08h45.40.957,exp3,2022.2.2,
,,,,,,,,,,,,,,,,,,,,,,,0,-2274,Valid,noise,0,2,1656.4965109999757,1,2.0,5.464070099988021,1,True,13,A,2023-09-11_08h45.40.957,exp3,2022.2.2,
,,,,,,,,,,,,,,,,,,,,,,,0,-1158,Invalid,noise,0,2,1660.623544699978,1,2.0,2.7960941000201274,1,True,13,A,2023-09-11_08h45.40.957,exp3,2022.2.2,
,,,,,,,,,,,,,,,,,,,,,,,0,-2274,Invalid,noise,0,2,1665.1358292999794,1,1.0,3.563277499983087,1,True,13,A,2023-09-11_08h45.40.957,exp3,2022.2.2,
,,,,,,,,,,,,,,,,,,,,,,,0,2274,Valid,signal,0,2,1669.0720612999867,0,2.0,2.862764999998035,1,True,13,A,2023-09-11_08h45.40.957,exp3,2022.2.2,
,,,,,,,,,,,,,,,,,,,,,,,0,-557,Invalid,signal,0,1,1672.8327445999894,1,4.0,2.7627940000093076,1,True,13,A,2023-09-11_08h45.40.957,exp3,2022.2.2,
,,,,,,,,,,,,,,,,,,,,,,,0,557,Valid,noise,0,2,1676.271868299984,1,3.0,2.6288321999891195,1,True,13,A,2023-09-11_08h45.40.957,exp3,2022.2.2,
,,,,,,,,,,,,,,,,,,,,,,,0,-1158,Valid,signal,0,1,1679.9524412999745,1,4.0,2.446409099997254,1,True,13,A,2023-09-11_08h45.40.957,exp3,2022.2.2,
,,,,,,,,,,,,,,,,,,,,,,,0,-1716,Valid,noise,0,2,1683.7123556000006,1,4.0,2.6961517999880016,1,True,13,A,2023-09-11_08h45.40.957,exp3,2022.2.2,
,,,,,,,,,,,,,,,,,,,,,,,0,1716,Invalid,noise,0,2,1687.408626599994,1,4.0,2.6795677000191063,1,True,13,A,2023-09-11_08h45.40.957,exp3,2022.2.2,
,,,,,,,,,,,,,,,,,,,,,,,0,557,Valid,noise,0,2,1690.7838040999777,1,4.0,2.3625712000066414,1,True,13,A,2023-09-11_08h45.40.957,exp3,2022.2.2,
,,,,,,,,,,,,,,,,,,,,,,,0,1716,Valid,signal,0,1,1694.224003499985,1,4.0,2.3298041000089142,1,True,13,A,2023-09-11_08h45.40.957,exp3,2022.2.2,
,,,,,,,,,,,,,,,,,,,,,,,0,-1716,Valid,signal,0,1,1697.8567783999897,1,4.0,2.679345300013665,1,True,13,A,2023-09-11_08h45.40.957,exp3,2022.2.2,
,,,,,,,,,,,,,,,,,,,,,,,0,557,Valid,noise,0,2,1701.2482681999973,1,2.0,3.29643890002626,1,True,13,A,2023-09-11_08h45.40.957,exp3,2022.2.2,
,,,,,,,,,,,,,,,,,,,,,,,0,2274,Valid,signal,0,2,1705.9676782999886,0,1.0,3.0960694999957923,1,True,13,A,2023-09-11_08h45.40.957,exp3,2022.2.2,
,,,,,,,,,,,,,,,,,,,,,,,0,-557,Valid,noise,0,2,1710.0167594999948,1,3.0,3.1962707999919076,1,True,13,A,2023-09-11_08h45.40.957,exp3,2022.2.2,
,,,,,,,,,,,,,,,,,,,,,,,0,1158,Valid,signal,0,1,1714.0958098999981,1,4.0,2.7460967999941204,1,True,13,A,2023-09-11_08h45.40.957,exp3,2022.2.2,
,,,,,,,,,,,,,,,,,,,,,,,0,2274,Valid,signal,0,2,1717.9517814999854,0,3.0,2.8628008000086993,1,True,13,A,2023-09-11_08h45.40.957,exp3,2022.2.2,
,,,,,,,,,,,,,,,,,,,,,,,0,1158,Valid,noise,0,2,1721.7925652999838,1,3.0,2.829926600010367,1,True,13,A,2023-09-11_08h45.40.957,exp3,2022.2.2,
,,,,,,,,,,,,,,,,,,,,,,,0,1716,Valid,noise,0,2,1725.4246520999877,1,3.0,2.612082100007683,1,True,13,A,2023-09-11_08h45.40.957,exp3,2022.2.2,
,,,,,,,,,,,,,,,,,,,,,,,0,-557,Valid,signal,0,1,1731.4728049999976,1,4.0,4.9308837999997195,2,True,13,A,2023-09-11_08h45.40.957,exp3,2022.2.2,
,,,,,,,,,,,,,,,,,,,,,,,0,-2274,Valid,noise,0,2,1734.783957799984,1,3.0,2.6956890000146814,1,True,13,A,2023-09-11_08h45.40.957,exp3,2022.2.2,
,,,,,,,,,,,,,,,,,,,,,,,0,557,Valid,noise,0,2,1739.0888048999768,1,4.0,3.2463435000099707,1,True,13,A,2023-09-11_08h45.40.957,exp3,2022.2.2,
,,,,,,,,,,,,,,,,,,,,,,,0,-1716,Invalid,noise,0,2,1742.7036979999975,1,3.0,2.7801180999958888,1,True,13,A,2023-09-11_08h45.40.957,exp3,2022.2.2,
,,,,,,,,,,,,,,,,,,,,,,,0,1158,Valid,signal,0,1,1746.5277220999997,1,3.0,2.628593000001274,1,True,13,A,2023-09-11_08h45.40.957,exp3,2022.2.2,
,,,,,,,,,,,,,,,,,,,,,,,0,-557,Valid,noise,0,2,1750.1117608999775,1,4.0,3.580308700009482,1,True,13,A,2023-09-11_08h45.40.957,exp3,2022.2.2,
,,,,,,,,,,,,,,,,,,,,,,,0,1158,Invalid,signal,0,1,1755.08852759999,1,4.0,3.06284160001087,1,True,13,A,2023-09-11_08h45.40.957,exp3,2022.2.2,
,,,,,,,,,,,,,,,,,,,,,,,0,-1716,Valid,signal,0,1,1759.0087216999964,1,4.0,2.578956300014397,1,True,13,A,2023-09-11_08h45.40.957,exp3,2022.2.2,
,,,,,,,,,,,,,,,,,,,,,,,0,-1716,Valid,noise,0,2,1762.527762099984,1,3.0,2.7631018999964,1,True,13,A,2023-09-11_08h45.40.957,exp3,2022.2.2,
,,,,,,,,,,,,,,,,,,,,,,,0,-1716,Valid,signal,0,1,1768.703736800002,1,4.0,4.947268599993549,1,True,13,A,2023-09-11_08h45.40.957,exp3,2022.2.2,
,,,,,,,,,,,,,,,,,,,,,,,1,557,Valid,noise,0,2,1892.5928240999929,1,4.0,3.016068400000222,1,True,13,A,2023-09-11_08h45.40.957,exp3,2022.2.2,
,,,,,,,,,,,,,,,,,,,,,,,2,1158,Invalid,noise,0,2,1896.3359484999964,1,4.0,2.596008799999254,1,True,13,A,2023-09-11_08h45.40.957,exp3,2022.2.2,
,,,,,,,,,,,,,,,,,,,,,,,3,1158,Valid,noise,0,2,1899.93652019999,1,3.0,2.2794625000096858,1,True,13,A,2023-09-11_08h45.40.957,exp3,2022.2.2,
,,,,,,,,,,,,,,,,,,,,,,,4,-2274,Valid,signal,0,1,1903.295610799978,1,3.0,2.27910030001658,1,True,13,A,2023-09-11_08h45.40.957,exp3,2022.2.2,
,,,,,,,,,,,,,,,,,,,,,,,5,1158,Valid,noise,0,2,1906.5914349999803,1,3.0,2.2297239000035916,1,True,13,A,2023-09-11_08h45.40.957,exp3,2022.2.2,
,,,,,,,,,,,,,,,,,,,,,,,6,-1716,Valid,noise,0,2,1909.9994550999836,1,3.0,2.445832999976119,1,True,13,A,2023-09-11_08h45.40.957,exp3,2022.2.2,
,,,,,,,,,,,,,,,,,,,,,,,7,-557,Valid,signal,0,1,1913.2795368999941,1,4.0,2.2795739000139292,1,True,13,A,2023-09-11_08h45.40.957,exp3,2022.2.2,
,,,,,,,,,,,,,,,,,,,,,,,8,1716,Valid,signal,0,1,1916.3994076999952,1,4.0,2.113085699995281,1,True,13,A,2023-09-11_08h45.40.957,exp3,2022.2.2,
,,,,,,,,,,,,,,,,,,,,,,,9,-557,Valid,signal,0,1,1919.51954009998,1,4.0,2.078578499989817,1,True,13,A,2023-09-11_08h45.40.957,exp3,2022.2.2,
,,,,,,,,,,,,,,,,,,,,,,,10,1158,Valid,noise,0,2,1922.720249599981,1,3.0,2.3791263999883085,1,True,13,A,2023-09-11_08h45.40.957,exp3,2022.2.2,
,,,,,,,,,,,,,,,,,,,,,,,11,-2274,Valid,signal,0,1,1926.351695499994,1,4.0,2.4794725000101607,1,True,13,A,2023-09-11_08h45.40.957,exp3,2022.2.2,
,,,,,,,,,,,,,,,,,,,,,,,12,-2274,Invalid,signal,0,1,1930.0638655999792,1,3.0,2.8793625999824144,1,True,13,A,2023-09-11_08h45.40.957,exp3,2022.2.2,
,,,,,,,,,,,,,,,,,,,,,,,13,1716,Valid,noise,0,2,1933.4553857999854,1,3.0,2.495502599980682,1,True,13,A,2023-09-11_08h45.40.957,exp3,2022.2.2,
,,,,,,,,,,,,,,,,,,,,,,,14,2274,Valid,signal,0,1,1937.3440665999951,1,2.0,2.763104400015436,1,True,13,A,2023-09-11_08h45.40.957,exp3,2022.2.2,
,,,,,,,,,,,,,,,,,,,,,,,15,2274,Invalid,signal,0,1,1940.944820099976,1,4.0,2.596477599989157,1,True,13,A,2023-09-11_08h45.40.957,exp3,2022.2.2,
,,,,,,,,,,,,,,,,,,,,,,,16,557,Valid,signal,0,1,1944.272880799981,1,4.0,2.3954016999923624,1,True,13,A,2023-09-11_08h45.40.957,exp3,2022.2.2,
,,,,,,,,,,,,,,,,,,,,,,,17,557,Valid,noise,0,2,1947.776728500001,1,2.0,2.679727399983676,1,True,13,A,2023-09-11_08h45.40.957,exp3,2022.2.2,
,,,,,,,,,,,,,,,,,,,,,,,18,2274,Valid,signal,0,2,1952.5444545999926,0,2.0,3.6298264999932144,1,True,13,A,2023-09-11_08h45.40.957,exp3,2022.2.2,
,,,,,,,,,,,,,,,,,,,,,,,19,1158,Valid,signal,0,1,1955.92008109999,1,4.0,2.212740399991162,1,True,13,A,2023-09-11_08h45.40.957,exp3,2022.2.2,
,,,,,,,,,,,,,,,,,,,,,,,20,-1158,Valid,noise,0,2,1959.6481496999913,1,4.0,2.512827300000936,1,True,13,A,2023-09-11_08h45.40.957,exp3,2022.2.2,
,,,,,,,,,,,,,,,,,,,,,,,21,2274,Valid,signal,0,2,1963.68087739998,0,3.0,3.31278779997956,1,True,13,A,2023-09-11_08h45.40.957,exp3,2022.2.2,
,,,,,,,,,,,,,,,,,,,,,,,22,-557,Valid,signal,0,1,1967.5684523999807,1,4.0,2.813289600017015,1,True,13,A,2023-09-11_08h45.40.957,exp3,2022.2.2,
,,,,,,,,,,,,,,,,,,,,,,,23,1716,Valid,noise,0,2,1971.503630799998,1,2.0,2.8792403000115883,1,True,13,A,2023-09-11_08h45.40.957,exp3,2022.2.2,
,,,,,,,,,,,,,,,,,,,,,,,24,-1158,Valid,signal,0,1,1975.0077711999766,1,3.0,2.51270459999796,1,True,13,A,2023-09-11_08h45.40.957,exp3,2022.2.2,
,,,,,,,,,,,,,,,,,,,,,,,25,1716,Valid,noise,0,2,1978.6407454999862,1,3.0,3.2800290000159293,1,True,13,A,2023-09-11_08h45.40.957,exp3,2022.2.2,
,,,,,,,,,,,,,,,,,,,,,,,26,557,Valid,signal,0,1,1982.7040911999939,1,4.0,2.379381499980809,1,True,13,A,2023-09-11_08h45.40.957,exp3,2022.2.2,
,,,,,,,,,,,,,,,,,,,,,,,27,1716,Valid,signal,0,1,1986.2719908999861,1,3.0,2.5793020999990404,1,True,13,A,2023-09-11_08h45.40.957,exp3,2022.2.2,
,,,,,,,,,,,,,,,,,,,,,,,28,-1716,Valid,noise,0,2,1990.7836809,1,3.0,3.6634574999916367,1,True,13,A,2023-09-11_08h45.40.957,exp3,2022.2.2,
,,,,,,,,,,,,,,,,,,,,,,,29,-1158,Valid,signal,0,1,1994.2563565000019,1,4.0,2.8294939000043087,1,True,13,A,2023-09-11_08h45.40.957,exp3,2022.2.2,
,,,,,,,,,,,,,,,,,,,,,,,30,557,Invalid,noise,0,2,2000.4314198999782,1,4.0,5.714138300012564,2,True,13,A,2023-09-11_08h45.40.957,exp3,2022.2.2,
,,,,,,,,,,,,,,,,,,,,,,,31,-1716,Valid,signal,0,1,2005.8075065999874,1,4.0,3.6132533000200056,1,True,13,A,2023-09-11_08h45.40.957,exp3,2022.2.2,
,,,,,,,,,,,,,,,,,,,,,,,32,-1158,Valid,signal,0,1,2009.7288259999768,1,4.0,2.5961840000236407,1,True,13,A,2023-09-11_08h45.40.957,exp3,2022.2.2,
,,,,,,,,,,,,,,,,,,,,,,,33,557,Valid,noise,0,2,2013.056023299985,1,2.0,2.946740300016245,1,True,13,A,2023-09-11_08h45.40.957,exp3,2022.2.2,
,,,,,,,,,,,,,,,,,,,,,,,34,-2274,Invalid,signal,0,2,2018.192407800001,0,1.0,3.529200999997556,1,True,13,A,2023-09-11_08h45.40.957,exp3,2022.2.2,
,,,,,,,,,,,,,,,,,,,,,,,35,-557,Invalid,noise,0,2,2021.6808722999995,1,2.0,2.513115799985826,1,True,13,A,2023-09-11_08h45.40.957,exp3,2022.2.2,
,,,,,,,,,,,,,,,,,,,,,,,36,-1716,Valid,signal,0,1,2025.0079478999833,1,4.0,2.3795309999841265,1,True,13,A,2023-09-11_08h45.40.957,exp3,2022.2.2,
,,,,,,,,,,,,,,,,,,,,,,,37,-557,Valid,noise,0,2,2028.8647230999777,1,4.0,2.97895889999927,1,True,13,A,2023-09-11_08h45.40.957,exp3,2022.2.2,
,,,,,,,,,,,,,,,,,,,,,,,38,2274,Valid,noise,0,2,2032.9442578999733,1,3.0,2.88007009998546,1,True,13,A,2023-09-11_08h45.40.957,exp3,2022.2.2,
,,,,,,,,,,,,,,,,,,,,,,,39,-1158,Valid,signal,0,1,2036.3047796999745,1,4.0,2.429058999987319,1,True,13,A,2023-09-11_08h45.40.957,exp3,2022.2.2,
,,,,,,,,,,,,,,,,,,,,,,,40,-1716,Valid,signal,0,1,2040.8005064999743,1,4.0,3.5797362999874167,1,True,13,A,2023-09-11_08h45.40.957,exp3,2022.2.2,
,,,,,,,,,,,,,,,,,,,,,,,41,-1158,Valid,signal,0,1,2045.5525733999966,1,4.0,3.629946100001689,1,True,13,A,2023-09-11_08h45.40.957,exp3,2022.2.2,
,,,,,,,,,,,,,,,,,,,,,,,42,-2274,Valid,signal,0,1,2049.3125295999926,1,4.0,2.529200099990703,1,True,13,A,2023-09-11_08h45.40.957,exp3,2022.2.2,
,,,,,,,,,,,,,,,,,,,,,,,43,1158,Valid,signal,0,1,2052.5282040999737,1,4.0,2.2298401000152808,1,True,13,A,2023-09-11_08h45.40.957,exp3,2022.2.2,
,,,,,,,,,,,,,,,,,,,,,,,44,-1158,Valid,signal,0,1,2055.984211199975,1,4.0,2.579337100003613,1,True,13,A,2023-09-11_08h45.40.957,exp3,2022.2.2,
,,,,,,,,,,,,,,,,,,,,,,,45,557,Valid,noise,0,2,2059.4088538999786,1,2.0,3.429006999998819,1,True,13,A,2023-09-11_08h45.40.957,exp3,2022.2.2,
,,,,,,,,,,,,,,,,,,,,,,,46,-2274,Valid,signal,0,1,2065.1365504999994,1,4.0,5.047422400006326,1,True,13,A,2023-09-11_08h45.40.957,exp3,2022.2.2,
,,,,,,,,,,,,,,,,,,,,,,,47,-1158,Valid,noise,0,2,2070.048024399992,1,2.0,2.9295484999893233,1,True,13,A,2023-09-11_08h45.40.957,exp3,2022.2.2,
,,,,,,,,,,,,,,,,,,,,,,,48,-557,Valid,signal,0,1,2073.5686086999776,1,4.0,2.429756900004577,1,True,13,A,2023-09-11_08h45.40.957,exp3,2022.2.2,
,,,,,,,,,,,,,,,,,,,,,,,49,1158,Valid,noise,0,2,2077.103660099994,1,3.0,2.1793286000029184,1,True,13,A,2023-09-11_08h45.40.957,exp3,2022.2.2,
,,,,,,,,,,,,,,,,,,,,,,,50,-1716,Valid,noise,0,2,2080.335527999996,1,4.0,2.5625811999780126,1,True,13,A,2023-09-11_08h45.40.957,exp3,2022.2.2,
,,,,,,,,,,,,,,,,,,,,,,,51,-1158,Valid,signal,0,2,2084.0795443999814,0,1.0,3.4298101000022143,1,True,13,A,2023-09-11_08h45.40.957,exp3,2022.2.2,
,,,,,,,,,,,,,,,,,,,,,,,52,2274,Valid,signal,0,2,2090.6718175999995,0,3.0,5.096997699991334,1,True,13,A,2023-09-11_08h45.40.957,exp3,2022.2.2,
,,,,,,,,,,,,,,,,,,,,,,,53,-557,Valid,noise,0,2,2095.9686470000015,1,3.0,4.029819400020642,1,True,13,A,2023-09-11_08h45.40.957,exp3,2022.2.2,
,,,,,,,,,,,,,,,,,,,,,,,54,2274,Valid,noise,0,2,2099.5208848999755,1,4.0,2.713442699983716,1,True,13,A,2023-09-11_08h45.40.957,exp3,2022.2.2,
,,,,,,,,,,,,,,,,,,,,,,,55,-2274,Valid,signal,0,1,2103.263994799985,1,4.0,2.7622680999920703,1,True,13,A,2023-09-11_08h45.40.957,exp3,2022.2.2,
,,,,,,,,,,,,,,,,,,,,,,,56,2274,Valid,signal,0,2,2107.727829999989,0,3.0,3.3134026000043377,1,True,13,A,2023-09-11_08h45.40.957,exp3,2022.2.2,
,,,,,,,,,,,,,,,,,,,,,,,57,1716,Invalid,signal,0,1,2111.679737300001,1,4.0,2.8794106999994256,1,True,13,A,2023-09-11_08h45.40.957,exp3,2022.2.2,
,,,,,,,,,,,,,,,,,,,,,,,58,-1158,Invalid,signal,0,1,2115.392064799991,1,4.0,2.6961745000153314,1,True,13,A,2023-09-11_08h45.40.957,exp3,2022.2.2,
,,,,,,,,,,,,,,,,,,,,,,,59,-1716,Valid,noise,0,2,2118.9279455999786,1,3.0,2.4296466000087094,1,True,13,A,2023-09-11_08h45.40.957,exp3,2022.2.2,
,,,,,,,,,,,,,,,,,,,,,,,60,-1716,Valid,signal,0,1,2122.4960434999957,1,4.0,2.9133121999911964,1,True,13,A,2023-09-11_08h45.40.957,exp3,2022.2.2,
,,,,,,,,,,,,,,,,,,,,,,,61,-557,Valid,signal,0,1,2126.2245823999983,1,4.0,2.2122872000036296,1,True,13,A,2023-09-11_08h45.40.957,exp3,2022.2.2,
,,,,,,,,,,,,,,,,,,,,,,,62,-557,Valid,noise,0,2,2129.8888752999774,1,3.0,2.77945699999691,1,True,13,A,2023-09-11_08h45.40.957,exp3,2022.2.2,
,,,,,,,,,,,,,,,,,,,,,,,63,1158,Valid,signal,0,1,2133.2321323999786,1,4.0,2.2623674000205938,1,True,13,A,2023-09-11_08h45.40.957,exp3,2022.2.2,
,,,,,,,,,,,,,,,,,,,,,,,64,2274,Invalid,signal,0,1,2137.0714558999753,1,4.0,2.779726100008702,1,True,13,A,2023-09-11_08h45.40.957,exp3,2022.2.2,
,,,,,,,,,,,,,,,,,,,,,,,65,-557,Valid,signal,0,1,2140.3685835999786,1,4.0,2.3128997000167146,1,True,13,A,2023-09-11_08h45.40.957,exp3,2022.2.2,
,,,,,,,,,,,,,,,,,,,,,,,66,1158,Valid,signal,0,1,2143.56798219998,1,4.0,2.146166799997445,1,True,13,A,2023-09-11_08h45.40.957,exp3,2022.2.2,
,,,,,,,,,,,,,,,,,,,,,,,67,1158,Valid,noise,0,2,2146.992828199989,1,4.0,3.2129612999851815,1,True,13,A,2023-09-11_08h45.40.957,exp3,2022.2.2,
,,,,,,,,,,,,,,,,,,,,,,,68,1716,Invalid,noise,0,1,2152.112884299975,0,1.0,4.9138657999865245,1,True,13,A,2023-09-11_08h45.40.957,exp3,2022.2.2,
,,,,,,,,,,,,,,,,,,,,,,,69,-557,Invalid,signal,0,1,2157.071861799981,1,4.0,2.763053000002401,1,True,13,A,2023-09-11_08h45.40.957,exp3,2022.2.2,
,,,,,,,,,,,,,,,,,,,,,,,70,-1716,Invalid,signal,0,1,2160.816185999982,1,4.0,2.6630010999797378,1,True,13,A,2023-09-11_08h45.40.957,exp3,2022.2.2,
,,,,,,,,,,,,,,,,,,,,,,,71,1158,Valid,signal,0,1,2164.288327599992,1,4.0,2.2293152999773156,1,True,13,A,2023-09-11_08h45.40.957,exp3,2022.2.2,
,,,,,,,,,,,,,,,,,,,,,,,72,2274,Valid,noise,0,2,2167.7448793999793,1,2.0,2.8799200000066776,1,True,13,A,2023-09-11_08h45.40.957,exp3,2022.2.2,
,,,,,,,,,,,,,,,,,,,,,,,73,-557,Valid,signal,0,1,2171.792821299983,1,4.0,3.1965604000142775,1,True,13,A,2023-09-11_08h45.40.957,exp3,2022.2.2,
,,,,,,,,,,,,,,,,,,,,,,,74,1716,Valid,signal,0,1,2175.93619529999,1,3.0,2.679000600008294,1,True,13,A,2023-09-11_08h45.40.957,exp3,2022.2.2,
,,,,,,,,,,,,,,,,,,,,,,,75,2274,Valid,noise,0,2,2179.6478817999887,1,2.0,2.812944700010121,1,True,13,A,2023-09-11_08h45.40.957,exp3,2022.2.2,
,,,,,,,,,,,,,,,,,,,,,,,76,-557,Valid,noise,0,2,2183.1365906999854,1,3.0,2.329508499999065,1,True,13,A,2023-09-11_08h45.40.957,exp3,2022.2.2,
,,,,,,,,,,,,,,,,,,,,,,,77,1716,Valid,signal,0,1,2186.543823999993,1,2.0,2.6124111999815796,1,True,13,A,2023-09-11_08h45.40.957,exp3,2022.2.2,
,,,,,,,,,,,,,,,,,,,,,,,78,557,Valid,signal,0,1,2190.144067999994,1,4.0,2.34626359998947,1,True,13,A,2023-09-11_08h45.40.957,exp3,2022.2.2,
,,,,,,,,,,,,,,,,,,,,,,,79,557,Invalid,signal,0,1,2193.568000899977,1,4.0,2.4630039999901783,1,True,13,A,2023-09-11_08h45.40.957,exp3,2022.2.2,
,,,,,,,,,,,,,,,,,,,,,,,80,557,Invalid,noise,0,2,2197.9355512999755,1,3.0,3.430000899999868,1,True,13,A,2023-09-11_08h45.40.957,exp3,2022.2.2,
,,,,,,,,,,,,,,,,,,,,,,,81,557,Valid,signal,0,1,2201.696420299995,1,4.0,2.5464359000034165,1,True,13,A,2023-09-11_08h45.40.957,exp3,2022.2.2,
,,,,,,,,,,,,,,,,,,,,,,,82,-1716,Valid,noise,0,2,2205.7443690999935,1,4.0,3.930138000025181,1,True,13,A,2023-09-11_08h45.40.957,exp3,2022.2.2,
,,,,,,,,,,,,,,,,,,,,,,,83,1158,Valid,noise,0,2,2210.1125785999757,1,4.0,2.4625320000050124,1,True,13,A,2023-09-11_08h45.40.957,exp3,2022.2.2,
,,,,,,,,,,,,,,,,,,,,,,,84,-1716,Invalid,signal,0,1,2213.407670399989,1,3.0,2.6795118000009097,1,True,13,A,2023-09-11_08h45.40.957,exp3,2022.2.2,
,,,,,,,,,,,,,,,,,,,,,,,85,1158,Invalid,noise,0,2,2219.2969517999736,1,4.0,4.86309280002024,2,True,13,A,2023-09-11_08h45.40.957,exp3,2022.2.2,
,,,,,,,,,,,,,,,,,,,,,,,86,1158,Valid,signal,0,1,2222.863510199997,1,4.0,3.046988100017188,1,True,13,A,2023-09-11_08h45.40.957,exp3,2022.2.2,
,,,,,,,,,,,,,,,,,,,,,,,87,1716,Invalid,noise,0,2,2226.9922187999764,1,4.0,2.8955889999924693,1,True,13,A,2023-09-11_08h45.40.957,exp3,2022.2.2,
,,,,,,,,,,,,,,,,,,,,,,,88,-1158,Valid,noise,0,2,2231.024309899978,1,4.0,3.012874100008048,1,True,13,A,2023-09-11_08h45.40.957,exp3,2022.2.2,
,,,,,,,,,,,,,,,,,,,,,,,89,-557,Invalid,noise,0,2,2234.7840977000014,1,4.0,2.2629556999891065,1,True,13,A,2023-09-11_08h45.40.957,exp3,2022.2.2,
,,,,,,,,,,,,,,,,,,,,,,,90,-2274,Valid,noise,0,2,2238.0484493999975,1,3.0,2.3789647000085097,1,True,13,A,2023-09-11_08h45.40.957,exp3,2022.2.2,
,,,,,,,,,,,,,,,,,,,,,,,91,-557,Invalid,signal,0,1,2242.1929111999925,1,4.0,3.146634799981257,1,True,13,A,2023-09-11_08h45.40.957,exp3,2022.2.2,
,,,,,,,,,,,,,,,,,,,,,,,92,1716,Valid,noise,0,2,2246.032773599989,1,4.0,2.6963834000052884,1,True,13,A,2023-09-11_08h45.40.957,exp3,2022.2.2,
,,,,,,,,,,,,,,,,,,,,,,,93,-1716,Valid,noise,0,2,2249.632245899993,1,4.0,2.6788492999912705,1,True,13,A,2023-09-11_08h45.40.957,exp3,2022.2.2,
,,,,,,,,,,,,,,,,,,,,,,,94,2274,Valid,signal,0,2,2253.519533599989,0,3.0,4.5974556999863125,1,True,13,A,2023-09-11_08h45.40.957,exp3,2022.2.2,
,,,,,,,,,,,,,,,,,,,,,,,95,-2274,Valid,signal,0,1,2259.711767699977,1,3.0,5.029837400012184,1,True,13,A,2023-09-11_08h45.40.957,exp3,2022.2.2,
,,,,,,,,,,,,,,,,,,,,,,,96,-1158,Valid,noise,0,2,2266.016352799983,1,3.0,4.013578000012785,1,True,13,A,2023-09-11_08h45.40.957,exp3,2022.2.2,
,,,,,,,,,,,,,,,,,,,,,,,97,2274,Valid,noise,0,2,2269.872678099986,1,3.0,2.463287799997488,1,True,13,A,2023-09-11_08h45.40.957,exp3,2022.2.2,
,,,,,,,,,,,,,,,,,,,,,,,98,1716,Valid,noise,0,2,2273.216158999974,1,3.0,2.362165600003209,1,True,13,A,2023-09-11_08h45.40.957,exp3,2022.2.2,
,,,,,,,,,,,,,,,,,,,,,,,99,-2274,Valid,noise,0,2,2276.6076533999876,1,3.0,2.4460100999858696,1,True,13,A,2023-09-11_08h45.40.957,exp3,2022.2.2,
,,,,,,,,,,,,,,,,,,,,,,,100,1158,Valid,noise,0,2,2280.048095599981,1,3.0,2.346330100001069,1,True,13,A,2023-09-11_08h45.40.957,exp3,2022.2.2,
,,,,,,,,,,,,,,,,,,,,,,,101,-1158,Valid,noise,0,2,2283.3603515999857,1,4.0,2.3786018999817315,1,True,13,A,2023-09-11_08h45.40.957,exp3,2022.2.2,
,,,,,,,,,,,,,,,,,,,,,,,102,2274,Valid,noise,0,2,2286.7195632999938,1,3.0,2.2798890999983996,1,True,13,A,2023-09-11_08h45.40.957,exp3,2022.2.2,
,,,,,,,,,,,,,,,,,,,,,,,103,-1158,Invalid,signal,0,1,2289.935772500001,1,4.0,2.662391599995317,1,True,13,A,2023-09-11_08h45.40.957,exp3,2022.2.2,
,,,,,,,,,,,,,,,,,,,,,,,104,1158,Valid,noise,0,2,2294.015888199996,1,2.0,3.09675789999892,1,True,13,A,2023-09-11_08h45.40.957,exp3,2022.2.2,
,,,,,,,,,,,,,,,,,,,,,,,105,1716,Valid,signal,0,1,2298.0318651999987,1,4.0,2.6124456000106875,1,True,13,A,2023-09-11_08h45.40.957,exp3,2022.2.2,
,,,,,,,,,,,,,,,,,,,,,,,106,-2274,Valid,noise,0,2,2301.807655199984,1,3.0,2.8131310000026133,1,True,13,A,2023-09-11_08h45.40.957,exp3,2022.2.2,
,,,,,,,,,,,,,,,,,,,,,,,107,-2274,Valid,noise,0,2,2310.703946099995,1,3.0,9.04831060001743,1,True,13,A,2023-09-11_08h45.40.957,exp3,2022.2.2,
,,,,,,,,,,,,,,,,,,,,,,,108,-1716,Valid,signal,0,1,2316.1129258,1,4.0,3.3472127999993972,1,True,13,A,2023-09-11_08h45.40.957,exp3,2022.2.2,
,,,,,,,,,,,,,,,,,,,,,,,109,557,Valid,noise,0,2,2320.063816699985,1,3.0,2.8623122999852058,1,True,13,A,2023-09-11_08h45.40.957,exp3,2022.2.2,
,,,,,,,,,,,,,,,,,,,,,,,110,1716,Valid,noise,0,2,2323.504640899977,1,3.0,2.5130700999870896,1,True,13,A,2023-09-11_08h45.40.957,exp3,2022.2.2,
,,,,,,,,,,,,,,,,,,,,,,,111,-1716,Valid,noise,0,2,2326.8967296999763,1,3.0,2.512089099996956,1,True,13,A,2023-09-11_08h45.40.957,exp3,2022.2.2,
,,,,,,,,,,,,,,,,,,,,,,,112,557,Valid,noise,0,2,2330.4315147000016,1,4.0,2.279443999985233,1,True,13,A,2023-09-11_08h45.40.957,exp3,2022.2.2,
,,,,,,,,,,,,,,,,,,,,,,,113,-557,Valid,noise,0,2,2333.5685709999816,1,4.0,2.062742799986154,1,True,13,A,2023-09-11_08h45.40.957,exp3,2022.2.2,
,,,,,,,,,,,,,,,,,,,,,,,114,-557,Valid,signal,0,1,2337.1836972999736,1,4.0,2.612485099991318,1,True,13,A,2023-09-11_08h45.40.957,exp3,2022.2.2,
,,,,,,,,,,,,,,,,,,,,,,,115,557,Valid,noise,0,2,2340.511727299978,1,4.0,2.9464573000150267,1,True,13,A,2023-09-11_08h45.40.957,exp3,2022.2.2,
,,,,,,,,,,,,,,,,,,,,,,,116,2274,Invalid,noise,0,1,2344.7838348999794,0,1.0,4.14737530000275,1,True,13,A,2023-09-11_08h45.40.957,exp3,2022.2.2,
,,,,,,,,,,,,,,,,,,,,,,,117,557,Valid,noise,0,2,2349.856350199989,1,4.0,3.345829500001855,1,True,13,A,2023-09-11_08h45.40.957,exp3,2022.2.2,
,,,,,,,,,,,,,,,,,,,,,,,118,1716,Valid,signal,0,1,2354.0486842999817,1,3.0,2.446079799992731,1,True,13,A,2023-09-11_08h45.40.957,exp3,2022.2.2,
,,,,,,,,,,,,,,,,,,,,,,,119,-557,Valid,noise,0,2,2360.4163390999893,1,4.0,5.563705499982461,2,True,13,A,2023-09-11_08h45.40.957,exp3,2022.2.2,
,,,,,,,,,,,,,,,,,,,,,,,120,-1158,Valid,signal,0,1,2365.24796779998,1,4.0,3.51342149998527,1,True,13,A,2023-09-11_08h45.40.957,exp3,2022.2.2,
,,,,,,,,,,,,,,,,,,,,,,,121,-1716,Valid,noise,0,2,2369.119525599992,1,4.0,3.0126359999994747,1,True,13,A,2023-09-11_08h45.40.957,exp3,2022.2.2,
,,,,,,,,,,,,,,,,,,,,,,,122,1158,Valid,noise,0,2,2372.7356487999787,1,3.0,2.746488300006604,1,True,13,A,2023-09-11_08h45.40.957,exp3,2022.2.2,
,,,,,,,,,,,,,,,,,,,,,,,123,-1716,Invalid,noise,0,2,2376.5929173999757,1,3.0,2.5632870999979787,1,True,13,A,2023-09-11_08h45.40.957,exp3,2022.2.2,
,,,,,,,,,,,,,,,,,,,,,,,124,-2274,Valid,noise,0,2,2380.3999007999955,1,3.0,3.028839999984484,1,True,13,A,2023-09-11_08h45.40.957,exp3,2022.2.2,
,,,,,,,,,,,,,,,,,,,,,,,125,2274,Valid,signal,0,2,2383.792849499994,0,2.0,2.94650720001664,1,True,13,A,2023-09-11_08h45.40.957,exp3,2022.2.2,
,,,,,,,,,,,,,,,,,,,,,,,126,2274,Valid,noise,0,2,2388.2568344999745,1,3.0,2.7629100999911316,1,True,13,A,2023-09-11_08h45.40.957,exp3,2022.2.2,
,,,,,,,,,,,,,,,,,,,,,,,127,2274,Valid,signal,0,2,2391.7601626999967,0,3.0,2.396035599987954,1,True,13,A,2023-09-11_08h45.40.957,exp3,2022.2.2,
,,,,,,,,,,,,,,,,,,,,,,,128,-2274,Invalid,noise,0,2,2395.264336399996,1,3.0,2.5127573999925517,1,True,13,A,2023-09-11_08h45.40.957,exp3,2022.2.2,
,,,,,,,,,,,,,,,,,,,,,,,129,557,Valid,signal,0,1,2398.7363910999848,1,4.0,2.596343600016553,1,True,13,A,2023-09-11_08h45.40.957,exp3,2022.2.2,
,,,,,,,,,,,,,,,,,,,,,,,130,-1716,Valid,signal,0,1,2402.048404299974,1,4.0,2.328932900010841,1,True,13,A,2023-09-11_08h45.40.957,exp3,2022.2.2,
,,,,,,,,,,,,,,,,,,,,,,,131,-1716,Valid,signal,0,1,2405.56876189998,1,4.0,2.4296093999873847,1,True,13,A,2023-09-11_08h45.40.957,exp3,2022.2.2,
,,,,,,,,,,,,,,,,,,,,,,,132,1158,Valid,signal,0,1,2408.9449080999766,1,4.0,2.262831100000767,1,True,13,A,2023-09-11_08h45.40.957,exp3,2022.2.2,
,,,,,,,,,,,,,,,,,,,,,,,133,-1158,Invalid,noise,0,2,2412.144179900002,1,3.0,2.629471200023545,1,True,13,A,2023-09-11_08h45.40.957,exp3,2022.2.2,
,,,,,,,,,,,,,,,,,,,,,,,134,557,Invalid,signal,0,1,2416.816381199984,1,4.0,3.2799044999992475,1,True,13,A,2023-09-11_08h45.40.957,exp3,2022.2.2,
,,,,,,,,,,,,,,,,,,,,,,,135,1716,Invalid,signal,0,1,2420.576360899984,1,4.0,2.9626984000205994,1,True,13,A,2023-09-11_08h45.40.957,exp3,2022.2.2,
,,,,,,,,,,,,,,,,,,,,,,,136,-1716,Valid,signal,0,1,2423.9838781,1,4.0,2.2460163999930955,1,True,13,A,2023-09-11_08h45.40.957,exp3,2022.2.2,
,,,,,,,,,,,,,,,,,,,,,,,137,-1158,Valid,noise,0,2,2427.2325606999802,1,3.0,2.446083000017097,1,True,13,A,2023-09-11_08h45.40.957,exp3,2022.2.2,
,,,,,,,,,,,,,,,,,,,,,,,138,557,Valid,signal,0,1,2430.7048381999775,1,4.0,2.362835299980361,1,True,13,A,2023-09-11_08h45.40.957,exp3,2022.2.2,
,,,,,,,,,,,,,,,,,,,,,,,139,2274,Invalid,noise,0,2,2434.9436104999913,1,3.0,3.463123800000176,1,True,13,A,2023-09-11_08h45.40.957,exp3,2022.2.2,
,,,,,,,,,,,,,,,,,,,,,,,140,2274,Valid,signal,0,1,2439.184461500001,1,2.0,3.029600699985167,1,True,13,A,2023-09-11_08h45.40.957,exp3,2022.2.2,
,,,,,,,,,,,,,,,,,,,,,,,141,-1716,Invalid,noise,0,2,2443.296307199984,1,3.0,2.97967620001873,1,True,13,A,2023-09-11_08h45.40.957,exp3,2022.2.2,
,,,,,,,,,,,,,,,,,,,,,,,142,557,Valid,noise,0,2,2446.8968013999984,1,4.0,2.7799991999927443,1,True,13,A,2023-09-11_08h45.40.957,exp3,2022.2.2,
,,,,,,,,,,,,,,,,,,,,,,,143,-1158,Valid,signal,0,1,2450.4000242999755,1,4.0,2.495691899996018,1,True,13,A,2023-09-11_08h45.40.957,exp3,2022.2.2,
,,,,,,,,,,,,,,,,,,,,,,,144,-1716,Valid,signal,0,1,2454.0489694999997,1,4.0,2.3789976999978535,1,True,13,A,2023-09-11_08h45.40.957,exp3,2022.2.2,
,,,,,,,,,,,,,,,,,,,,,,,145,-2274,Valid,noise,0,2,2457.343884699978,1,3.0,2.5462278999912087,1,True,13,A,2023-09-11_08h45.40.957,exp3,2022.2.2,
,,,,,,,,,,,,,,,,,,,,,,,146,-1716,Valid,noise,0,2,2460.8155275999743,1,4.0,2.7792939000064507,1,True,13,A,2023-09-11_08h45.40.957,exp3,2022.2.2,
,,,,,,,,,,,,,,,,,,,,,,,147,-2274,Valid,signal,0,1,2464.6718370999733,1,4.0,2.4630991999874823,1,True,13,A,2023-09-11_08h45.40.957,exp3,2022.2.2,
,,,,,,,,,,,,,,,,,,,,,,,148,1716,Valid,signal,0,1,2468.2241437999764,1,4.0,2.362744500016561,1,True,13,A,2023-09-11_08h45.40.957,exp3,2022.2.2,
,,,,,,,,,,,,,,,,,,,,,,,149,-557,Valid,signal,0,1,2471.1685655999754,1,4.0,1.9462239999847952,1,True,13,A,2023-09-11_08h45.40.957,exp3,2022.2.2,
,,,,,,,,,,,,,,,,,,,,,,,150,-557,Valid,noise,0,2,2474.3519518999965,1,3.0,2.395966899988707,1,True,13,A,2023-09-11_08h45.40.957,exp3,2022.2.2,
,,,,,,,,,,,,,,,,,,,,,,,151,1716,Valid,noise,0,2,2482.928455999994,1,4.0,7.597904800000833,3,True,13,A,2023-09-11_08h45.40.957,exp3,2022.2.2,
,,,,,,,,,,,,,,,,,,,,,,,152,557,Valid,signal,0,1,2486.97563489998,1,4.0,2.9459814000001643,1,True,13,A,2023-09-11_08h45.40.957,exp3,2022.2.2,
,,,,,,,,,,,,,,,,,,,,,,,153,1158,Valid,signal,0,1,2490.3356478999776,1,4.0,2.21363049998763,1,True,13,A,2023-09-11_08h45.40.957,exp3,2022.2.2,
,,,,,,,,,,,,,,,,,,,,,,,154,1716,Valid,noise,0,2,2493.487820599985,1,3.0,2.3788283000176307,1,True,13,A,2023-09-11_08h45.40.957,exp3,2022.2.2,
,,,,,,,,,,,,,,,,,,,,,,,155,1716,Valid,noise,0,2,2497.040345699992,1,3.0,2.9295870999922045,1,True,13,A,2023-09-11_08h45.40.957,exp3,2022.2.2,
,,,,,,,,,,,,,,,,,,,,,,,156,1716,Valid,signal,0,1,2500.9278602999984,1,4.0,2.712609699985478,1,True,13,A,2023-09-11_08h45.40.957,exp3,2022.2.2,
,,,,,,,,,,,,,,,,,,,,,,,157,-1158,Valid,noise,0,2,2504.575952299987,1,3.0,2.3128717000072356,1,True,13,A,2023-09-11_08h45.40.957,exp3,2022.2.2,
,,,,,,,,,,,,,,,,,,,,,,,158,-2274,Valid,noise,0,2,2513.0720621999935,1,4.0,7.448650700011058,2,True,13,A,2023-09-11_08h45.40.957,exp3,2022.2.2,
,,,,,,,,,,,,,,,,,,,,,,,159,557,Valid,signal,0,1,2516.3205891999824,1,4.0,2.2955266000062693,1,True,13,A,2023-09-11_08h45.40.957,exp3,2022.2.2,
,,,,,,,,,,,,,,,,,,,,,,,160,-557,Valid,noise,0,2,2519.791616499977,1,4.0,2.5299072999914642,1,True,13,A,2023-09-11_08h45.40.957,exp3,2022.2.2,
,,,,,,,,,,,,,,,,,,,,,,,161,-557,Valid,noise,0,2,2523.183537899982,1,4.0,2.228760699974373,1,True,13,A,2023-09-11_08h45.40.957,exp3,2022.2.2,
,,,,,,,,,,,,,,,,,,,,,,,162,1158,Invalid,signal,0,1,2527.0078192999936,1,4.0,2.79613539998536,1,True,13,A,2023-09-11_08h45.40.957,exp3,2022.2.2,
,,,,,,,,,,,,,,,,,,,,,,,163,1716,Valid,signal,0,1,2530.2722302999755,1,4.0,2.2295107999816537,1,True,13,A,2023-09-11_08h45.40.957,exp3,2022.2.2,
,,,,,,,,,,,,,,,,,,,,,,,164,1158,Valid,signal,0,1,2533.3288600999804,1,4.0,1.996402400021907,1,True,13,A,2023-09-11_08h45.40.957,exp3,2022.2.2,
,,,,,,,,,,,,,,,,,,,,,,,165,-2274,Valid,noise,0,2,2536.4319328999845,1,4.0,2.195738700014772,1,True,13,A,2023-09-11_08h45.40.957,exp3,2022.2.2,
,,,,,,,,,,,,,,,,,,,,,,,166,-2274,Invalid,noise,0,2,2539.6483630999865,1,3.0,2.4295281000086106,1,True,13,A,2023-09-11_08h45.40.957,exp3,2022.2.2,
,,,,,,,,,,,,,,,,,,,,,,,167,-1158,Invalid,noise,0,2,2542.912448099989,1,3.0,2.1959524000121746,1,True,13,A,2023-09-11_08h45.40.957,exp3,2022.2.2,
,,,,,,,,,,,,,,,,,,,,,,,168,557,Valid,signal,0,1,2546.3358662999817,1,4.0,2.245903599978192,1,True,13,A,2023-09-11_08h45.40.957,exp3,2022.2.2,
,,,,,,,,,,,,,,,,,,,,,,,169,-1158,Valid,noise,0,2,2549.584639799985,1,3.0,2.34628519997932,1,True,13,A,2023-09-11_08h45.40.957,exp3,2022.2.2,
,,,,,,,,,,,,,,,,,,,,,,,170,-1158,Valid,noise,0,2,2552.9121464999916,1,3.0,2.179026199999498,1,True,13,A,2023-09-11_08h45.40.957,exp3,2022.2.2,
,,,,,,,,,,,,,,,,,,,,,,,171,-2274,Valid,signal,0,1,2556.3841581000015,1,3.0,2.9295122000039555,1,True,13,A,2023-09-11_08h45.40.957,exp3,2022.2.2,
,,,,,,,,,,,,,,,,,,,,,,,172,-2274,Valid,signal,0,1,2560.288172999979,1,3.0,2.4793305000057444,1,True,13,A,2023-09-11_08h45.40.957,exp3,2022.2.2,
,,,,,,,,,,,,,,,,,,,,,,,173,-2274,Valid,noise,0,2,2563.8403679999756,1,2.0,3.463133100012783,1,True,13,A,2023-09-11_08h45.40.957,exp3,2022.2.2,
,,,,,,,,,,,,,,,,,,,,,,,174,2274,Valid,noise,0,2,2568.6566385999904,1,1.0,3.046405800007051,1,True,13,A,2023-09-11_08h45.40.957,exp3,2022.2.2,
,,,,,,,,,,,,,,,,,,,,,,,175,1158,Invalid,signal,0,1,2572.080757299991,1,4.0,2.429531900008442,1,True,13,A,2023-09-11_08h45.40.957,exp3,2022.2.2,
,,,,,,,,,,,,,,,,,,,,,,,176,2274,Valid,noise,0,2,2575.9050257999916,1,3.0,2.6127159999741707,1,True,13,A,2023-09-11_08h45.40.957,exp3,2022.2.2,
,,,,,,,,,,,,,,,,,,,,,,,2,-1716,Valid,noise,0,2,2722.3840925999975,1,3.0,5.744374000001699,1,True,13,A,2023-09-11_08h45.40.957,exp3,2022.2.2,
,,,,,,,,,,,,,,,,,,,,,,,4,2274,Valid,noise,0,2,2729.344362499978,1,3.0,2.8462186999968253,1,True,13,A,2023-09-11_08h45.40.957,exp3,2022.2.2,
,,,,,,,,,,,,,,,,,,,,,,,6,1158,Invalid,noise,0,2,2732.704457999993,1,3.0,2.395933600026183,1,True,13,A,2023-09-11_08h45.40.957,exp3,2022.2.2,
,,,,,,,,,,,,,,,,,,,,,,,8,1716,Valid,signal,0,1,2736.191671299981,1,4.0,2.9629759000090417,1,True,13,A,2023-09-11_08h45.40.957,exp3,2022.2.2,
,,,,,,,,,,,,,,,,,,,,,,,10,1716,Valid,signal,0,1,2740.1285513999755,1,4.0,2.2628398000088055,1,True,13,A,2023-09-11_08h45.40.957,exp3,2022.2.2,
,,,,,,,,,,,,,,,,,,,,,,,12,1716,Valid,noise,0,2,2743.4720260999748,1,3.0,2.3792350000003353,1,True,13,A,2023-09-11_08h45.40.957,exp3,2022.2.2,
,,,,,,,,,,,,,,,,,,,,,,,14,-557,Valid,noise,0,2,2746.7205949999916,1,3.0,2.4795666999998502,1,True,13,A,2023-09-11_08h45.40.957,exp3,2022.2.2,
,,,,,,,,,,,,,,,,,,,,,,,16,-557,Valid,signal,0,1,2750.0960135999776,1,4.0,2.112477399990894,1,True,13,A,2023-09-11_08h45.40.957,exp3,2022.2.2,
,,,,,,,,,,,,,,,,,,,,,,,18,-1716,Invalid,noise,0,2,2753.5204741999914,1,3.0,2.395650399994338,1,True,13,A,2023-09-11_08h45.40.957,exp3,2022.2.2,
,,,,,,,,,,,,,,,,,,,,,,,20,557,Valid,signal,0,1,2756.6237554999825,1,4.0,2.32998249999946,1,True,13,A,2023-09-11_08h45.40.957,exp3,2022.2.2,
,,,,,,,,,,,,,,,,,,,,,,,22,-557,Invalid,signal,0,2,2760.192889400001,0,1.0,3.7129821999988053,1,True,13,A,2023-09-11_08h45.40.957,exp3,2022.2.2,
,,,,,,,,,,,,,,,,,,,,,,,24,1158,Valid,signal,0,1,2764.7844657999813,1,4.0,2.4957249999861233,1,True,13,A,2023-09-11_08h45.40.957,exp3,2022.2.2,
,,,,,,,,,,,,,,,,,,,,,,,26,-2274,Valid,noise,0,2,2768.624628699996,1,3.0,2.4792645999987144,1,True,13,A,2023-09-11_08h45.40.957,exp3,2022.2.2,
,,,,,,,,,,,,,,,,,,,,,,,28,-2274,Valid,noise,0,2,2771.888443499978,1,3.0,2.16302700000233,1,True,13,A,2023-09-11_08h45.40.957,exp3,2022.2.2,
,,,,,,,,,,,,,,,,,,,,,,,30,1158,Valid,signal,0,1,2774.8165612999874,1,4.0,2.8793991000275128,1,True,13,A,2023-09-11_08h45.40.957,exp3,2022.2.2,
,,,,,,,,,,,,,,,,,,,,,,,32,557,Invalid,signal,0,1,2779.4567295000015,1,4.0,2.8293065000034403,1,True,13,A,2023-09-11_08h45.40.957,exp3,2022.2.2,
,,,,,,,,,,,,,,,,,,,,,,,34,1716,Valid,noise,0,2,2782.6881491999957,1,3.0,2.4125628999900073,1,True,13,A,2023-09-11_08h45.40.957,exp3,2022.2.2,
,,,,,,,,,,,,,,,,,,,,,,,36,1716,Valid,noise,0,2,2786.0006767000013,1,3.0,2.229198199987877,1,True,13,A,2023-09-11_08h45.40.957,exp3,2022.2.2,
,,,,,,,,,,,,,,,,,,,,,,,38,1716,Valid,noise,0,2,2789.18451989998,1,4.0,2.212890700000571,1,True,13,A,2023-09-11_08h45.40.957,exp3,2022.2.2,
,,,,,,,,,,,,,,,,,,,,,,,40,-1158,Valid,noise,0,2,2792.527829400002,1,4.0,2.2958250000083353,1,True,13,A,2023-09-11_08h45.40.957,exp3,2022.2.2,
,,,,,,,,,,,,,,,,,,,,,,,42,1716,Valid,signal,0,1,2795.855786799977,1,4.0,2.3961720999795943,1,True,13,A,2023-09-11_08h45.40.957,exp3,2022.2.2,
,,,,,,,,,,,,,,,,,,,,,,,44,2274,Valid,signal,0,2,2801.1357277999923,0,2.0,4.380068400001619,1,True,13,A,2023-09-11_08h45.40.957,exp3,2022.2.2,
,,,,,,,,,,,,,,,,,,,,,,,46,557,Valid,signal,0,1,2804.6556698999775,1,4.0,2.163352500007022,1,True,13,A,2023-09-11_08h45.40.957,exp3,2022.2.2,
,,,,,,,,,,,,,,,,,,,,,,,48,-557,Invalid,noise,0,2,2808.528818199993,1,4.0,2.9957163000071887,1,True,13,A,2023-09-11_08h45.40.957,exp3,2022.2.2,
,,,,,,,,,,,,,,,,,,,,,,,50,-1716,Valid,noise,0,2,2812.224258799979,1,3.0,2.779459899989888,1,True,13,A,2023-09-11_08h45.40.957,exp3,2022.2.2,
,,,,,,,,,,,,,,,,,,,,,,,52,-1158,Invalid,noise,0,2,2815.791757899977,1,4.0,2.396085899992613,1,True,13,A,2023-09-11_08h45.40.957,exp3,2022.2.2,
,,,,,,,,,,,,,,,,,,,,,,,54,-1158,Valid,signal,0,1,2819.2488015999843,1,4.0,2.562693699990632,1,True,13,A,2023-09-11_08h45.40.957,exp3,2022.2.2,
,,,,,,,,,,,,,,,,,,,,,,,56,1716,Valid,signal,0,1,2822.5445332999807,1,4.0,2.079248499998357,1,True,13,A,2023-09-11_08h45.40.957,exp3,2022.2.2,
,,,,,,,,,,,,,,,,,,,,,,,58,-1158,Valid,signal,0,1,2825.503657299996,1,4.0,1.9292784000281245,1,True,13,A,2023-09-11_08h45.40.957,exp3,2022.2.2,
,,,,,,,,,,,,,,,,,,,,,,,60,-557,Valid,noise,0,2,2828.48024959999,1,3.0,2.2464741000148933,1,True,13,A,2023-09-11_08h45.40.957,exp3,2022.2.2,
,,,,,,,,,,,,,,,,,,,,,,,62,-1716,Valid,noise,0,2,2832.0489279999747,1,4.0,2.562498899991624,1,True,13,A,2023-09-11_08h45.40.957,exp3,2022.2.2,
,,,,,,,,,,,,,,,,,,,,,,,64,1716,Valid,signal,0,1,2835.71288799998,1,3.0,2.6627045999921393,1,True,13,A,2023-09-11_08h45.40.957,exp3,2022.2.2,
,,,,,,,,,,,,,,,,,,,,,,,66,1716,Valid,noise,0,2,2839.7443217999826,1,4.0,3.045706799981417,1,True,13,A,2023-09-11_08h45.40.957,exp3,2022.2.2,
,,,,,,,,,,,,,,,,,,,,,,,68,-1716,Valid,noise,0,2,2843.327881999983,1,4.0,2.312487899995176,1,True,13,A,2023-09-11_08h45.40.957,exp3,2022.2.2,
,,,,,,,,,,,,,,,,,,,,,,,70,1158,Valid,signal,0,1,2846.5600626999803,1,4.0,2.2799954999936745,1,True,13,A,2023-09-11_08h45.40.957,exp3,2022.2.2,
,,,,,,,,,,,,,,,,,,,,,,,72,2274,Valid,signal,0,2,2849.6478363999922,0,3.0,2.4288852000026964,1,True,13,A,2023-09-11_08h45.40.957,exp3,2022.2.2,
,,,,,,,,,,,,,,,,,,,,,,,74,557,Valid,signal,0,1,2853.183833499992,1,4.0,2.6463899000082165,1,True,13,A,2023-09-11_08h45.40.957,exp3,2022.2.2,
,,,,,,,,,,,,,,,,,,,,,,,76,1716,Valid,noise,0,2,2856.94438619999,1,4.0,2.262265800003661,1,True,13,A,2023-09-11_08h45.40.957,exp3,2022.2.2,
,,,,,,,,,,,,,,,,,,,,,,,78,-2274,Invalid,signal,0,2,2861.1047840999963,0,2.0,3.279756300005829,1,True,13,A,2023-09-11_08h45.40.957,exp3,2022.2.2,
,,,,,,,,,,,,,,,,,,,,,,,80,1158,Valid,noise,0,2,2864.8320681999903,1,3.0,2.662583299999824,1,True,13,A,2023-09-11_08h45.40.957,exp3,2022.2.2,
,,,,,,,,,,,,,,,,,,,,,,,82,1716,Valid,signal,0,1,2868.0648776000016,1,4.0,2.362756700022146,1,True,13,A,2023-09-11_08h45.40.957,exp3,2022.2.2,
,,,,,,,,,,,,,,,,,,,,,,,84,-1716,Valid,noise,0,2,2872.01569,1,4.0,2.812992799998028,1,True,13,A,2023-09-11_08h45.40.957,exp3,2022.2.2,
,,,,,,,,,,,,,,,,,,,,,,,86,-1716,Invalid,noise,0,2,2876.0961500999983,1,3.0,3.296194499998819,1,True,13,A,2023-09-11_08h45.40.957,exp3,2022.2.2,
,,,,,,,,,,,,,,,,,,,,,,,88,1158,Invalid,signal,0,1,2879.98429339999,1,4.0,2.6971516000048723,1,True,13,A,2023-09-11_08h45.40.957,exp3,2022.2.2,
,,,,,,,,,,,,,,,,,,,,,,,90,557,Valid,noise,0,2,2883.4410548000014,1,4.0,2.645432499994058,1,True,13,A,2023-09-11_08h45.40.957,exp3,2022.2.2,
,,,,,,,,,,,,,,,,,,,,,,,92,-557,Valid,signal,0,1,2887.505037900002,1,4.0,2.846234900003765,1,True,13,A,2023-09-11_08h45.40.957,exp3,2022.2.2,
,,,,,,,,,,,,,,,,,,,,,,,94,-2274,Valid,signal,0,1,2890.7683283999795,1,4.0,2.162126100010937,1,True,13,A,2023-09-11_08h45.40.957,exp3,2022.2.2,
,,,,,,,,,,,,,,,,,,,,,,,96,557,Valid,noise,0,2,2893.920996699977,1,4.0,2.746245899994392,1,True,13,A,2023-09-11_08h45.40.957,exp3,2022.2.2,
,,,,,,,,,,,,,,,,,,,,,,,98,-2274,Valid,signal,0,1,2897.599736199976,1,4.0,2.4466215999855194,1,True,13,A,2023-09-11_08h45.40.957,exp3,2022.2.2,
,,,,,,,,,,,,,,,,,,,,,,,100,2274,Valid,noise,0,2,2900.9449896999868,1,4.0,2.378901099989889,1,True,13,A,2023-09-11_08h45.40.957,exp3,2022.2.2,
,,,,,,,,,,,,,,,,,,,,,,,102,1716,Valid,signal,0,1,2904.3363964999735,1,4.0,2.0964339000056498,1,True,13,A,2023-09-11_08h45.40.957,exp3,2022.2.2,
,,,,,,,,,,,,,,,,,,,,,,,104,-557,Valid,noise,0,1,2907.567657799984,0,4.0,3.5130719000007957,1,True,13,A,2023-09-11_08h45.40.957,exp3,2022.2.2,
,,,,,,,,,,,,,,,,,,,,,,,106,557,Invalid,noise,0,2,2913.3604414,1,4.0,3.663121699995827,1,True,13,A,2023-09-11_08h45.40.957,exp3,2022.2.2,
,,,,,,,,,,,,,,,,,,,,,,,108,-1158,Valid,noise,0,2,2916.9599555000023,1,3.0,2.6630898999865167,1,True,13,A,2023-09-11_08h45.40.957,exp3,2022.2.2,
,,,,,,,,,,,,,,,,,,,,,,,110,1158,Valid,noise,0,2,2920.2401153999963,1,4.0,1.9950993999955244,1,True,13,A,2023-09-11_08h45.40.957,exp3,2022.2.2,
,,,,,,,,,,,,,,,,,,,,,,,112,-557,Valid,noise,0,2,2923.168481999979,1,4.0,1.8459278999944218,1,True,13,A,2023-09-11_08h45.40.957,exp3,2022.2.2,
,,,,,,,,,,,,,,,,,,,,,,,114,1716,Valid,noise,0,2,2926.03171499999,1,4.0,1.829362399992533,1,True,13,A,2023-09-11_08h45.40.957,exp3,2022.2.2,
,,,,,,,,,,,,,,,,,,,,,,,116,-557,Valid,signal,0,1,2929.039953300002,1,4.0,2.162474300013855,1,True,13,A,2023-09-11_08h45.40.957,exp3,2022.2.2,
,,,,,,,,,,,,,,,,,,,,,,,118,2274,Valid,noise,0,2,2932.0479614999786,1,4.0,1.9957606999960262,1,True,13,A,2023-09-11_08h45.40.957,exp3,2022.2.2,
,,,,,,,,,,,,,,,,,,,,,,,120,1158,Invalid,signal,0,2,2935.08877089998,0,1.0,3.230205700005172,1,True,13,A,2023-09-11_08h45.40.957,exp3,2022.2.2,
,,,,,,,,,,,,,,,,,,,,,,,122,1158,Valid,noise,0,2,2939.5683997999877,1,4.0,2.462290800001938,1,True,13,A,2023-09-11_08h45.40.957,exp3,2022.2.2,
,,,,,,,,,,,,,,,,,,,,,,,124,-1716,Valid,signal,0,1,2943.1367033999995,1,4.0,2.5131051000207663,1,True,13,A,2023-09-11_08h45.40.957,exp3,2022.2.2,
,,,,,,,,,,,,,,,,,,,,,,,126,-1158,Valid,signal,0,1,2946.608673599985,1,4.0,2.2455107000132557,1,True,13,A,2023-09-11_08h45.40.957,exp3,2022.2.2,
,,,,,,,,,,,,,,,,,,,,,,,128,-557,Valid,signal,0,1,2949.7604309999733,1,4.0,2.1457082999986596,1,True,13,A,2023-09-11_08h45.40.957,exp3,2022.2.2,
,,,,,,,,,,,,,,,,,,,,,,,130,-1158,Invalid,noise,0,2,2953.2643658999878,1,4.0,3.0798624000162818,1,True,13,A,2023-09-11_08h45.40.957,exp3,2022.2.2,
,,,,,,,,,,,,,,,,,,,,,,,132,-557,Valid,noise,0,2,2956.928946399974,1,4.0,2.145759100007126,1,True,13,A,2023-09-11_08h45.40.957,exp3,2022.2.2,
,,,,,,,,,,,,,,,,,,,,,,,134,557,Valid,signal,0,1,2960.384470399993,1,4.0,2.579440900008194,1,True,13,A,2023-09-11_08h45.40.957,exp3,2022.2.2,
,,,,,,,,,,,,,,,,,,,,,,,136,557,Valid,noise,0,2,2963.7925430999894,1,4.0,2.4294900000095367,1,True,13,A,2023-09-11_08h45.40.957,exp3,2022.2.2,
