trials.label,trials.startVal,trials.maxVal,trials.minVal,trials.startValSd,trials.pthreshold,trials.beta,trials.delta,trials.gamma,trials.grain,trials.stepSize,trials.range,trials.cue,trials.thisIndex,trials.thisRepN,trials.thisN,trials.direction,trials.stepType,trials.intensity,signalOpacity,stair_response_correct,level,trials.response,stair_eye_ok,nTrial,position,validity,Stimulus,orientation,response_key,response_rt,response_correct,confidence,confidence_rt,eye_ok,trial_rep,participant,session,date,expName,psychopyVersion,
low_opac_v,0.4,1,0.01,3,0.82,3.5,0.01,0,0.01,4,5,Valid,0,1,0,start,lin,0.4,0,1,0.4,1,True,,,,,,,,,,,,,22,A,2023-09-18_10h43.23.229,exp3,2022.2.2,
high_opac_v,0.01,1,0.01,3,0.82,3.5,0.01,0,0.01,4,5,Valid,1,1,1,start,lin,0.01,0.01,0,0.01,0,True,,,,,,,,,,,,,22,A,2023-09-18_10h43.23.229,exp3,2022.2.2,
low_opac_i,0.4,1,0.01,3,0.82,3.5,0.01,0,0.01,4,5,Invalid,2,1,2,start,lin,0.4,0,1,0.4,1,True,,,,,,,,,,,,,22,A,2023-09-18_10h43.23.229,exp3,2022.2.2,
low_opac_i,0.4,1,0.01,3,0.82,3.5,0.01,0,0.01,4,5,Invalid,2,2,3,start,lin,0.01,0.01,0,0.01,0,True,,,,,,,,,,,,,22,A,2023-09-18_10h43.23.229,exp3,2022.2.2,
high_opac_v,0.01,1,0.01,3,0.82,3.5,0.01,0,0.01,4,5,Valid,1,2,4,start,lin,1,0,1,1,1,True,,,,,,,,,,,,,22,A,2023-09-18_10h43.23.229,exp3,2022.2.2,
low_opac_v,0.4,1,0.01,3,0.82,3.5,0.01,0,0.01,4,5,Valid,0,2,5,start,lin,0.01,0.01,0,0.01,0,True,,,,,,,,,,,,,22,A,2023-09-18_10h43.23.229,exp3,2022.2.2,
low_opac_v,0.4,1,0.01,3,0.82,3.5,0.01,0,0.01,4,5,Valid,0,3,6,start,lin,0.3144098688205103,0,1,0.3144098688205103,1,True,,,,,,,,,,,,,22,A,2023-09-18_10h43.23.229,exp3,2022.2.2,
low_opac_i,0.4,1,0.01,3,0.82,3.5,0.01,0,0.01,4,5,Invalid,2,3,7,start,lin,0.3144098688205103,0.3144098688205103,1,0.3144098688205103,1,True,,,,,,,,,,,,,22,A,2023-09-18_10h43.23.229,exp3,2022.2.2,
high_opac_v,0.01,1,0.01,3,0.82,3.5,0.01,0,0.01,4,5,Valid,1,3,8,start,lin,0.6092784667527542,0,0,0.6092784667527542,0,True,,,,,,,,,,,,,22,A,2023-09-18_10h43.23.229,exp3,2022.2.2,
low_opac_i,0.4,1,0.01,3,0.82,3.5,0.01,0,0.01,4,5,Invalid,2,4,9,start,lin,0.23561159539411833,0,1,0.23561159539411833,1,True,,,,,,,,,,,,,22,A,2023-09-18_10h43.23.229,exp3,2022.2.2,
low_opac_v,0.4,1,0.01,3,0.82,3.5,0.01,0,0.01,4,5,Valid,0,4,10,start,lin,0.23561159539411833,0.23561159539411833,1,0.23561159539411833,1,True,,,,,,,,,,,,,22,A,2023-09-18_10h43.23.229,exp3,2022.2.2,
high_opac_v,0.01,1,0.01,3,0.82,3.5,0.01,0,0.01,4,5,Valid,1,4,11,start,lin,0.9191465986340989,0,1,0.9191465986340989,1,True,,,,,,,,,,,,,22,A,2023-09-18_10h43.23.229,exp3,2022.2.2,
high_opac_v,0.01,1,0.01,3,0.82,3.5,0.01,0,0.01,4,5,Valid,1,5,12,start,lin,0.8467093650301718,0.8467093650301718,1,0.8467093650301718,1,True,,,,,,,,,,,,,22,A,2023-09-18_10h43.23.229,exp3,2022.2.2,
low_opac_i,0.4,1,0.01,3,0.82,3.5,0.01,0,0.01,4,5,Invalid,2,5,13,start,lin,0.1841780991895161,0.1841780991895161,1,0.1841780991895161,1,True,,,,,,,,,,,,,22,A,2023-09-18_10h43.23.229,exp3,2022.2.2,
low_opac_v,0.4,1,0.01,3,0.82,3.5,0.01,0,0.01,4,5,Valid,0,5,14,start,lin,0.1841780991895161,0.1841780991895161,1,0.1841780991895161,1,True,,,,,,,,,,,,,22,A,2023-09-18_10h43.23.229,exp3,2022.2.2,
low_opac_v,0.4,1,0.01,3,0.82,3.5,0.01,0,0.01,4,5,Valid,0,6,15,start,lin,0.14081453445857006,0.14081453445857006,1,0.14081453445857006,1,True,,,,,,,,,,,,,22,A,2023-09-18_10h43.23.229,exp3,2022.2.2,
low_opac_i,0.4,1,0.01,3,0.82,3.5,0.01,0,0.01,4,5,Invalid,2,6,16,start,lin,0.14081453445857006,0.14081453445857006,0,0.14081453445857006,0,True,,,,,,,,,,,,,22,A,2023-09-18_10h43.23.229,exp3,2022.2.2,
high_opac_v,0.01,1,0.01,3,0.82,3.5,0.01,0,0.01,4,5,Valid,1,6,17,start,lin,0.7990803615424565,0,0,0.7990803615424565,0,True,,,,,,,,,,,,,22,A,2023-09-18_10h43.23.229,exp3,2022.2.2,
low_opac_i,0.4,1,0.01,3,0.82,3.5,0.01,0,0.01,4,5,Invalid,2,7,18,start,lin,0.23618356900306736,0,1,0.23618356900306736,1,True,,,,,,,,,,,,,22,A,2023-09-18_10h43.23.229,exp3,2022.2.2,
high_opac_v,0.01,1,0.01,3,0.82,3.5,0.01,0,0.01,4,5,Valid,1,7,19,start,lin,0.9016045530918615,0,0,0.9016045530918615,0,True,,,,,,,,,,,,,22,A,2023-09-18_10h43.23.229,exp3,2022.2.2,
low_opac_v,0.4,1,0.01,3,0.82,3.5,0.01,0,0.01,4,5,Valid,0,7,20,start,lin,0.10410764613410528,0,0,0.10410764613410528,0,True,,,,,,,,,,,,,22,A,2023-09-18_10h43.23.229,exp3,2022.2.2,
low_opac_i,0.4,1,0.01,3,0.82,3.5,0.01,0,0.01,4,5,Invalid,2,8,21,start,lin,0.217312149817103,0,0,0.217312149817103,0,True,,,,,,,,,,,,,22,A,2023-09-18_10h43.23.229,exp3,2022.2.2,
high_opac_v,0.01,1,0.01,3,0.82,3.5,0.01,0,0.01,4,5,Valid,1,8,22,start,lin,0.974376288984254,0,0,0.974376288984254,0,True,,,,,,,,,,,,,22,A,2023-09-18_10h43.23.229,exp3,2022.2.2,
low_opac_v,0.4,1,0.01,3,0.82,3.5,0.01,0,0.01,4,5,Valid,0,8,23,start,lin,0.19056109375041447,0,1,0.19056109375041447,1,True,,,,,,,,,,,,,22,A,2023-09-18_10h43.23.229,exp3,2022.2.2,
high_opac_v,0.01,1,0.01,3,0.82,3.5,0.01,0,0.01,4,5,Valid,1,9,24,start,lin,1,1,1,1,1,True,,,,,,,,,,,,,22,A,2023-09-18_10h43.23.229,exp3,2022.2.2,
low_opac_v,0.4,1,0.01,3,0.82,3.5,0.01,0,0.01,4,5,Valid,0,9,25,start,lin,0.17347077109677828,0.17347077109677828,1,0.17347077109677828,1,True,,,,,,,,,,,,,22,A,2023-09-18_10h43.23.229,exp3,2022.2.2,
low_opac_i,0.4,1,0.01,3,0.82,3.5,0.01,0,0.01,4,5,Invalid,2,9,26,start,lin,0.2737805299809524,0.2737805299809524,1,0.2737805299809524,1,True,,,,,,,,,,,,,22,A,2023-09-18_10h43.23.229,exp3,2022.2.2,
high_opac_v,0.01,1,0.01,3,0.82,3.5,0.01,0,0.01,4,5,Valid,1,10,27,start,lin,1,0,1,1,1,True,,,,,,,,,,,,,22,A,2023-09-18_10h43.23.229,exp3,2022.2.2,
low_opac_i,0.4,1,0.01,3,0.82,3.5,0.01,0,0.01,4,5,Invalid,2,10,28,start,lin,0.2603958028217646,0.2603958028217646,1,0.2603958028217646,1,True,,,,,,,,,,,,,22,A,2023-09-18_10h43.23.229,exp3,2022.2.2,
low_opac_v,0.4,1,0.01,3,0.82,3.5,0.01,0,0.01,4,5,Valid,0,10,29,start,lin,0.15844504057130598,0,1,0.15844504057130598,1,True,,,,,,,,,,,,,22,A,2023-09-18_10h43.23.229,exp3,2022.2.2,
low_opac_i,0.4,1,0.01,3,0.82,3.5,0.01,0,0.01,4,5,Invalid,2,11,30,start,lin,0.24907489341035194,0,0,0.24907489341035194,0,True,,,,,,,,,,,,,22,A,2023-09-18_10h43.23.229,exp3,2022.2.2,
low_opac_v,0.4,1,0.01,3,0.82,3.5,0.01,0,0.01,4,5,Valid,0,11,31,start,lin,0.14569013635865596,0,0,0.14569013635865596,0,True,,,,,,,,,,,,,22,A,2023-09-18_10h43.23.229,exp3,2022.2.2,
high_opac_v,0.01,1,0.01,3,0.82,3.5,0.01,0,0.01,4,5,Valid,1,11,32,start,lin,1,0,0,1,0,True,,,,,,,,,,,,,22,A,2023-09-18_10h43.23.229,exp3,2022.2.2,
high_opac_v,0.01,1,0.01,3,0.82,3.5,0.01,0,0.01,4,5,Valid,1,12,33,start,lin,1,1,1,1,1,True,,,,,,,,,,,,,22,A,2023-09-18_10h43.23.229,exp3,2022.2.2,
low_opac_i,0.4,1,0.01,3,0.82,3.5,0.01,0,0.01,4,5,Invalid,2,12,34,start,lin,0.28612079952970015,0,1,0.28612079952970015,1,True,,,,,,,,,,,,,22,A,2023-09-18_10h43.23.229,exp3,2022.2.2,
low_opac_v,0.4,1,0.01,3,0.82,3.5,0.01,0,0.01,4,5,Valid,0,12,35,start,lin,0.1879379049930803,0.1879379049930803,1,0.1879379049930803,1,True,,,,,,,,,,,,,22,A,2023-09-18_10h43.23.229,exp3,2022.2.2,
low_opac_v,0.4,1,0.01,3,0.82,3.5,0.01,0,0.01,4,5,Valid,0,13,36,start,lin,0.17877075249930593,0,1,0.17877075249930593,1,True,,,,,,,,,,,,,22,A,2023-09-18_10h43.23.229,exp3,2022.2.2,
low_opac_i,0.4,1,0.01,3,0.82,3.5,0.01,0,0.01,4,5,Invalid,2,13,37,start,lin,0.2776021915639756,0,1,0.2776021915639756,1,True,,,,,,,,,,,,,22,A,2023-09-18_10h43.23.229,exp3,2022.2.2,
high_opac_v,0.01,1,0.01,3,0.82,3.5,0.01,0,0.01,4,5,Valid,1,13,38,start,lin,1,0,0,1,0,True,,,,,,,,,,,,,22,A,2023-09-18_10h43.23.229,exp3,2022.2.2,
low_opac_v,0.4,1,0.01,3,0.82,3.5,0.01,0,0.01,4,5,Valid,0,14,39,start,lin,0.17041026519670216,0,1,0.17041026519670216,1,True,,,,,,,,,,,,,22,A,2023-09-18_10h43.23.229,exp3,2022.2.2,
high_opac_v,0.01,1,0.01,3,0.82,3.5,0.01,0,0.01,4,5,Valid,1,14,40,start,lin,1,0,1,1,1,True,,,,,,,,,,,,,22,A,2023-09-18_10h43.23.229,exp3,2022.2.2,
low_opac_i,0.4,1,0.01,3,0.82,3.5,0.01,0,0.01,4,5,Invalid,2,14,41,start,lin,0.26983019185434476,0.26983019185434476,1,0.26983019185434476,1,True,,,,,,,,,,,,,22,A,2023-09-18_10h43.23.229,exp3,2022.2.2,
low_opac_v,0.4,1,0.01,3,0.82,3.5,0.01,0,0.01,4,5,Valid,0,15,42,start,lin,0.16263763298868983,0,0,0.16263763298868983,0,True,,,,,,,,,,,,,22,A,2023-09-18_10h43.23.229,exp3,2022.2.2,
low_opac_i,0.4,1,0.01,3,0.82,3.5,0.01,0,0.01,4,5,Invalid,2,15,43,start,lin,0.26261361345532425,0.26261361345532425,1,0.26261361345532425,1,True,,,,,,,,,,,,,22,A,2023-09-18_10h43.23.229,exp3,2022.2.2,
high_opac_v,0.01,1,0.01,3,0.82,3.5,0.01,0,0.01,4,5,Valid,1,15,44,start,lin,1,0,0,1,0,True,,,,,,,,,,,,,22,A,2023-09-18_10h43.23.229,exp3,2022.2.2,
low_opac_v,0.4,1,0.01,3,0.82,3.5,0.01,0,0.01,4,5,Valid,0,16,45,start,lin,0.18933196395998053,0.18933196395998053,1,0.18933196395998053,1,True,,,,,,,,,,,,,22,A,2023-09-18_10h43.23.229,exp3,2022.2.2,
high_opac_v,0.01,1,0.01,3,0.82,3.5,0.01,0,0.01,4,5,Valid,1,16,46,start,lin,1,1,1,1,1,True,,,,,,,,,,,,,22,A,2023-09-18_10h43.23.229,exp3,2022.2.2,
low_opac_i,0.4,1,0.01,3,0.82,3.5,0.01,0,0.01,4,5,Invalid,2,16,47,start,lin,0.2557807326520957,0.2557807326520957,1,0.2557807326520957,1,True,,,,,,,,,,,,,22,A,2023-09-18_10h43.23.229,exp3,2022.2.2,
high_opac_v,0.01,1,0.01,3,0.82,3.5,0.01,0,0.01,4,5,Valid,1,17,48,start,lin,1,1,1,1,1,True,,,,,,,,,,,,,22,A,2023-09-18_10h43.23.229,exp3,2022.2.2,
low_opac_v,0.4,1,0.01,3,0.82,3.5,0.01,0,0.01,4,5,Valid,0,17,49,start,lin,0.18303302351666095,0.18303302351666095,1,0.18303302351666095,1,True,,,,,,,,,,,,,22,A,2023-09-18_10h43.23.229,exp3,2022.2.2,
low_opac_i,0.4,1,0.01,3,0.82,3.5,0.01,0,0.01,4,5,Invalid,2,17,50,start,lin,0.24977044698248255,0,0,0.24977044698248255,0,True,,,,,,,,,,,,,22,A,2023-09-18_10h43.23.229,exp3,2022.2.2,
low_opac_v,0.4,1,0.01,3,0.82,3.5,0.01,0,0.01,4,5,Valid,0,18,51,start,lin,0.17696201598866357,0.17696201598866357,1,0.17696201598866357,1,True,,,,,,,,,,,,,22,A,2023-09-18_10h43.23.229,exp3,2022.2.2,
low_opac_i,0.4,1,0.01,3,0.82,3.5,0.01,0,0.01,4,5,Invalid,2,18,52,start,lin,0.27229401372480544,0.27229401372480544,1,0.27229401372480544,1,True,,,,,,,,,,,,,22,A,2023-09-18_10h43.23.229,exp3,2022.2.2,
high_opac_v,0.01,1,0.01,3,0.82,3.5,0.01,0,0.01,4,5,Valid,1,18,53,start,lin,1,0,1,1,1,True,,,,,,,,,,,,,22,A,2023-09-18_10h43.23.229,exp3,2022.2.2,
high_opac_v,0.01,1,0.01,3,0.82,3.5,0.01,0,0.01,4,5,Valid,1,19,54,start,lin,1,0,1,1,1,True,,,,,,,,,,,,,22,A,2023-09-18_10h43.23.229,exp3,2022.2.2,
low_opac_i,0.4,1,0.01,3,0.82,3.5,0.01,0,0.01,4,5,Invalid,2,19,55,start,lin,0.2668962130871009,0.2668962130871009,1,0.2668962130871009,1,True,,,,,,,,,,,,,22,A,2023-09-18_10h43.23.229,exp3,2022.2.2,
low_opac_v,0.4,1,0.01,3,0.82,3.5,0.01,0,0.01,4,5,Valid,0,19,56,start,lin,0.17157483168799093,0.17157483168799093,1,0.17157483168799093,1,True,,,,,,,,,,,,,22,A,2023-09-18_10h43.23.229,exp3,2022.2.2,
high_opac_v,0.01,1,0.01,3,0.82,3.5,0.01,0,0.01,4,5,Valid,1,20,57,start,lin,1,1,1,1,1,True,,,,,,,,,,,,,22,A,2023-09-18_10h43.23.229,exp3,2022.2.2,
low_opac_v,0.4,1,0.01,3,0.82,3.5,0.01,0,0.01,4,5,Valid,0,20,58,start,lin,0.166271566059973,0,1,0.166271566059973,1,True,,,,,,,,,,,,,22,A,2023-09-18_10h43.23.229,exp3,2022.2.2,
low_opac_i,0.4,1,0.01,3,0.82,3.5,0.01,0,0.01,4,5,Invalid,2,20,59,start,lin,0.2620694015482119,0,1,0.2620694015482119,1,True,,,,,,,,,,,,,22,A,2023-09-18_10h43.23.229,exp3,2022.2.2,
high_opac_v,0.01,1,0.01,3,0.82,3.5,0.01,0,0.01,4,5,Valid,1,21,60,start,lin,1,1,1,1,1,True,,,,,,,,,,,,,22,A,2023-09-18_10h43.23.229,exp3,2022.2.2,
low_opac_i,0.4,1,0.01,3,0.82,3.5,0.01,0,0.01,4,5,Invalid,2,21,61,start,lin,0.25726839149325337,0.25726839149325337,1,0.25726839149325337,1,True,,,,,,,,,,,,,22,A,2023-09-18_10h43.23.229,exp3,2022.2.2,
low_opac_v,0.4,1,0.01,3,0.82,3.5,0.01,0,0.01,4,5,Valid,0,21,62,start,lin,0.16149260416883443,0,1,0.16149260416883443,1,True,,,,,,,,,,,,,22,A,2023-09-18_10h43.23.229,exp3,2022.2.2,
low_opac_i,0.4,1,0.01,3,0.82,3.5,0.01,0,0.01,4,5,Invalid,2,22,63,start,lin,0.25292421089439787,0.25292421089439787,1,0.25292421089439787,1,True,,,,,,,,,,,,,22,A,2023-09-18_10h43.23.229,exp3,2022.2.2,
low_opac_v,0.4,1,0.01,3,0.82,3.5,0.01,0,0.01,4,5,Valid,0,22,64,start,lin,0.1567100531730176,0,1,0.1567100531730176,1,True,,,,,,,,,,,,,22,A,2023-09-18_10h43.23.229,exp3,2022.2.2,
high_opac_v,0.01,1,0.01,3,0.82,3.5,0.01,0,0.01,4,5,Valid,1,22,65,start,lin,1,0,0,1,0,True,,,,,,,,,,,,,22,A,2023-09-18_10h43.23.229,exp3,2022.2.2,
low_opac_v,0.4,1,0.01,3,0.82,3.5,0.01,0,0.01,4,5,Valid,0,23,66,start,lin,0.15235850150629235,0.15235850150629235,1,0.15235850150629235,1,True,,,,,,,,,,,,,22,A,2023-09-18_10h43.23.229,exp3,2022.2.2,
high_opac_v,0.01,1,0.01,3,0.82,3.5,0.01,0,0.01,4,5,Valid,1,23,67,start,lin,1,1,1,1,1,True,,,,,,,,,,,,,22,A,2023-09-18_10h43.23.229,exp3,2022.2.2,
low_opac_i,0.4,1,0.01,3,0.82,3.5,0.01,0,0.01,4,5,Invalid,2,23,68,start,lin,0.24854163213620553,0.24854163213620553,1,0.24854163213620553,1,True,,,,,,,,,,,,,22,A,2023-09-18_10h43.23.229,exp3,2022.2.2,
high_opac_v,0.01,1,0.01,3,0.82,3.5,0.01,0,0.01,4,5,Valid,1,24,69,start,lin,1,0,1,1,1,True,,,,,,,,,,,,,22,A,2023-09-18_10h43.23.229,exp3,2022.2.2,
low_opac_i,0.4,1,0.01,3,0.82,3.5,0.01,0,0.01,4,5,Invalid,2,24,70,start,lin,0.24453036280008927,0,0,0.24453036280008927,0,True,,,,,,,,,,,,,22,A,2023-09-18_10h43.23.229,exp3,2022.2.2,
low_opac_v,0.4,1,0.01,3,0.82,3.5,0.01,0,0.01,4,5,Valid,0,24,71,start,lin,0.14794370168936571,0.14794370168936571,1,0.14794370168936571,1,True,,,,,,,,,,,,,22,A,2023-09-18_10h43.23.229,exp3,2022.2.2,
low_opac_v,0.4,1,0.01,3,0.82,3.5,0.01,0,0.01,4,5,Valid,0,25,72,start,lin,0.14389018803329517,0,1,0.14389018803329517,1,True,,,,,,,,,,,,,22,A,2023-09-18_10h43.23.229,exp3,2022.2.2,
high_opac_v,0.01,1,0.01,3,0.82,3.5,0.01,0,0.01,4,5,Valid,1,25,73,start,lin,1,0,1,1,1,True,,,,,,,,,,,,,22,A,2023-09-18_10h43.23.229,exp3,2022.2.2,
low_opac_i,0.4,1,0.01,3,0.82,3.5,0.01,0,0.01,4,5,Invalid,2,25,74,start,lin,0.25949211749867473,0,1,0.25949211749867473,1,True,,,,,,,,,,,,,22,A,2023-09-18_10h43.23.229,exp3,2022.2.2,
low_opac_v,0.4,1,0.01,3,0.82,3.5,0.01,0,0.01,4,5,Valid,0,26,75,start,lin,0.13976390702559072,0,0,0.13976390702559072,0,True,,,,,,,,,,,,,22,A,2023-09-18_10h43.23.229,exp3,2022.2.2,
low_opac_i,0.4,1,0.01,3,0.82,3.5,0.01,0,0.01,4,5,Invalid,2,26,76,start,lin,0.25588594089862127,0.25588594089862127,1,0.25588594089862127,1,True,,,,,,,,,,,,,22,A,2023-09-18_10h43.23.229,exp3,2022.2.2,
high_opac_v,0.01,1,0.01,3,0.82,3.5,0.01,0,0.01,4,5,Valid,1,26,77,start,lin,1,1,1,1,1,True,,,,,,,,,,,,,22,A,2023-09-18_10h43.23.229,exp3,2022.2.2,
high_opac_v,0.01,1,0.01,3,0.82,3.5,0.01,0,0.01,4,5,Valid,1,27,78,start,lin,1,1,1,1,1,True,,,,,,,,,,,,,22,A,2023-09-18_10h43.23.229,exp3,2022.2.2,
low_opac_i,0.4,1,0.01,3,0.82,3.5,0.01,0,0.01,4,5,Invalid,2,27,79,start,lin,0.2525446041958541,0.2525446041958541,1,0.2525446041958541,1,True,,,,,,,,,,,,,22,A,2023-09-18_10h43.23.229,exp3,2022.2.2,
low_opac_v,0.4,1,0.01,3,0.82,3.5,0.01,0,0.01,4,5,Valid,0,27,80,start,lin,0.15496366322660676,0,1,0.15496366322660676,1,True,,,,,,,,,,,,,22,A,2023-09-18_10h43.23.229,exp3,2022.2.2,
low_opac_v,0.4,1,0.01,3,0.82,3.5,0.01,0,0.01,4,5,Valid,0,28,81,start,lin,0.1513358097717991,0.1513358097717991,1,0.1513358097717991,1,True,,,,,,,,,,,,,22,A,2023-09-18_10h43.23.229,exp3,2022.2.2,
low_opac_i,0.4,1,0.01,3,0.82,3.5,0.01,0,0.01,4,5,Invalid,2,28,82,start,lin,0.2490971755103601,0,1,0.2490971755103601,1,True,,,,,,,,,,,,,22,A,2023-09-18_10h43.23.229,exp3,2022.2.2,
high_opac_v,0.01,1,0.01,3,0.82,3.5,0.01,0,0.01,4,5,Valid,1,28,83,start,lin,1,1,1,1,1,True,,,,,,,,,,,,,22,A,2023-09-18_10h43.23.229,exp3,2022.2.2,
low_opac_i,0.4,1,0.01,3,0.82,3.5,0.01,0,0.01,4,5,Invalid,2,29,84,start,lin,0.24589102300095964,0.24589102300095964,1,0.24589102300095964,1,True,,,,,,,,,,,,,22,A,2023-09-18_10h43.23.229,exp3,2022.2.2,
high_opac_v,0.01,1,0.01,3,0.82,3.5,0.01,0,0.01,4,5,Valid,1,29,85,start,lin,1,1,1,1,1,True,,,,,,,,,,,,,22,A,2023-09-18_10h43.23.229,exp3,2022.2.2,
low_opac_v,0.4,1,0.01,3,0.82,3.5,0.01,0,0.01,4,5,Valid,0,29,86,start,lin,0.1478940545912074,0.1478940545912074,1,0.1478940545912074,1,True,,,,,,,,,,,,,22,A,2023-09-18_10h43.23.229,exp3,2022.2.2,
low_opac_v,0.4,1,0.01,3,0.82,3.5,0.01,0,0.01,4,5,Valid,0,30,87,start,lin,0.14470133681826824,0.14470133681826824,1,0.14470133681826824,1,True,,,,,,,,,,,,,22,A,2023-09-18_10h43.23.229,exp3,2022.2.2,
high_opac_v,0.01,1,0.01,3,0.82,3.5,0.01,0,0.01,4,5,Valid,1,30,88,start,lin,1,0,1,1,1,True,,,,,,,,,,,,,22,A,2023-09-18_10h43.23.229,exp3,2022.2.2,
low_opac_i,0.4,1,0.01,3,0.82,3.5,0.01,0,0.01,4,5,Invalid,2,30,89,start,lin,0.24289409038121657,0,1,0.24289409038121657,1,True,,,,,,,,,,,,,22,A,2023-09-18_10h43.23.229,exp3,2022.2.2,
low_opac_v,0.4,1,0.01,3,0.82,3.5,0.01,0,0.01,4,5,Valid,0,31,90,start,lin,0.14142500424586407,0.14142500424586407,1,0.14142500424586407,1,True,,,,,,,,,,,,,22,A,2023-09-18_10h43.23.229,exp3,2022.2.2,
high_opac_v,0.01,1,0.01,3,0.82,3.5,0.01,0,0.01,4,5,Valid,1,31,91,start,lin,1,1,1,1,1,True,,,,,,,,,,,,,22,A,2023-09-18_10h43.23.229,exp3,2022.2.2,
low_opac_i,0.4,1,0.01,3,0.82,3.5,0.01,0,0.01,4,5,Invalid,2,31,92,start,lin,0.23977602989952393,0,1,0.23977602989952393,1,True,,,,,,,,,,,,,22,A,2023-09-18_10h43.23.229,exp3,2022.2.2,
high_opac_v,0.01,1,0.01,3,0.82,3.5,0.01,0,0.01,4,5,Valid,1,32,93,start,lin,0.9988238911509167,0,1,0.9988238911509167,1,True,,,,,,,,,,,,,22,A,2023-09-18_10h43.23.229,exp3,2022.2.2,
low_opac_v,0.4,1,0.01,3,0.82,3.5,0.01,0,0.01,4,5,Valid,0,32,94,start,lin,0.13828254599850054,0.13828254599850054,0,0.13828254599850054,0,True,,,,,,,,,,,,,22,A,2023-09-18_10h43.23.229,exp3,2022.2.2,
low_opac_i,0.4,1,0.01,3,0.82,3.5,0.01,0,0.01,4,5,Invalid,2,32,95,start,lin,0.23682920560988696,0.23682920560988696,1,0.23682920560988696,1,True,,,,,,,,,,,,,22,A,2023-09-18_10h43.23.229,exp3,2022.2.2,
high_opac_v,0.01,1,0.01,3,0.82,3.5,0.01,0,0.01,4,5,Valid,1,33,96,start,lin,0.996066514586346,0.996066514586346,1,0.996066514586346,1,True,,,,,,,,,,,,,22,A,2023-09-18_10h43.23.229,exp3,2022.2.2,
low_opac_v,0.4,1,0.01,3,0.82,3.5,0.01,0,0.01,4,5,Valid,0,33,97,start,lin,0.1503729121384372,0.1503729121384372,1,0.1503729121384372,1,True,,,,,,,,,,,,,22,A,2023-09-18_10h43.23.229,exp3,2022.2.2,
low_opac_i,0.4,1,0.01,3,0.82,3.5,0.01,0,0.01,4,5,Invalid,2,33,98,start,lin,0.23407134406067748,0.23407134406067748,1,0.23407134406067748,1,True,,,,,,,,,,,,,22,A,2023-09-18_10h43.23.229,exp3,2022.2.2,
low_opac_i,0.4,1,0.01,3,0.82,3.5,0.01,0,0.01,4,5,Invalid,2,34,99,start,lin,0.2312066372772461,0.2312066372772461,1,0.2312066372772461,1,True,,,,,,,,,,,,,22,A,2023-09-18_10h43.23.229,exp3,2022.2.2,
high_opac_v,0.01,1,0.01,3,0.82,3.5,0.01,0,0.01,4,5,Valid,1,34,100,start,lin,0.9934754426853406,0,0,0.9934754426853406,0,True,,,,,,,,,,,,,22,A,2023-09-18_10h43.23.229,exp3,2022.2.2,
low_opac_v,0.4,1,0.01,3,0.82,3.5,0.01,0,0.01,4,5,Valid,0,34,101,start,lin,0.14756304160960437,0,1,0.14756304160960437,1,True,,,,,,,,,,,,,22,A,2023-09-18_10h43.23.229,exp3,2022.2.2,
low_opac_v,0.4,1,0.01,3,0.82,3.5,0.01,0,0.01,4,5,Valid,0,35,102,start,lin,0.1449370174219497,0,1,0.1449370174219497,1,True,,,,,,,,,,,,,22,A,2023-09-18_10h43.23.229,exp3,2022.2.2,
high_opac_v,0.01,1,0.01,3,0.82,3.5,0.01,0,0.01,4,5,Valid,1,35,103,start,lin,1,0,1,1,1,True,,,,,,,,,,,,,22,A,2023-09-18_10h43.23.229,exp3,2022.2.2,
low_opac_i,0.4,1,0.01,3,0.82,3.5,0.01,0,0.01,4,5,Invalid,2,35,104,start,lin,0.22843621056259467,0,1,0.22843621056259467,1,True,,,,,,,,,,,,,22,A,2023-09-18_10h43.23.229,exp3,2022.2.2,
high_opac_v,0.01,1,0.01,3,0.82,3.5,0.01,0,0.01,4,5,Valid,1,36,105,start,lin,1,1,1,1,1,True,,,,,,,,,,,,,22,A,2023-09-18_10h43.23.229,exp3,2022.2.2,
low_opac_v,0.4,1,0.01,3,0.82,3.5,0.01,0,0.01,4,5,Valid,0,36,106,start,lin,0.14222046180375952,0.14222046180375952,1,0.14222046180375952,1,True,,,,,,,,,,,,,22,A,2023-09-18_10h43.23.229,exp3,2022.2.2,
low_opac_i,0.4,1,0.01,3,0.82,3.5,0.01,0,0.01,4,5,Invalid,2,36,107,start,lin,0.2258319274825802,0,1,0.2258319274825802,1,True,,,,,,,,,,,,,22,A,2023-09-18_10h43.23.229,exp3,2022.2.2,
low_opac_i,0.4,1,0.01,3,0.82,3.5,0.01,0,0.01,4,5,Invalid,2,37,108,start,lin,0.22336287787434622,0,1,0.22336287787434622,1,True,,,,,,,,,,,,,22,A,2023-09-18_10h43.23.229,exp3,2022.2.2,
high_opac_v,0.01,1,0.01,3,0.82,3.5,0.01,0,0.01,4,5,Valid,1,37,109,start,lin,0.9987127672765039,0.9987127672765039,1,0.9987127672765039,1,True,,,,,,,,,,,,,22,A,2023-09-18_10h43.23.229,exp3,2022.2.2,
low_opac_v,0.4,1,0.01,3,0.82,3.5,0.01,0,0.01,4,5,Valid,0,37,110,start,lin,0.13958835945900827,0.13958835945900827,1,0.13958835945900827,1,True,,,,,,,,,,,,,22,A,2023-09-18_10h43.23.229,exp3,2022.2.2,
high_opac_v,0.01,1,0.01,3,0.82,3.5,0.01,0,0.01,4,5,Valid,1,38,111,start,lin,0.9963759985965972,0,1,0.9963759985965972,1,True,,,,,,,,,,,,,22,A,2023-09-18_10h43.23.229,exp3,2022.2.2,
low_opac_i,0.4,1,0.01,3,0.82,3.5,0.01,0,0.01,4,5,Invalid,2,38,112,start,lin,0.22076719536766717,0,1,0.22076719536766717,1,True,,,,,,,,,,,,,22,A,2023-09-18_10h43.23.229,exp3,2022.2.2,
low_opac_v,0.4,1,0.01,3,0.82,3.5,0.01,0,0.01,4,5,Valid,0,38,113,start,lin,0.13708269987542088,0,1,0.13708269987542088,1,True,,,,,,,,,,,,,22,A,2023-09-18_10h43.23.229,exp3,2022.2.2,
low_opac_i,0.4,1,0.01,3,0.82,3.5,0.01,0,0.01,4,5,Invalid,2,39,114,start,lin,0.21823858110712724,0.21823858110712724,1,0.21823858110712724,1,True,,,,,,,,,,,,,22,A,2023-09-18_10h43.23.229,exp3,2022.2.2,
high_opac_v,0.01,1,0.01,3,0.82,3.5,0.01,0,0.01,4,5,Valid,1,39,115,start,lin,0.9941664076967117,0,1,0.9941664076967117,1,True,,,,,,,,,,,,,22,A,2023-09-18_10h43.23.229,exp3,2022.2.2,
low_opac_v,0.4,1,0.01,3,0.82,3.5,0.01,0,0.01,4,5,Valid,0,39,116,start,lin,0.13472098608362076,0,1,0.13472098608362076,1,True,,,,,,,,,,,,,22,A,2023-09-18_10h43.23.229,exp3,2022.2.2,
high_opac_v,0.01,1,0.01,3,0.82,3.5,0.01,0,0.01,4,5,Valid,1,40,117,start,lin,0.991856304937274,0.991856304937274,1,0.991856304937274,1,True,,,,,,,,,,,,,22,A,2023-09-18_10h43.23.229,exp3,2022.2.2,
low_opac_i,0.4,1,0.01,3,0.82,3.5,0.01,0,0.01,4,5,Invalid,2,40,118,start,lin,0.21585130345220005,0.21585130345220005,1,0.21585130345220005,1,True,,,,,,,,,,,,,22,A,2023-09-18_10h43.23.229,exp3,2022.2.2,
low_opac_v,0.4,1,0.01,3,0.82,3.5,0.01,0,0.01,4,5,Valid,0,40,119,start,lin,0.13225839606492085,0.13225839606492085,1,0.13225839606492085,1,True,,,,,,,,,,,,,22,A,2023-09-18_10h43.23.229,exp3,2022.2.2,
high_opac_v,0.01,1,0.01,3,0.82,3.5,0.01,0,0.01,4,5,Valid,1,41,120,start,lin,0.9896035152488059,0,1,0.9896035152488059,1,True,,,,,,,,,,,,,22,A,2023-09-18_10h43.23.229,exp3,2022.2.2,
low_opac_v,0.4,1,0.01,3,0.82,3.5,0.01,0,0.01,4,5,Valid,0,41,121,start,lin,0.1298582558497613,0.1298582558497613,1,0.1298582558497613,1,True,,,,,,,,,,,,,22,A,2023-09-18_10h43.23.229,exp3,2022.2.2,
low_opac_i,0.4,1,0.01,3,0.82,3.5,0.01,0,0.01,4,5,Invalid,2,41,122,start,lin,0.21357583058229995,0.21357583058229995,1,0.21357583058229995,1,True,,,,,,,,,,,,,22,A,2023-09-18_10h43.23.229,exp3,2022.2.2,
low_opac_i,0.4,1,0.01,3,0.82,3.5,0.01,0,0.01,4,5,Invalid,2,42,123,start,lin,0.21117380046473053,0.21117380046473053,1,0.21117380046473053,1,True,,,,,,,,,,,,,22,A,2023-09-18_10h43.23.229,exp3,2022.2.2,
high_opac_v,0.01,1,0.01,3,0.82,3.5,0.01,0,0.01,4,5,Valid,1,42,124,start,lin,0.9874583618947935,0.9874583618947935,1,0.9874583618947935,1,True,,,,,,,,,,,,,22,A,2023-09-18_10h43.23.229,exp3,2022.2.2,
low_opac_v,0.4,1,0.01,3,0.82,3.5,0.01,0,0.01,4,5,Valid,0,42,125,start,lin,0.12754390638713298,0.12754390638713298,1,0.12754390638713298,1,True,,,,,,,,,,,,,22,A,2023-09-18_10h43.23.229,exp3,2022.2.2,
low_opac_v,0.4,1,0.01,3,0.82,3.5,0.01,0,0.01,4,5,Valid,0,43,126,start,lin,0.1253574606339085,0.1253574606339085,1,0.1253574606339085,1,True,,,,,,,,,,,,,22,A,2023-09-18_10h43.23.229,exp3,2022.2.2,
high_opac_v,0.01,1,0.01,3,0.82,3.5,0.01,0,0.01,4,5,Valid,1,43,127,start,lin,0.9854318247559563,0.9854318247559563,1,0.9854318247559563,1,True,,,,,,,,,,,,,22,A,2023-09-18_10h43.23.229,exp3,2022.2.2,
low_opac_i,0.4,1,0.01,3,0.82,3.5,0.01,0,0.01,4,5,Invalid,2,43,128,start,lin,0.20881035382778854,0,1,0.20881035382778854,1,True,,,,,,,,,,,,,22,A,2023-09-18_10h43.23.229,exp3,2022.2.2,
low_opac_i,0.4,1,0.01,3,0.82,3.5,0.01,0,0.01,4,5,Invalid,2,44,129,start,lin,0.20655589812046385,0,1,0.20655589812046385,1,True,,,,,,,,,,,,,22,A,2023-09-18_10h43.23.229,exp3,2022.2.2,
low_opac_v,0.4,1,0.01,3,0.82,3.5,0.01,0,0.01,4,5,Valid,0,44,130,start,lin,0.12326250907331571,0.12326250907331571,1,0.12326250907331571,1,True,,,,,,,,,,,,,22,A,2023-09-18_10h43.23.229,exp3,2022.2.2,
high_opac_v,0.01,1,0.01,3,0.82,3.5,0.01,0,0.01,4,5,Valid,1,44,131,start,lin,0.9834917007028166,0,1,0.9834917007028166,1,True,,,,,,,,,,,,,22,A,2023-09-18_10h43.23.229,exp3,2022.2.2,
high_opac_v,0.01,1,0.01,3,0.82,3.5,0.01,0,0.01,4,5,Valid,1,45,132,start,lin,0.9814398197537988,0.9814398197537988,1,0.9814398197537988,1,True,,,,,,,,,,,,,22,A,2023-09-18_10h43.23.229,exp3,2022.2.2,
low_opac_i,0.4,1,0.01,3,0.82,3.5,0.01,0,0.01,4,5,Invalid,2,45,133,start,lin,0.2044063642212733,0.2044063642212733,1,0.2044063642212733,1,True,,,,,,,,,,,,,22,A,2023-09-18_10h43.23.229,exp3,2022.2.2,
low_opac_v,0.4,1,0.01,3,0.82,3.5,0.01,0,0.01,4,5,Valid,0,45,134,start,lin,0.12104164114802468,0,1,0.12104164114802468,1,True,,,,,,,,,,,,,22,A,2023-09-18_10h43.23.229,exp3,2022.2.2,
low_opac_i,0.4,1,0.01,3,0.82,3.5,0.01,0,0.01,4,5,Invalid,2,46,135,start,lin,0.2021398198601412,0.2021398198601412,1,0.2021398198601412,1,True,,,,,,,,,,,,,22,A,2023-09-18_10h43.23.229,exp3,2022.2.2,
low_opac_v,0.4,1,0.01,3,0.82,3.5,0.01,0,0.01,4,5,Valid,0,46,136,start,lin,0.11885355877673498,0.11885355877673498,1,0.11885355877673498,1,True,,,,,,,,,,,,,22,A,2023-09-18_10h43.23.229,exp3,2022.2.2,
high_opac_v,0.01,1,0.01,3,0.82,3.5,0.01,0,0.01,4,5,Valid,1,46,137,start,lin,0.9794222309646913,0.9794222309646913,1,0.9794222309646913,1,True,,,,,,,,,,,,,22,A,2023-09-18_10h43.23.229,exp3,2022.2.2,
high_opac_v,0.01,1,0.01,3,0.82,3.5,0.01,0,0.01,4,5,Valid,1,47,138,start,lin,0.9774933522083697,0,1,0.9774933522083697,1,True,,,,,,,,,,,,,22,A,2023-09-18_10h43.23.229,exp3,2022.2.2,
low_opac_v,0.4,1,0.01,3,0.82,3.5,0.01,0,0.01,4,5,Valid,0,47,139,start,lin,0.11676714349219897,0.11676714349219897,1,0.11676714349219897,1,True,,,,,,,,,,,,,22,A,2023-09-18_10h43.23.229,exp3,2022.2.2,
low_opac_i,0.4,1,0.01,3,0.82,3.5,0.01,0,0.01,4,5,Invalid,2,47,140,start,lin,0.19991051436538093,0.19991051436538093,1,0.19991051436538093,1,True,,,,,,,,,,,,,22,A,2023-09-18_10h43.23.229,exp3,2022.2.2,
low_opac_v,0.4,1,0.01,3,0.82,3.5,0.01,0,0.01,4,5,Valid,0,48,141,start,lin,0.11477701040856098,0.11477701040856098,1,0.11477701040856098,1,True,,,,,,,,,,,,,22,A,2023-09-18_10h43.23.229,exp3,2022.2.2,
high_opac_v,0.01,1,0.01,3,0.82,3.5,0.01,0,0.01,4,5,Valid,1,48,142,start,lin,0.9756618666834367,0,1,0.9756618666834367,1,True,,,,,,,,,,,,,22,A,2023-09-18_10h43.23.229,exp3,2022.2.2,
low_opac_i,0.4,1,0.01,3,0.82,3.5,0.01,0,0.01,4,5,Invalid,2,48,143,start,lin,0.19771896219745894,0,1,0.19771896219745894,1,True,,,,,,,,,,,,,22,A,2023-09-18_10h43.23.229,exp3,2022.2.2,
high_opac_v,0.01,1,0.01,3,0.82,3.5,0.01,0,0.01,4,5,Valid,1,49,144,start,lin,0.9739021410215574,0.9739021410215574,1,0.9739021410215574,1,True,,,,,,,,,,,,,22,A,2023-09-18_10h43.23.229,exp3,2022.2.2,
low_opac_v,0.4,1,0.01,3,0.82,3.5,0.01,0,0.01,4,5,Valid,0,49,145,start,lin,0.11268118518080167,0,1,0.11268118518080167,1,True,,,,,,,,,,,,,22,A,2023-09-18_10h43.23.229,exp3,2022.2.2,
low_opac_i,0.4,1,0.01,3,0.82,3.5,0.01,0,0.01,4,5,Invalid,2,49,146,start,lin,0.19563548297458272,0.19563548297458272,1,0.19563548297458272,1,True,,,,,,,,,,,,,22,A,2023-09-18_10h43.23.229,exp3,2022.2.2,
high_opac_v,0.01,1,0.01,3,0.82,3.5,0.01,0,0.01,4,5,Valid,1,50,147,start,lin,0.972036989785059,0,0,0.972036989785059,0,True,,,,,,,,,,,,,22,A,2023-09-18_10h43.23.229,exp3,2022.2.2,
low_opac_v,0.4,1,0.01,3,0.82,3.5,0.01,0,0.01,4,5,Valid,0,50,148,start,lin,0.11062566763475423,0.11062566763475423,1,0.11062566763475423,1,True,,,,,,,,,,,,,22,A,2023-09-18_10h43.23.229,exp3,2022.2.2,
low_opac_i,0.4,1,0.01,3,0.82,3.5,0.01,0,0.01,4,5,Invalid,2,50,149,start,lin,0.19362845945019294,0,1,0.19362845945019294,1,True,,,,,,,,,,,,,22,A,2023-09-18_10h43.23.229,exp3,2022.2.2,
low_opac_i,0.4,1,0.01,3,0.82,3.5,0.01,0,0.01,4,5,Invalid,2,51,150,start,lin,0.19148933639223908,0.19148933639223908,1,0.19148933639223908,1,True,,,,,,,,,,,,,22,A,2023-09-18_10h43.23.229,exp3,2022.2.2,
high_opac_v,0.01,1,0.01,3,0.82,3.5,0.01,0,0.01,4,5,Valid,1,51,151,start,lin,0.9791714018718699,0.9791714018718699,1,0.9791714018718699,1,True,,,,,,,,,,,,,22,A,2023-09-18_10h43.23.229,exp3,2022.2.2,
low_opac_v,0.4,1,0.01,3,0.82,3.5,0.01,0,0.01,4,5,Valid,0,51,152,start,lin,0.10858825165454555,0,1,0.10858825165454555,1,True,,,,,,,,,,,,,22,A,2023-09-18_10h43.23.229,exp3,2022.2.2,
low_opac_v,0.4,1,0.01,3,0.82,3.5,0.01,0,0.01,4,5,Valid,0,52,153,start,lin,0.10664325054287477,0,1,0.10664325054287477,1,True,,,,,,,,,,,,,22,A,2023-09-18_10h43.23.229,exp3,2022.2.2,
high_opac_v,0.01,1,0.01,3,0.82,3.5,0.01,0,0.01,4,5,Valid,1,52,154,start,lin,0.9774605538092542,0,1,0.9774605538092542,1,True,,,,,,,,,,,,,22,A,2023-09-18_10h43.23.229,exp3,2022.2.2,
low_opac_i,0.4,1,0.01,3,0.82,3.5,0.01,0,0.01,4,5,Invalid,2,52,155,start,lin,0.18935746064449815,0.18935746064449815,1,0.18935746064449815,1,True,,,,,,,,,,,,,22,A,2023-09-18_10h43.23.229,exp3,2022.2.2,
low_opac_v,0.4,1,0.01,3,0.82,3.5,0.01,0,0.01,4,5,Valid,0,53,156,start,lin,0.10477888559750703,0,1,0.10477888559750703,1,True,,,,,,,,,,,,,22,A,2023-09-18_10h43.23.229,exp3,2022.2.2,
low_opac_i,0.4,1,0.01,3,0.82,3.5,0.01,0,0.01,4,5,Invalid,2,53,157,start,lin,0.18727381044485544,0.18727381044485544,0,0.18727381044485544,0,True,,,,,,,,,,,,,22,A,2023-09-18_10h43.23.229,exp3,2022.2.2,
high_opac_v,0.01,1,0.01,3,0.82,3.5,0.01,0,0.01,4,5,Valid,1,53,158,start,lin,0.975829934981913,0.975829934981913,1,0.975829934981913,1,True,,,,,,,,,,,,,22,A,2023-09-18_10h43.23.229,exp3,2022.2.2,
low_opac_i,0.4,1,0.01,3,0.82,3.5,0.01,0,0.01,4,5,Invalid,2,54,159,start,lin,0.1956708391956042,0.1956708391956042,1,0.1956708391956042,1,True,,,,,,,,,,,,,22,A,2023-09-18_10h43.23.229,exp3,2022.2.2,
low_opac_v,0.4,1,0.01,3,0.82,3.5,0.01,0,0.01,4,5,Valid,0,54,160,start,lin,0.1028066809801097,0,1,0.1028066809801097,1,True,,,,,,,,,,,,,22,A,2023-09-18_10h43.23.229,exp3,2022.2.2,
high_opac_v,0.01,1,0.01,3,0.82,3.5,0.01,0,0.01,4,5,Valid,1,54,161,start,lin,0.9742594050461092,0.9742594050461092,1,0.9742594050461092,1,True,,,,,,,,,,,,,22,A,2023-09-18_10h43.23.229,exp3,2022.2.2,
high_opac_v,0.01,1,0.01,3,0.82,3.5,0.01,0,0.01,4,5,Valid,1,55,162,start,lin,0.9725934364415564,0.9725934364415564,1,0.9725934364415564,1,True,,,,,,,,,,,,,22,A,2023-09-18_10h43.23.229,exp3,2022.2.2,
low_opac_i,0.4,1,0.01,3,0.82,3.5,0.01,0,0.01,4,5,Invalid,2,55,163,start,lin,0.1939174920663853,0,1,0.1939174920663853,1,True,,,,,,,,,,,,,22,A,2023-09-18_10h43.23.229,exp3,2022.2.2,
low_opac_v,0.4,1,0.01,3,0.82,3.5,0.01,0,0.01,4,5,Valid,0,55,164,start,lin,0.1008659922928456,0.1008659922928456,0,0.1008659922928456,0,True,,,,,,,,,,,,,22,A,2023-09-18_10h43.23.229,exp3,2022.2.2,
low_opac_v,0.4,1,0.01,3,0.82,3.5,0.01,0,0.01,4,5,Valid,0,56,165,start,lin,0.10837743104964903,0.10837743104964903,1,0.10837743104964903,1,True,,,,,,,,,,,,,22,A,2023-09-18_10h43.23.229,exp3,2022.2.2,
high_opac_v,0.01,1,0.01,3,0.82,3.5,0.01,0,0.01,4,5,Valid,1,56,166,start,lin,0.9709527044125644,0,1,0.9709527044125644,1,True,,,,,,,,,,,,,22,A,2023-09-18_10h43.23.229,exp3,2022.2.2,
low_opac_i,0.4,1,0.01,3,0.82,3.5,0.01,0,0.01,4,5,Invalid,2,56,167,start,lin,0.1920487627266607,0,1,0.1920487627266607,1,True,,,,,,,,,,,,,22,A,2023-09-18_10h43.23.229,exp3,2022.2.2,
high_opac_v,0.01,1,0.01,3,0.82,3.5,0.01,0,0.01,4,5,Valid,1,57,168,start,lin,0.9693218221459163,0,1,0.9693218221459163,1,True,,,,,,,,,,,,,22,A,2023-09-18_10h43.23.229,exp3,2022.2.2,
low_opac_v,0.4,1,0.01,3,0.82,3.5,0.01,0,0.01,4,5,Valid,0,57,169,start,lin,0.10666118858514512,0.10666118858514512,0,0.10666118858514512,0,True,,,,,,,,,,,,,22,A,2023-09-18_10h43.23.229,exp3,2022.2.2,
low_opac_i,0.4,1,0.01,3,0.82,3.5,0.01,0,0.01,4,5,Invalid,2,57,170,start,lin,0.19019853221972216,0.19019853221972216,0,0.19019853221972216,0,True,,,,,,,,,,,,,22,A,2023-09-18_10h43.23.229,exp3,2022.2.2,
low_opac_v,0.4,1,0.01,3,0.82,3.5,0.01,0,0.01,4,5,Valid,0,58,171,start,lin,0.11383239950846241,0,1,0.11383239950846241,1,True,,,,,,,,,,,,,22,A,2023-09-18_10h43.23.229,exp3,2022.2.2,
high_opac_v,0.01,1,0.01,3,0.82,3.5,0.01,0,0.01,4,5,Valid,1,58,172,start,lin,0.9677549235160129,0.9677549235160129,1,0.9677549235160129,1,True,,,,,,,,,,,,,22,A,2023-09-18_10h43.23.229,exp3,2022.2.2,
low_opac_i,0.4,1,0.01,3,0.82,3.5,0.01,0,0.01,4,5,Invalid,2,58,173,start,lin,0.19739786184686428,0,1,0.19739786184686428,1,True,,,,,,,,,,,,,22,A,2023-09-18_10h43.23.229,exp3,2022.2.2,
high_opac_v,0.01,1,0.01,3,0.82,3.5,0.01,0,0.01,4,5,Valid,1,59,174,start,lin,0.9662582570121483,0.9662582570121483,1,0.9662582570121483,1,True,,,,,,,,,,,,,22,A,2023-09-18_10h43.23.229,exp3,2022.2.2,
low_opac_i,0.4,1,0.01,3,0.82,3.5,0.01,0,0.01,4,5,Invalid,2,59,175,start,lin,0.19578428092909203,0.19578428092909203,1,0.19578428092909203,1,True,,,,,,,,,,,,,22,A,2023-09-18_10h43.23.229,exp3,2022.2.2,
low_opac_v,0.4,1,0.01,3,0.82,3.5,0.01,0,0.01,4,5,Valid,0,59,176,start,lin,0.11218442417323438,0.11218442417323438,1,0.11218442417323438,1,True,,,,,,,,,,,,,22,A,2023-09-18_10h43.23.229,exp3,2022.2.2,
low_opac_v,0.4,1,0.01,3,0.82,3.5,0.01,0,0.01,4,5,Valid,0,60,177,start,lin,0.11055378132720312,0.11055378132720312,1,0.11055378132720312,1,True,,,,,,,,,,,,,22,A,2023-09-18_10h43.23.229,exp3,2022.2.2,
low_opac_i,0.4,1,0.01,3,0.82,3.5,0.01,0,0.01,4,5,Invalid,2,60,178,start,lin,0.19422362433091714,0,1,0.19422362433091714,1,True,,,,,,,,,,,,,22,A,2023-09-18_10h43.23.229,exp3,2022.2.2,
high_opac_v,0.01,1,0.01,3,0.82,3.5,0.01,0,0.01,4,5,Valid,1,60,179,start,lin,0.964815073166965,0,1,0.964815073166965,1,True,,,,,,,,,,,,,22,A,2023-09-18_10h43.23.229,exp3,2022.2.2,
high_opac_v,0.01,1,0.01,3,0.82,3.5,0.01,0,0.01,4,5,Valid,1,61,180,start,lin,0.9632843417660193,0,1,0.9632843417660193,1,True,,,,,,,,,,,,,22,A,2023-09-18_10h43.23.229,exp3,2022.2.2,
low_opac_i,0.4,1,0.01,3,0.82,3.5,0.01,0,0.01,4,5,Invalid,2,61,181,start,lin,0.19256037783065447,0,1,0.19256037783065447,1,True,,,,,,,,,,,,,22,A,2023-09-18_10h43.23.229,exp3,2022.2.2,
low_opac_v,0.4,1,0.01,3,0.82,3.5,0.01,0,0.01,4,5,Valid,0,61,182,start,lin,0.10893002401106527,0,1,0.10893002401106527,1,True,,,,,,,,,,,,,22,A,2023-09-18_10h43.23.229,exp3,2022.2.2,
high_opac_v,0.01,1,0.01,3,0.82,3.5,0.01,0,0.01,4,5,Valid,1,62,183,start,lin,0.9617782169075252,0.9617782169075252,1,0.9617782169075252,1,True,,,,,,,,,,,,,22,A,2023-09-18_10h43.23.229,exp3,2022.2.2,
low_opac_v,0.4,1,0.01,3,0.82,3.5,0.01,0,0.01,4,5,Valid,0,62,184,start,lin,0.10737489555936286,0,1,0.10737489555936286,1,True,,,,,,,,,,,,,22,A,2023-09-18_10h43.23.229,exp3,2022.2.2,
low_opac_i,0.4,1,0.01,3,0.82,3.5,0.01,0,0.01,4,5,Invalid,2,62,185,start,lin,0.1909156216674241,0.1909156216674241,1,0.1909156216674241,1,True,,,,,,,,,,,,,22,A,2023-09-18_10h43.23.229,exp3,2022.2.2,
high_opac_v,0.01,1,0.01,3,0.82,3.5,0.01,0,0.01,4,5,Valid,1,63,186,start,lin,0.9602809755415119,0,1,0.9602809755415119,1,True,,,,,,,,,,,,,22,A,2023-09-18_10h43.23.229,exp3,2022.2.2,
low_opac_i,0.4,1,0.01,3,0.82,3.5,0.01,0,0.01,4,5,Invalid,2,63,187,start,lin,0.18926650624083766,0,1,0.18926650624083766,1,True,,,,,,,,,,,,,22,A,2023-09-18_10h43.23.229,exp3,2022.2.2,
low_opac_v,0.4,1,0.01,3,0.82,3.5,0.01,0,0.01,4,5,Valid,0,63,188,start,lin,0.10588360938794938,0.10588360938794938,0,0.10588360938794938,0,True,,,,,,,,,,,,,22,A,2023-09-18_10h43.23.229,exp3,2022.2.2,
low_opac_v,0.4,1,0.01,3,0.82,3.5,0.01,0,0.01,4,5,Valid,0,64,189,start,lin,0.11231527117266227,0.11231527117266227,1,0.11231527117266227,1,True,,,,,,,,,,,,,22,A,2023-09-18_10h43.23.229,exp3,2022.2.2,
low_opac_i,0.4,1,0.01,3,0.82,3.5,0.01,0,0.01,4,5,Invalid,2,64,190,start,lin,0.18766734513283417,0,1,0.18766734513283417,1,True,,,,,,,,,,,,,22,A,2023-09-18_10h43.23.229,exp3,2022.2.2,
high_opac_v,0.01,1,0.01,3,0.82,3.5,0.01,0,0.01,4,5,Valid,1,64,191,start,lin,0.9587926699265668,0,1,0.9587926699265668,1,True,,,,,,,,,,,,,22,A,2023-09-18_10h43.23.229,exp3,2022.2.2,
low_opac_i,0.4,1,0.01,3,0.82,3.5,0.01,0,0.01,4,5,Invalid,2,65,192,start,lin,0.18613387288229638,0,1,0.18613387288229638,1,True,,,,,,,,,,,,,22,A,2023-09-18_10h43.23.229,exp3,2022.2.2,
low_opac_v,0.4,1,0.01,3,0.82,3.5,0.01,0,0.01,4,5,Valid,0,65,193,start,lin,0.11084005446089351,0.11084005446089351,1,0.11084005446089351,1,True,,,,,,,,,,,,,22,A,2023-09-18_10h43.23.229,exp3,2022.2.2,
high_opac_v,0.01,1,0.01,3,0.82,3.5,0.01,0,0.01,4,5,Valid,1,65,194,start,lin,0.9573701345308425,0,1,0.9573701345308425,1,True,,,,,,,,,,,,,22,A,2023-09-18_10h43.23.229,exp3,2022.2.2,
low_opac_i,0.4,1,0.01,3,0.82,3.5,0.01,0,0.01,4,5,Invalid,2,66,195,start,lin,0.1846492601837588,0,1,0.1846492601837588,1,True,,,,,,,,,,,,,22,A,2023-09-18_10h43.23.229,exp3,2022.2.2,
high_opac_v,0.01,1,0.01,3,0.82,3.5,0.01,0,0.01,4,5,Valid,1,66,196,start,lin,0.9560034121850441,0,1,0.9560034121850441,1,True,,,,,,,,,,,,,22,A,2023-09-18_10h43.23.229,exp3,2022.2.2,
low_opac_v,0.4,1,0.01,3,0.82,3.5,0.01,0,0.01,4,5,Valid,0,66,197,start,lin,0.10936420970032878,0.10936420970032878,0,0.10936420970032878,0,True,,,,,,,,,,,,,22,A,2023-09-18_10h43.23.229,exp3,2022.2.2,
low_opac_i,0.4,1,0.01,3,0.82,3.5,0.01,0,0.01,4,5,Invalid,2,67,198,start,lin,0.18306659106458872,0.18306659106458872,1,0.18306659106458872,1,True,,,,,,,,,,,,,22,A,2023-09-18_10h43.23.229,exp3,2022.2.2,
high_opac_v,0.01,1,0.01,3,0.82,3.5,0.01,0,0.01,4,5,Valid,1,67,199,start,lin,0.9546789391503371,0,0,0.9546789391503371,0,True,,,,,,,,,,,,,22,A,2023-09-18_10h43.23.229,exp3,2022.2.2,
low_opac_v,0.4,1,0.01,3,0.82,3.5,0.01,0,0.01,4,5,Valid,0,67,200,start,lin,0.11515246436858484,0.11515246436858484,0,0.11515246436858484,0,True,,,,,,,,,,,,,22,A,2023-09-18_10h43.23.229,exp3,2022.2.2,
low_opac_v,0.4,1,0.01,3,0.82,3.5,0.01,0,0.01,4,5,Valid,0,68,201,start,lin,0.12090228059436547,0.12090228059436547,1,0.12090228059436547,1,True,,,,,,,,,,,,,22,A,2023-09-18_10h43.23.229,exp3,2022.2.2,
high_opac_v,0.01,1,0.01,3,0.82,3.5,0.01,0,0.01,4,5,Valid,1,68,202,start,lin,0.9601555781986141,0,1,0.9601555781986141,1,True,,,,,,,,,,,,,22,A,2023-09-18_10h43.23.229,exp3,2022.2.2,
low_opac_i,0.4,1,0.01,3,0.82,3.5,0.01,0,0.01,4,5,Invalid,2,68,203,start,lin,0.18150186474225682,0,1,0.18150186474225682,1,True,,,,,,,,,,,,,22,A,2023-09-18_10h43.23.229,exp3,2022.2.2,
low_opac_v,0.4,1,0.01,3,0.82,3.5,0.01,0,0.01,4,5,Valid,0,69,204,start,lin,0.11955442142391604,0,1,0.11955442142391604,1,True,,,,,,,,,,,,,22,A,2023-09-18_10h43.23.229,exp3,2022.2.2,
low_opac_i,0.4,1,0.01,3,0.82,3.5,0.01,0,0.01,4,5,Invalid,2,69,205,start,lin,0.17993696972824155,0.17993696972824155,1,0.17993696972824155,1,True,,,,,,,,,,,,,22,A,2023-09-18_10h43.23.229,exp3,2022.2.2,
high_opac_v,0.01,1,0.01,3,0.82,3.5,0.01,0,0.01,4,5,Valid,1,69,206,start,lin,0.9587920039194292,0.9587920039194292,1,0.9587920039194292,1,True,,,,,,,,,,,,,22,A,2023-09-18_10h43.23.229,exp3,2022.2.2,
low_opac_v,0.4,1,0.01,3,0.82,3.5,0.01,0,0.01,4,5,Valid,0,70,207,start,lin,0.1182498916425086,0.1182498916425086,1,0.1182498916425086,1,True,,,,,,,,,,,,,22,A,2023-09-18_10h43.23.229,exp3,2022.2.2,
high_opac_v,0.01,1,0.01,3,0.82,3.5,0.01,0,0.01,4,5,Valid,1,70,208,start,lin,0.957488669796321,0,1,0.957488669796321,1,True,,,,,,,,,,,,,22,A,2023-09-18_10h43.23.229,exp3,2022.2.2,
low_opac_i,0.4,1,0.01,3,0.82,3.5,0.01,0,0.01,4,5,Invalid,2,70,209,start,lin,0.17837001474331593,0.17837001474331593,1,0.17837001474331593,1,True,,,,,,,,,,,,,22,A,2023-09-18_10h43.23.229,exp3,2022.2.2,
low_opac_v,0.4,1,0.01,3,0.82,3.5,0.01,0,0.01,4,5,Valid,0,71,210,start,lin,0.11700186121065076,0.11700186121065076,1,0.11700186121065076,1,True,,,,,,,,,,,,,22,A,2023-09-18_10h43.23.229,exp3,2022.2.2,
low_opac_i,0.4,1,0.01,3,0.82,3.5,0.01,0,0.01,4,5,Invalid,2,71,211,start,lin,0.17686931329945235,0.17686931329945235,1,0.17686931329945235,1,True,,,,,,,,,,,,,22,A,2023-09-18_10h43.23.229,exp3,2022.2.2,
high_opac_v,0.01,1,0.01,3,0.82,3.5,0.01,0,0.01,4,5,Valid,1,71,212,start,lin,0.9562352442304842,0.9562352442304842,1,0.9562352442304842,1,True,,,,,,,,,,,,,22,A,2023-09-18_10h43.23.229,exp3,2022.2.2,
low_opac_i,0.4,1,0.01,3,0.82,3.5,0.01,0,0.01,4,5,Invalid,2,72,213,start,lin,0.17541881283001054,0,1,0.17541881283001054,1,True,,,,,,,,,,,,,22,A,2023-09-18_10h43.23.229,exp3,2022.2.2,
low_opac_v,0.4,1,0.01,3,0.82,3.5,0.01,0,0.01,4,5,Valid,0,72,214,start,lin,0.11579863629497805,0.11579863629497805,1,0.11579863629497805,1,True,,,,,,,,,,,,,22,A,2023-09-18_10h43.23.229,exp3,2022.2.2,
high_opac_v,0.01,1,0.01,3,0.82,3.5,0.01,0,0.01,4,5,Valid,1,72,215,start,lin,0.955020287296369,0,1,0.955020287296369,1,True,,,,,,,,,,,,,22,A,2023-09-18_10h43.23.229,exp3,2022.2.2,
low_opac_v,0.4,1,0.01,3,0.82,3.5,0.01,0,0.01,4,5,Valid,0,73,216,start,lin,0.11462971027659219,0,1,0.11462971027659219,1,True,,,,,,,,,,,,,22,A,2023-09-18_10h43.23.229,exp3,2022.2.2,
high_opac_v,0.01,1,0.01,3,0.82,3.5,0.01,0,0.01,4,5,Valid,1,73,217,start,lin,0.9538334286046816,0,1,0.9538334286046816,1,True,,,,,,,,,,,,,22,A,2023-09-18_10h43.23.229,exp3,2022.2.2,
low_opac_i,0.4,1,0.01,3,0.82,3.5,0.01,0,0.01,4,5,Invalid,2,73,218,start,lin,0.17400401352555783,0,1,0.17400401352555783,1,True,,,,,,,,,,,,,22,A,2023-09-18_10h43.23.229,exp3,2022.2.2,
low_opac_v,0.4,1,0.01,3,0.82,3.5,0.01,0,0.01,4,5,Valid,0,74,219,start,lin,0.11338248481641477,0,1,0.11338248481641477,1,True,,,,,,,,,,,,,22,A,2023-09-18_10h43.23.229,exp3,2022.2.2,
high_opac_v,0.01,1,0.01,3,0.82,3.5,0.01,0,0.01,4,5,Valid,1,74,220,start,lin,0.9525584967183999,0.9525584967183999,0,0.9525584967183999,0,True,,,,,,,,,,,,,22,A,2023-09-18_10h43.23.229,exp3,2022.2.2,
low_opac_i,0.4,1,0.01,3,0.82,3.5,0.01,0,0.01,4,5,Invalid,2,74,221,start,lin,0.17248338195633253,0.17248338195633253,1,0.17248338195633253,1,True,,,,,,,,,,,,,22,A,2023-09-18_10h43.23.229,exp3,2022.2.2,
high_opac_v,0.01,1,0.01,3,0.82,3.5,0.01,0,0.01,4,5,Valid,1,75,222,start,lin,0.9574774016617229,0.9574774016617229,1,0.9574774016617229,1,True,,,,,,,,,,,,,22,A,2023-09-18_10h43.23.229,exp3,2022.2.2,
low_opac_v,0.4,1,0.01,3,0.82,3.5,0.01,0,0.01,4,5,Valid,0,75,223,start,lin,0.1121507265417962,0.1121507265417962,1,0.1121507265417962,1,True,,,,,,,,,,,,,22,A,2023-09-18_10h43.23.229,exp3,2022.2.2,
low_opac_i,0.4,1,0.01,3,0.82,3.5,0.01,0,0.01,4,5,Invalid,2,75,224,start,lin,0.17096937440387733,0,1,0.17096937440387733,1,True,,,,,,,,,,,,,22,A,2023-09-18_10h43.23.229,exp3,2022.2.2,
,,,,,,,,,,,,,,,,,,,,,,,,0,2274,Valid,noise,45,2,13.43729579995852,1,1.0,14.745684599969536,True,1,22,A,2023-09-18_10h43.23.229,exp3,2022.2.2,
,,,,,,,,,,,,,,,,,,,,,,,,0,-1158,Valid,signal,45,1,2.7888137999689206,1,4.0,4.096834699972533,True,1,22,A,2023-09-18_10h43.23.229,exp3,2022.2.2,
,,,,,,,,,,,,,,,,,,,,,,,,0,1158,Valid,noise,-45,2,2.839053999981843,1,4.0,4.146868399984669,True,1,22,A,2023-09-18_10h43.23.229,exp3,2022.2.2,
,,,,,,,,,,,,,,,,,,,,,,,,0,557,Valid,noise,45,2,3.2889312999905087,1,2.0,4.59665090002818,True,1,22,A,2023-09-18_10h43.23.229,exp3,2022.2.2,
,,,,,,,,,,,,,,,,,,,,,,,,0,2274,Invalid,noise,-45,1,4.189158699999098,0,2.0,5.497011800005566,True,1,22,A,2023-09-18_10h43.23.229,exp3,2022.2.2,
,,,,,,,,,,,,,,,,,,,,,,,,0,-1158,Invalid,signal,45,1,2.088248600019142,1,4.0,3.3960581999854185,True,1,22,A,2023-09-18_10h43.23.229,exp3,2022.2.2,
,,,,,,,,,,,,,,,,,,,,,,,,0,2274,Valid,signal,-45,2,3.423116400022991,0,3.0,4.73086070001591,True,1,22,A,2023-09-18_10h43.23.229,exp3,2022.2.2,
,,,,,,,,,,,,,,,,,,,,,,,,0,-1158,Valid,signal,45,1,2.2715099999913946,1,4.0,3.579470600001514,True,1,22,A,2023-09-18_10h43.23.229,exp3,2022.2.2,
,,,,,,,,,,,,,,,,,,,,,,,,0,-557,Valid,noise,-45,1,1.7711350999888964,0,3.0,3.0790994000271894,True,1,22,A,2023-09-18_10h43.23.229,exp3,2022.2.2,
,,,,,,,,,,,,,,,,,,,,,,,,0,557,Invalid,noise,-45,2,5.8739681000006385,1,2.0,7.181806199951097,True,1,22,A,2023-09-18_10h43.23.229,exp3,2022.2.2,
,,,,,,,,,,,,,,,,,,,,,,,,0,1158,Valid,noise,45,2,3.8389815000118688,1,4.0,5.146823399991263,True,1,22,A,2023-09-18_10h43.23.229,exp3,2022.2.2,
,,,,,,,,,,,,,,,,,,,,,,,,0,1158,Valid,signal,45,1,1.2385037000058219,1,4.0,2.5463143000379205,True,1,22,A,2023-09-18_10h43.23.229,exp3,2022.2.2,
,,,,,,,,,,,,,,,,,,,,,,,,0,-2274,Invalid,noise,-45,2,2.121928000007756,1,2.0,3.4294611999648623,True,1,22,A,2023-09-18_10h43.23.229,exp3,2022.2.2,
,,,,,,,,,,,,,,,,,,,,,,,,0,1158,Valid,noise,-45,2,2.071747799986042,1,4.0,3.379508199985139,True,1,22,A,2023-09-18_10h43.23.229,exp3,2022.2.2,
,,,,,,,,,,,,,,,,,,,,,,,,0,1716,Valid,signal,-45,1,1.5890106000006199,1,4.0,2.8969942999538034,True,1,22,A,2023-09-18_10h43.23.229,exp3,2022.2.2,
,,,,,,,,,,,,,,,,,,,,,,,,0,-1716,Valid,noise,-45,2,3.322184900054708,1,3.0,4.630000500008464,True,1,22,A,2023-09-18_10h43.23.229,exp3,2022.2.2,
,,,,,,,,,,,,,,,,,,,,,,,,0,2274,Valid,signal,-45,2,1.7883457000134513,0,2.0,3.096234900003765,True,1,22,A,2023-09-18_10h43.23.229,exp3,2022.2.2,
,,,,,,,,,,,,,,,,,,,,,,,,0,-1158,Valid,noise,45,2,1.8554551000124775,1,3.0,3.163283500005491,True,1,22,A,2023-09-18_10h43.23.229,exp3,2022.2.2,
,,,,,,,,,,,,,,,,,,,,,,,,0,557,Valid,noise,45,2,3.4889957000268623,1,2.0,4.796716300013941,True,1,22,A,2023-09-18_10h43.23.229,exp3,2022.2.2,
,,,,,,,,,,,,,,,,,,,,,,,,0,2274,Valid,noise,-45,2,1.9881685000145808,1,2.0,3.2959948999923654,True,1,22,A,2023-09-18_10h43.23.229,exp3,2022.2.2,
,,,,,,,,,,,,,,,,,,,,,,,,0,-1716,Valid,noise,-45,2,1.4051010999828577,1,3.0,2.7129962000180967,True,1,22,A,2023-09-18_10h43.23.229,exp3,2022.2.2,
,,,,,,,,,,,,,,,,,,,,,,,,0,-1716,Valid,signal,-45,1,1.3049675000365824,1,4.0,2.6126512000337243,True,1,22,A,2023-09-18_10h43.23.229,exp3,2022.2.2,
,,,,,,,,,,,,,,,,,,,,,,,,0,2274,Invalid,noise,-45,2,1.7882988000055775,1,3.0,3.0965341000119224,True,1,22,A,2023-09-18_10h43.23.229,exp3,2022.2.2,
,,,,,,,,,,,,,,,,,,,,,,,,0,557,Valid,noise,-45,2,1.9884083999786526,1,3.0,3.2962446000310592,True,1,22,A,2023-09-18_10h43.23.229,exp3,2022.2.2,
,,,,,,,,,,,,,,,,,,,,,,,,0,1158,Valid,noise,-45,2,2.622152299969457,1,3.0,3.93001589999767,True,1,22,A,2023-09-18_10h43.23.229,exp3,2022.2.2,
,,,,,,,,,,,,,,,,,,,,,,,,0,-557,Valid,noise,45,2,2.572450200037565,1,3.0,3.8802838000119664,True,1,22,A,2023-09-18_10h43.23.229,exp3,2022.2.2,
,,,,,,,,,,,,,,,,,,,,,,,,0,-2274,Valid,signal,-45,1,2.238994899962563,1,3.0,3.5468231000122614,True,1,22,A,2023-09-18_10h43.23.229,exp3,2022.2.2,
,,,,,,,,,,,,,,,,,,,,,,,,0,-2274,Invalid,noise,45,2,1.9546710000140592,1,2.0,3.2625465000164695,True,1,22,A,2023-09-18_10h43.23.229,exp3,2022.2.2,
,,,,,,,,,,,,,,,,,,,,,,,,0,-2274,Valid,noise,-45,2,1.4552366000134498,1,2.0,2.7629876999999397,True,1,22,A,2023-09-18_10h43.23.229,exp3,2022.2.2,
,,,,,,,,,,,,,,,,,,,,,,,,0,-557,Valid,noise,-45,2,1.8717296000104398,1,3.0,3.1794112999923527,True,1,22,A,2023-09-18_10h43.23.229,exp3,2022.2.2,
,,,,,,,,,,,,,,,,,,,,,,,,0,1716,Invalid,signal,45,2,1.5881530999904498,0,3.0,2.8961841000127606,True,1,22,A,2023-09-18_10h43.23.229,exp3,2022.2.2,
,,,,,,,,,,,,,,,,,,,,,,,,0,2274,Valid,signal,-45,2,1.821914599975571,0,2.0,3.1297415000153705,True,1,22,A,2023-09-18_10h43.23.229,exp3,2022.2.2,
,,,,,,,,,,,,,,,,,,,,,,,,0,1716,Valid,noise,45,2,2.05548350000754,1,2.0,3.363373300002422,True,1,22,A,2023-09-18_10h43.23.229,exp3,2022.2.2,
,,,,,,,,,,,,,,,,,,,,,,,,0,-1158,Valid,noise,-45,2,1.5717200000071898,1,3.0,2.879592099983711,True,1,22,A,2023-09-18_10h43.23.229,exp3,2022.2.2,
,,,,,,,,,,,,,,,,,,,,,,,,0,1158,Invalid,noise,-45,1,2.0051915000076406,0,3.0,3.312985500029754,True,1,22,A,2023-09-18_10h43.23.229,exp3,2022.2.2,
,,,,,,,,,,,,,,,,,,,,,,,,0,-2274,Valid,signal,-45,1,1.8877707000356168,1,3.0,3.19606859999476,True,1,22,A,2023-09-18_10h43.23.229,exp3,2022.2.2,
,,,,,,,,,,,,,,,,,,,,,,,,0,2274,Valid,signal,45,1,3.6893824000144377,1,1.0,4.997351299971342,True,1,22,A,2023-09-18_10h43.23.229,exp3,2022.2.2,
,,,,,,,,,,,,,,,,,,,,,,,,0,-1158,Invalid,noise,-45,2,2.488800999999512,1,1.0,3.796725799969863,True,1,22,A,2023-09-18_10h43.23.229,exp3,2022.2.2,
,,,,,,,,,,,,,,,,,,,,,,,,0,1716,Valid,noise,45,2,2.204914900008589,1,2.0,3.513014000025578,True,1,22,A,2023-09-18_10h43.23.229,exp3,2022.2.2,
,,,,,,,,,,,,,,,,,,,,,,,,0,557,Valid,signal,-45,1,1.4391833000117913,1,4.0,2.7468700000317767,True,1,22,A,2023-09-18_10h43.23.229,exp3,2022.2.2,
,,,,,,,,,,,,,,,,,,,,,,,,0,1158,Valid,noise,-45,2,1.5212447999510914,1,4.0,2.829130200028885,True,1,22,A,2023-09-18_10h43.23.229,exp3,2022.2.2,
,,,,,,,,,,,,,,,,,,,,,,,,0,557,Invalid,signal,-45,1,1.7548772000009194,1,4.0,3.063019900000654,True,1,22,A,2023-09-18_10h43.23.229,exp3,2022.2.2,
,,,,,,,,,,,,,,,,,,,,,,,,0,-557,Valid,noise,-45,2,2.2055418000090867,1,3.0,3.5134981000446714,True,1,22,A,2023-09-18_10h43.23.229,exp3,2022.2.2,
,,,,,,,,,,,,,,,,,,,,,,,,0,-557,Valid,noise,-45,2,1.8049860000028275,1,4.0,3.112799399998039,True,1,22,A,2023-09-18_10h43.23.229,exp3,2022.2.2,
,,,,,,,,,,,,,,,,,,,,,,,,0,-1158,Invalid,noise,-45,2,2.472737300035078,1,3.0,3.7802419000072405,True,1,22,A,2023-09-18_10h43.23.229,exp3,2022.2.2,
,,,,,,,,,,,,,,,,,,,,,,,,0,1716,Valid,signal,-45,1,1.571570000029169,1,4.0,2.87945230002515,True,1,22,A,2023-09-18_10h43.23.229,exp3,2022.2.2,
,,,,,,,,,,,,,,,,,,,,,,,,0,-557,Valid,signal,45,1,1.6053800999652594,1,4.0,2.9128050000290386,True,1,22,A,2023-09-18_10h43.23.229,exp3,2022.2.2,
,,,,,,,,,,,,,,,,,,,,,,,,0,-1716,Invalid,noise,45,2,2.8388952999957837,1,1.0,4.146828000026289,True,1,22,A,2023-09-18_10h43.23.229,exp3,2022.2.2,
,,,,,,,,,,,,,,,,,,,,,,,,0,1158,Invalid,signal,45,1,1.7549214999889955,1,4.0,3.062658399983775,True,1,22,A,2023-09-18_10h43.23.229,exp3,2022.2.2,
,,,,,,,,,,,,,,,,,,,,,,,,0,2274,Valid,noise,45,2,1.904836300003808,1,2.0,3.2127183999982662,True,1,22,A,2023-09-18_10h43.23.229,exp3,2022.2.2,
,,,,,,,,,,,,,,,,,,,,,,,,0,-1716,Valid,signal,45,1,1.38929660001304,1,4.0,2.6969891999615356,True,1,22,A,2023-09-18_10h43.23.229,exp3,2022.2.2,
,,,,,,,,,,,,,,,,,,,,,,,,0,-2274,Valid,signal,45,1,2.6887369999894872,1,3.0,3.996419400034938,True,1,22,A,2023-09-18_10h43.23.229,exp3,2022.2.2,
,,,,,,,,,,,,,,,,,,,,,,,,0,557,Valid,signal,45,1,1.771848400007002,1,4.0,3.0796636000159197,True,1,22,A,2023-09-18_10h43.23.229,exp3,2022.2.2,
,,,,,,,,,,,,,,,,,,,,,,,,0,-2274,Valid,noise,45,2,2.1225044999737293,1,2.0,3.4304714999743737,True,1,22,A,2023-09-18_10h43.23.229,exp3,2022.2.2,
,,,,,,,,,,,,,,,,,,,,,,,,0,-2274,Valid,signal,-45,1,1.5040967999957502,1,3.0,2.811956499994267,True,1,22,A,2023-09-18_10h43.23.229,exp3,2022.2.2,
,,,,,,,,,,,,,,,,,,,,,,,,0,2274,Valid,noise,-45,2,1.6888221999979578,1,2.0,2.9966516999993473,True,1,22,A,2023-09-18_10h43.23.229,exp3,2022.2.2,
,,,,,,,,,,,,,,,,,,,,,,,,0,2274,Valid,noise,45,2,3.3893748999689706,1,1.0,4.696943899965845,True,1,22,A,2023-09-18_10h43.23.229,exp3,2022.2.2,
,,,,,,,,,,,,,,,,,,,,,,,,0,-557,Valid,signal,-45,1,1.4379925000248477,1,4.0,2.7458209000178613,True,1,22,A,2023-09-18_10h43.23.229,exp3,2022.2.2,
,,,,,,,,,,,,,,,,,,,,,,,,0,-1716,Valid,signal,-45,1,1.3720308999763802,1,4.0,2.679726100002881,True,1,22,A,2023-09-18_10h43.23.229,exp3,2022.2.2,
,,,,,,,,,,,,,,,,,,,,,,,,0,-1158,Valid,signal,-45,1,1.2883573999861255,1,4.0,2.5962364000151865,True,1,22,A,2023-09-18_10h43.23.229,exp3,2022.2.2,
,,,,,,,,,,,,,,,,,,,,,,,,0,-1716,Valid,signal,45,1,1.3216575999977067,1,4.0,2.6295835999771953,True,1,22,A,2023-09-18_10h43.23.229,exp3,2022.2.2,
,,,,,,,,,,,,,,,,,,,,,,,,0,-557,Valid,noise,-45,2,1.7716443999670446,1,3.0,3.0794964999658987,True,1,22,A,2023-09-18_10h43.23.229,exp3,2022.2.2,
,,,,,,,,,,,,,,,,,,,,,,,,0,-2274,Valid,signal,45,1,2.555879299994558,1,2.0,3.8636862999992445,True,1,22,A,2023-09-18_10h43.23.229,exp3,2022.2.2,
,,,,,,,,,,,,,,,,,,,,,,,,0,-1158,Valid,signal,45,1,1.3545848000212573,1,3.0,2.66270300000906,True,1,22,A,2023-09-18_10h43.23.229,exp3,2022.2.2,
,,,,,,,,,,,,,,,,,,,,,,,,0,2274,Valid,noise,45,2,2.0387905999668874,1,2.0,3.3467989999917336,True,1,22,A,2023-09-18_10h43.23.229,exp3,2022.2.2,
,,,,,,,,,,,,,,,,,,,,,,,,0,1158,Valid,signal,-45,1,1.4045654999790713,1,3.0,2.7124379000160843,True,1,22,A,2023-09-18_10h43.23.229,exp3,2022.2.2,
,,,,,,,,,,,,,,,,,,,,,,,,0,1716,Valid,signal,45,1,1.3886425999808125,1,3.0,2.696652800019365,True,1,22,A,2023-09-18_10h43.23.229,exp3,2022.2.2,
,,,,,,,,,,,,,,,,,,,,,,,,0,-557,Valid,noise,45,2,1.555036400037352,1,4.0,2.8629514999920502,True,1,22,A,2023-09-18_10h43.23.229,exp3,2022.2.2,
,,,,,,,,,,,,,,,,,,,,,,,,0,1158,Invalid,signal,45,2,1.421654099947773,0,4.0,2.729501999972854,True,1,22,A,2023-09-18_10h43.23.229,exp3,2022.2.2,
,,,,,,,,,,,,,,,,,,,,,,,,0,-557,Valid,signal,45,1,1.5052409999771044,1,4.0,2.8131797999958508,True,1,22,A,2023-09-18_10h43.23.229,exp3,2022.2.2,
,,,,,,,,,,,,,,,,,,,,,,,,0,557,Valid,signal,-45,1,1.338116800005082,1,4.0,2.6459800000302494,True,1,22,A,2023-09-18_10h43.23.229,exp3,2022.2.2,
,,,,,,,,,,,,,,,,,,,,,,,,0,1716,Valid,signal,-45,1,1.2391044000396505,1,4.0,2.546720499987714,True,1,22,A,2023-09-18_10h43.23.229,exp3,2022.2.2,
,,,,,,,,,,,,,,,,,,,,,,,,0,557,Valid,noise,-45,2,3.0217739999643527,1,4.0,4.329639200004749,True,1,22,A,2023-09-18_10h43.23.229,exp3,2022.2.2,
,,,,,,,,,,,,,,,,,,,,,,,,0,-1716,Valid,noise,45,2,1.455035399994813,1,3.0,2.7629561999929138,True,1,22,A,2023-09-18_10h43.23.229,exp3,2022.2.2,
,,,,,,,,,,,,,,,,,,,,,,,,0,-1716,Valid,signal,-45,1,1.4052623999887146,1,4.0,2.7130492000142112,True,1,22,A,2023-09-18_10h43.23.229,exp3,2022.2.2,
,,,,,,,,,,,,,,,,,,,,,,,,0,-2274,Valid,noise,-45,1,2.8728637999738567,0,1.0,4.1802510999841616,True,1,22,A,2023-09-18_10h43.23.229,exp3,2022.2.2,
,,,,,,,,,,,,,,,,,,,,,,,,0,2274,Valid,signal,45,1,3.60575309995329,1,1.0,4.91357259999495,True,1,22,A,2023-09-18_10h43.23.229,exp3,2022.2.2,
,,,,,,,,,,,,,,,,,,,,,,,,0,557,Valid,signal,45,1,1.4217077000066638,1,4.0,2.72930860001361,True,1,22,A,2023-09-18_10h43.23.229,exp3,2022.2.2,
,,,,,,,,,,,,,,,,,,,,,,,,0,-1158,Valid,noise,45,2,1.5207427000277676,1,3.0,2.828866299998481,True,1,22,A,2023-09-18_10h43.23.229,exp3,2022.2.2,
,,,,,,,,,,,,,,,,,,,,,,,,0,-557,Invalid,signal,45,1,1.6719618000206538,1,4.0,2.979823799978476,True,1,22,A,2023-09-18_10h43.23.229,exp3,2022.2.2,
,,,,,,,,,,,,,,,,,,,,,,,,0,-2274,Valid,noise,-45,2,1.6720478999777697,1,3.0,2.9797094999812543,True,1,22,A,2023-09-18_10h43.23.229,exp3,2022.2.2,
,,,,,,,,,,,,,,,,,,,,,,,,0,557,Valid,signal,-45,1,1.4211651000077836,1,4.0,2.7292587000411004,True,1,22,A,2023-09-18_10h43.23.229,exp3,2022.2.2,
,,,,,,,,,,,,,,,,,,,,,,,,0,-2274,Invalid,signal,45,2,4.089264299953356,0,2.0,5.397054200002458,True,1,22,A,2023-09-18_10h43.23.229,exp3,2022.2.2,
,,,,,,,,,,,,,,,,,,,,,,,,0,-2274,Valid,signal,-45,1,1.772330800013151,1,3.0,3.0800847000209615,True,1,22,A,2023-09-18_10h43.23.229,exp3,2022.2.2,
,,,,,,,,,,,,,,,,,,,,,,,,0,1716,Valid,signal,45,1,1.7711588999954984,1,3.0,3.0789715999853797,True,1,22,A,2023-09-18_10h43.23.229,exp3,2022.2.2,
,,,,,,,,,,,,,,,,,,,,,,,,0,1716,Valid,noise,-45,2,1.6057650999864563,1,3.0,2.913568900024984,True,1,22,A,2023-09-18_10h43.23.229,exp3,2022.2.2,
,,,,,,,,,,,,,,,,,,,,,,,,0,-1716,Invalid,noise,45,2,1.305266399984248,1,3.0,2.6129322000197135,True,1,22,A,2023-09-18_10h43.23.229,exp3,2022.2.2,
,,,,,,,,,,,,,,,,,,,,,,,,0,-1716,Valid,noise,45,2,1.3046991000301205,1,3.0,2.6123897000215948,True,1,22,A,2023-09-18_10h43.23.229,exp3,2022.2.2,
,,,,,,,,,,,,,,,,,,,,,,,,0,-2274,Invalid,signal,-45,2,2.355686000024434,0,3.0,3.6633049999945797,True,1,22,A,2023-09-18_10h43.23.229,exp3,2022.2.2,
,,,,,,,,,,,,,,,,,,,,,,,,0,-557,Valid,signal,-45,1,1.872102299996186,1,4.0,3.179821699974127,True,1,22,A,2023-09-18_10h43.23.229,exp3,2022.2.2,
,,,,,,,,,,,,,,,,,,,,,,,,0,-557,Invalid,noise,45,2,1.5542832000064664,1,3.0,2.862296300008893,True,1,22,A,2023-09-18_10h43.23.229,exp3,2022.2.2,
,,,,,,,,,,,,,,,,,,,,,,,,0,-1158,Valid,noise,45,2,1.2378690000041388,1,3.0,2.545863300038036,True,1,22,A,2023-09-18_10h43.23.229,exp3,2022.2.2,
,,,,,,,,,,,,,,,,,,,,,,,,0,557,Valid,noise,-45,2,1.2054938999935985,1,4.0,2.513118500006385,True,1,22,A,2023-09-18_10h43.23.229,exp3,2022.2.2,
,,,,,,,,,,,,,,,,,,,,,,,,0,1716,Valid,signal,45,1,1.3547140000155196,1,4.0,2.6625022999942303,True,1,22,A,2023-09-18_10h43.23.229,exp3,2022.2.2,
,,,,,,,,,,,,,,,,,,,,,,,,0,557,Valid,signal,-45,1,1.037984300055541,1,4.0,2.3459217000054196,True,1,22,A,2023-09-18_10h43.23.229,exp3,2022.2.2,
,,,,,,,,,,,,,,,,,,,,,,,,0,1716,Valid,noise,45,2,1.5718937999918126,1,4.0,2.879432399990037,True,1,22,A,2023-09-18_10h43.23.229,exp3,2022.2.2,
,,,,,,,,,,,,,,,,,,,,,,,,0,1716,Valid,noise,-45,2,1.4385571000166237,1,4.0,2.7462934000068344,True,1,22,A,2023-09-18_10h43.23.229,exp3,2022.2.2,
,,,,,,,,,,,,,,,,,,,,,,,,0,2274,Valid,signal,45,2,1.4220799999893643,0,4.0,2.7297189999953844,True,1,22,A,2023-09-18_10h43.23.229,exp3,2022.2.2,
,,,,,,,,,,,,,,,,,,,,,,,,0,-557,Valid,signal,-45,1,1.1713961000205018,1,4.0,2.479254200006835,True,1,22,A,2023-09-18_10h43.23.229,exp3,2022.2.2,
,,,,,,,,,,,,,,,,,,,,,,,,0,-1716,Valid,noise,-45,1,3.288615400029812,0,1.0,4.59652580000693,True,1,22,A,2023-09-18_10h43.23.229,exp3,2022.2.2,
,,,,,,,,,,,,,,,,,,,,,,,,0,-1716,Valid,signal,45,1,1.3887044999864884,1,4.0,2.696627900004387,True,1,22,A,2023-09-18_10h43.23.229,exp3,2022.2.2,
,,,,,,,,,,,,,,,,,,,,,,,,0,-1716,Invalid,signal,-45,1,1.3048520000302233,1,3.0,2.6125864000059664,True,1,22,A,2023-09-18_10h43.23.229,exp3,2022.2.2,
,,,,,,,,,,,,,,,,,,,,,,,,0,-557,Valid,noise,45,2,2.0547617999836802,1,3.0,3.3627962000318803,True,1,22,A,2023-09-18_10h43.23.229,exp3,2022.2.2,
,,,,,,,,,,,,,,,,,,,,,,,,0,-557,Invalid,signal,-45,1,1.421676199999638,1,4.0,2.729509799974039,True,1,22,A,2023-09-18_10h43.23.229,exp3,2022.2.2,
,,,,,,,,,,,,,,,,,,,,,,,,0,1158,Valid,signal,-45,1,0.9884740000125021,1,4.0,2.2963770999922417,True,1,22,A,2023-09-18_10h43.23.229,exp3,2022.2.2,
,,,,,,,,,,,,,,,,,,,,,,,,0,-1158,Valid,signal,-45,1,1.0878239999874495,1,4.0,2.3954602000303566,True,1,22,A,2023-09-18_10h43.23.229,exp3,2022.2.2,
,,,,,,,,,,,,,,,,,,,,,,,,0,1716,Invalid,noise,-45,2,1.8890455999644473,1,4.0,3.1967241000384092,True,1,22,A,2023-09-18_10h43.23.229,exp3,2022.2.2,
,,,,,,,,,,,,,,,,,,,,,,,,0,557,Valid,signal,45,1,1.1211150999879465,1,4.0,2.4289547000080347,True,1,22,A,2023-09-18_10h43.23.229,exp3,2022.2.2,
,,,,,,,,,,,,,,,,,,,,,,,,0,-1158,Valid,signal,45,1,1.7219909999985248,1,4.0,3.030021400016267,True,1,22,A,2023-09-18_10h43.23.229,exp3,2022.2.2,
,,,,,,,,,,,,,,,,,,,,,,,,0,-2274,Valid,noise,-45,2,1.7053254999918863,1,4.0,3.013015999982599,True,1,22,A,2023-09-18_10h43.23.229,exp3,2022.2.2,
,,,,,,,,,,,,,,,,,,,,,,,,0,-1716,Valid,noise,45,2,0.9881525000091642,1,4.0,2.296026099997107,True,1,22,A,2023-09-18_10h43.23.229,exp3,2022.2.2,
,,,,,,,,,,,,,,,,,,,,,,,,0,-1158,Valid,signal,-45,1,0.9544542000512592,1,4.0,2.2622969999792986,True,1,22,A,2023-09-18_10h43.23.229,exp3,2022.2.2,
,,,,,,,,,,,,,,,,,,,,,,,,0,1716,Valid,noise,45,2,1.4717351999715902,1,4.0,2.779564799973741,True,1,22,A,2023-09-18_10h43.23.229,exp3,2022.2.2,
,,,,,,,,,,,,,,,,,,,,,,,,0,1716,Valid,signal,-45,1,2.4391635000356473,1,2.0,3.7468713000416756,True,1,22,A,2023-09-18_10h43.23.229,exp3,2022.2.2,
,,,,,,,,,,,,,,,,,,,,,,,,0,1158,Invalid,noise,45,2,1.904924500035122,1,4.0,3.2129160999902524,True,1,22,A,2023-09-18_10h43.23.229,exp3,2022.2.2,
,,,,,,,,,,,,,,,,,,,,,,,,0,1716,Valid,noise,45,2,1.5883416999713518,1,4.0,2.8962641999823973,True,1,22,A,2023-09-18_10h43.23.229,exp3,2022.2.2,
,,,,,,,,,,,,,,,,,,,,,,,,0,-1716,Valid,signal,45,1,1.972920999978669,1,3.0,3.2805097000091337,True,1,22,A,2023-09-18_10h43.23.229,exp3,2022.2.2,
,,,,,,,,,,,,,,,,,,,,,,,,0,1716,Valid,signal,-45,1,1.854846499976702,1,3.0,3.1626262000063434,True,1,22,A,2023-09-18_10h43.23.229,exp3,2022.2.2,
,,,,,,,,,,,,,,,,,,,,,,,,0,-2274,Valid,noise,-45,2,0.9546144000487402,1,4.0,2.262484900013078,True,1,22,A,2023-09-18_10h43.23.229,exp3,2022.2.2,
,,,,,,,,,,,,,,,,,,,,,,,,0,1158,Valid,signal,45,1,2.189094000030309,1,4.0,3.496930000022985,True,1,22,A,2023-09-18_10h43.23.229,exp3,2022.2.2,
,,,,,,,,,,,,,,,,,,,,,,,,0,-1158,Valid,noise,45,2,2.4387626000097953,1,2.0,3.746458999987226,True,1,22,A,2023-09-18_10h43.23.229,exp3,2022.2.2,
,,,,,,,,,,,,,,,,,,,,,,,,0,2274,Valid,signal,-45,1,2.2715349000063725,1,1.0,3.5794160999939777,True,1,22,A,2023-09-18_10h43.23.229,exp3,2022.2.2,
,,,,,,,,,,,,,,,,,,,,,,,,0,-1716,Valid,noise,45,2,1.1047033999930136,1,3.0,2.4124420000007376,True,1,22,A,2023-09-18_10h43.23.229,exp3,2022.2.2,
,,,,,,,,,,,,,,,,,,,,,,,,0,2274,Valid,noise,45,2,2.4227555000106804,1,2.0,3.7304457999998704,True,1,22,A,2023-09-18_10h43.23.229,exp3,2022.2.2,
,,,,,,,,,,,,,,,,,,,,,,,,0,-2274,Valid,signal,45,1,2.2553220999543555,1,2.0,3.5632296000258066,True,1,22,A,2023-09-18_10h43.23.229,exp3,2022.2.2,
,,,,,,,,,,,,,,,,,,,,,,,,0,-1716,Valid,signal,-45,1,1.8385652999859303,1,3.0,3.1462989000137895,True,1,22,A,2023-09-18_10h43.23.229,exp3,2022.2.2,
,,,,,,,,,,,,,,,,,,,,,,,,0,-557,Invalid,noise,45,2,1.5715424999943934,1,4.0,2.8793051000102423,True,1,22,A,2023-09-18_10h43.23.229,exp3,2022.2.2,
,,,,,,,,,,,,,,,,,,,,,,,,0,557,Valid,noise,45,2,1.8555138999945484,1,4.0,3.1632664000499062,True,1,22,A,2023-09-18_10h43.23.229,exp3,2022.2.2,
,,,,,,,,,,,,,,,,,,,,,,,,0,2274,Valid,signal,-45,2,1.6049950000015087,0,3.0,2.9129466000013053,True,1,22,A,2023-09-18_10h43.23.229,exp3,2022.2.2,
,,,,,,,,,,,,,,,,,,,,,,,,0,557,Invalid,noise,45,2,1.9712965000071563,1,3.0,3.279470000008587,True,1,22,A,2023-09-18_10h43.23.229,exp3,2022.2.2,
,,,,,,,,,,,,,,,,,,,,,,,,0,-1158,Valid,signal,45,1,2.805798599962145,1,4.0,4.113700999994762,True,1,22,A,2023-09-18_10h43.23.229,exp3,2022.2.2,
,,,,,,,,,,,,,,,,,,,,,,,,0,-1716,Valid,signal,-45,1,2.422556999954395,1,4.0,3.730178400001023,True,1,22,A,2023-09-18_10h43.23.229,exp3,2022.2.2,
,,,,,,,,,,,,,,,,,,,,,,,,0,1158,Valid,signal,-45,1,2.3556142000015825,1,4.0,3.663270900025964,True,1,22,A,2023-09-18_10h43.23.229,exp3,2022.2.2,
,,,,,,,,,,,,,,,,,,,,,,,,0,557,Valid,signal,-45,1,0.9217150000040419,1,4.0,2.229458899993915,True,1,22,A,2023-09-18_10h43.23.229,exp3,2022.2.2,
,,,,,,,,,,,,,,,,,,,,,,,,0,1716,Valid,signal,-45,1,1.1709651999990456,1,4.0,2.478668900032062,True,1,22,A,2023-09-18_10h43.23.229,exp3,2022.2.2,
,,,,,,,,,,,,,,,,,,,,,,,,0,-557,Valid,signal,-45,1,1.021738399984315,1,4.0,2.329527700028848,True,1,22,A,2023-09-18_10h43.23.229,exp3,2022.2.2,
,,,,,,,,,,,,,,,,,,,,,,,,0,-1158,Valid,signal,-45,1,0.9382556999917142,1,4.0,2.246033000003081,True,1,22,A,2023-09-18_10h43.23.229,exp3,2022.2.2,
,,,,,,,,,,,,,,,,,,,,,,,,0,-1158,Valid,noise,-45,2,1.2051611000206321,1,3.0,2.512925599992741,True,1,22,A,2023-09-18_10h43.23.229,exp3,2022.2.2,
,,,,,,,,,,,,,,,,,,,,,,,,0,1716,Valid,noise,-45,2,1.305527799995616,1,3.0,2.612930800009053,True,1,22,A,2023-09-18_10h43.23.229,exp3,2022.2.2,
,,,,,,,,,,,,,,,,,,,,,,,,0,2274,Invalid,signal,-45,1,1.7872233999660239,1,2.0,3.094884100020863,True,1,22,A,2023-09-18_10h43.23.229,exp3,2022.2.2,
,,,,,,,,,,,,,,,,,,,,,,,,0,-1716,Valid,noise,-45,2,2.7389629999524914,1,4.0,4.0466406000196,True,1,22,A,2023-09-18_10h43.23.229,exp3,2022.2.2,
,,,,,,,,,,,,,,,,,,,,,,,,0,557,Valid,noise,-45,2,1.2715028999955393,1,4.0,2.579273800016381,True,1,22,A,2023-09-18_10h43.23.229,exp3,2022.2.2,
,,,,,,,,,,,,,,,,,,,,,,,,0,-1716,Invalid,signal,-45,1,1.3050944000133313,1,2.0,2.612780300027225,True,1,22,A,2023-09-18_10h43.23.229,exp3,2022.2.2,
,,,,,,,,,,,,,,,,,,,,,,,,0,-1716,Valid,noise,-45,2,1.1553674000315368,1,4.0,2.4631334000150673,True,1,22,A,2023-09-18_10h43.23.229,exp3,2022.2.2,
,,,,,,,,,,,,,,,,,,,,,,,,0,-1158,Invalid,signal,45,1,1.1053384999977425,1,3.0,2.412979600019753,True,1,22,A,2023-09-18_10h43.23.229,exp3,2022.2.2,
,,,,,,,,,,,,,,,,,,,,,,,,0,1716,Invalid,signal,-45,1,1.1709847000311129,1,4.0,2.478943500027526,True,1,22,A,2023-09-18_10h43.23.229,exp3,2022.2.2,
,,,,,,,,,,,,,,,,,,,,,,,,0,-1158,Valid,noise,-45,2,1.1879972000024281,1,3.0,2.4959052999620326,True,1,22,A,2023-09-18_10h43.23.229,exp3,2022.2.2,
,,,,,,,,,,,,,,,,,,,,,,,,0,-2274,Valid,signal,-45,1,1.038259900000412,1,3.0,2.3463339000009,True,1,22,A,2023-09-18_10h43.23.229,exp3,2022.2.2,
,,,,,,,,,,,,,,,,,,,,,,,,0,-1158,Valid,noise,45,2,3.089344699983485,1,3.0,4.396985100000165,True,1,22,A,2023-09-18_10h43.23.229,exp3,2022.2.2,
,,,,,,,,,,,,,,,,,,,,,,,,0,-557,Valid,noise,-45,2,1.671768100000918,1,4.0,2.9793904999969527,True,1,22,A,2023-09-18_10h43.23.229,exp3,2022.2.2,
,,,,,,,,,,,,,,,,,,,,,,,,0,2274,Valid,noise,-45,2,2.305182699987199,1,2.0,3.613270800036844,True,1,22,A,2023-09-18_10h43.23.229,exp3,2022.2.2,
,,,,,,,,,,,,,,,,,,,,,,,,0,2274,Valid,noise,45,2,1.7221493999822997,1,1.0,3.029986600042321,True,1,22,A,2023-09-18_10h43.23.229,exp3,2022.2.2,
,,,,,,,,,,,,,,,,,,,,,,,,0,-557,Valid,signal,45,1,1.4876842999947257,1,4.0,2.7954621000098996,True,1,22,A,2023-09-18_10h43.23.229,exp3,2022.2.2,
,,,,,,,,,,,,,,,,,,,,,,,,0,-2274,Valid,noise,45,1,2.122402000008151,0,1.0,3.430191299994476,True,1,22,A,2023-09-18_10h43.23.229,exp3,2022.2.2,
,,,,,,,,,,,,,,,,,,,,,,,,0,1158,Valid,noise,-45,2,1.955507500038948,1,4.0,3.26332889997866,True,1,22,A,2023-09-18_10h43.23.229,exp3,2022.2.2,
,,,,,,,,,,,,,,,,,,,,,,,,0,557,Valid,signal,45,1,2.405227300012484,1,4.0,3.712993099994492,True,1,22,A,2023-09-18_10h43.23.229,exp3,2022.2.2,
,,,,,,,,,,,,,,,,,,,,,,,,0,-557,Valid,signal,45,1,1.1047191999969073,1,4.0,2.412630899983924,True,1,22,A,2023-09-18_10h43.23.229,exp3,2022.2.2,
,,,,,,,,,,,,,,,,,,,,,,,,0,1716,Valid,noise,45,2,1.7881705000181682,1,3.0,3.0960467000259086,True,1,22,A,2023-09-18_10h43.23.229,exp3,2022.2.2,
,,,,,,,,,,,,,,,,,,,,,,,,0,1716,Invalid,noise,45,2,1.2561309000011533,1,4.0,2.563696200028062,True,1,22,A,2023-09-18_10h43.23.229,exp3,2022.2.2,
,,,,,,,,,,,,,,,,,,,,,,,,0,2274,Invalid,signal,-45,1,2.537896500027273,1,3.0,3.845759599993471,True,1,22,A,2023-09-18_10h43.23.229,exp3,2022.2.2,
,,,,,,,,,,,,,,,,,,,,,,,,0,-2274,Valid,noise,-45,2,1.6384126000339165,1,2.0,2.946539400028996,True,1,22,A,2023-09-18_10h43.23.229,exp3,2022.2.2,
,,,,,,,,,,,,,,,,,,,,,,,,0,557,Invalid,signal,-45,1,1.0718671000213362,1,4.0,2.379464800003916,True,1,22,A,2023-09-18_10h43.23.229,exp3,2022.2.2,
,,,,,,,,,,,,,,,,,,,,,,,,0,-2274,Valid,noise,45,2,1.688370699994266,1,3.0,2.9963261999655515,True,1,22,A,2023-09-18_10h43.23.229,exp3,2022.2.2,
,,,,,,,,,,,,,,,,,,,,,,,,0,557,Valid,noise,-45,2,2.3714795999694616,1,4.0,3.6795374000212178,True,1,22,A,2023-09-18_10h43.23.229,exp3,2022.2.2,
,,,,,,,,,,,,,,,,,,,,,,,,0,2274,Valid,signal,-45,2,4.556516200012993,0,2.0,5.864318200037815,True,1,22,A,2023-09-18_10h43.23.229,exp3,2022.2.2,
,,,,,,,,,,,,,,,,,,,,,,,,0,1158,Valid,noise,-45,2,1.4048821000033058,1,3.0,2.712939999997616,True,1,22,A,2023-09-18_10h43.23.229,exp3,2022.2.2,
,,,,,,,,,,,,,,,,,,,,,,,,0,1158,Valid,signal,-45,1,1.4888946999562904,1,3.0,2.7966368999914266,True,1,22,A,2023-09-18_10h43.23.229,exp3,2022.2.2,
,,,,,,,,,,,,,,,,,,,,,,,,0,1158,Valid,noise,45,2,2.871994299988728,1,4.0,4.179677200037986,True,1,22,A,2023-09-18_10h43.23.229,exp3,2022.2.2,
,,,,,,,,,,,,,,,,,,,,,,,,0,1158,Valid,noise,-45,2,2.822130599990487,1,4.0,4.129988000029698,True,1,22,A,2023-09-18_10h43.23.229,exp3,2022.2.2,
,,,,,,,,,,,,,,,,,,,,,,,,0,1158,Valid,signal,-45,1,1.6887909999932162,1,4.0,2.996501400019042,True,1,22,A,2023-09-18_10h43.23.229,exp3,2022.2.2,
,,,,,,,,,,,,,,,,,,,,,,,,0,557,Valid,noise,-45,2,1.9883023000438698,1,4.0,3.296221099968534,True,1,22,A,2023-09-18_10h43.23.229,exp3,2022.2.2,
,,,,,,,,,,,,,,,,,,,,,,,,0,-557,Valid,signal,45,1,1.7556192000047304,1,4.0,3.0633221000316553,True,1,22,A,2023-09-18_10h43.23.229,exp3,2022.2.2,
,,,,,,,,,,,,,,,,,,,,,,,,0,1158,Valid,signal,45,1,2.021808699995745,1,4.0,3.329705999989528,True,1,22,A,2023-09-18_10h43.23.229,exp3,2022.2.2,
,,,,,,,,,,,,,,,,,,,,,,,,0,1158,Valid,signal,-45,1,1.9056034000241198,1,3.0,3.2131906999857165,True,1,22,A,2023-09-18_10h43.23.229,exp3,2022.2.2,
,,,,,,,,,,,,,,,,,,,,,,,,0,-1158,Valid,noise,-45,2,3.122280600015074,1,3.0,4.430119299970102,True,1,22,A,2023-09-18_10h43.23.229,exp3,2022.2.2,
,,,,,,,,,,,,,,,,,,,,,,,,0,-2274,Valid,signal,-45,1,1.38749039999675,1,2.0,2.695681600016542,True,1,22,A,2023-09-18_10h43.23.229,exp3,2022.2.2,
,,,,,,,,,,,,,,,,,,,,,,,,1,1716,Valid,noise,45,2,4.306316600006539,1,1.0,10.046136000019033,True,2,22,A,2023-09-18_10h43.23.229,exp3,2022.2.2,
,,,,,,,,,,,,,,,,,,,,,,,,2,1158,Invalid,noise,45,2,3.505841300007887,1,3.0,4.813692099996842,True,1,22,A,2023-09-18_10h43.23.229,exp3,2022.2.2,
,,,,,,,,,,,,,,,,,,,,,,,,3,557,Valid,noise,-45,2,1.7215277000213973,1,4.0,3.0296501999837346,True,1,22,A,2023-09-18_10h43.23.229,exp3,2022.2.2,
,,,,,,,,,,,,,,,,,,,,,,,,4,-557,Invalid,signal,-45,1,1.5878935999935493,1,3.0,2.896160600008443,True,1,22,A,2023-09-18_10h43.23.229,exp3,2022.2.2,
,,,,,,,,,,,,,,,,,,,,,,,,5,2274,Invalid,noise,45,2,2.1378616000292823,1,2.0,3.446352700004354,True,1,22,A,2023-09-18_10h43.23.229,exp3,2022.2.2,
,,,,,,,,,,,,,,,,,,,,,,,,6,1716,Valid,signal,-45,1,2.0881798999616876,1,2.0,3.396415400027763,True,1,22,A,2023-09-18_10h43.23.229,exp3,2022.2.2,
,,,,,,,,,,,,,,,,,,,,,,,,7,557,Valid,signal,45,1,2.6221668000216596,1,4.0,3.9301081000012346,True,1,22,A,2023-09-18_10h43.23.229,exp3,2022.2.2,
,,,,,,,,,,,,,,,,,,,,,,,,8,557,Valid,noise,45,2,1.2883636000333354,1,4.0,2.5965913999825716,True,1,22,A,2023-09-18_10h43.23.229,exp3,2022.2.2,
,,,,,,,,,,,,,,,,,,,,,,,,9,2274,Valid,noise,45,2,1.5208451999933459,1,2.0,2.8289115000516176,True,1,22,A,2023-09-18_10h43.23.229,exp3,2022.2.2,
,,,,,,,,,,,,,,,,,,,,,,,,10,-2274,Valid,signal,45,2,2.2380525000044145,0,1.0,3.5466050999821164,True,1,22,A,2023-09-18_10h43.23.229,exp3,2022.2.2,
,,,,,,,,,,,,,,,,,,,,,,,,11,2274,Invalid,noise,45,2,5.339637500001118,1,2.0,6.647983000031672,True,1,22,A,2023-09-18_10h43.23.229,exp3,2022.2.2,
,,,,,,,,,,,,,,,,,,,,,,,,12,-1158,Valid,signal,-45,1,2.0719802000094205,1,4.0,3.379902900021989,True,1,22,A,2023-09-18_10h43.23.229,exp3,2022.2.2,
,,,,,,,,,,,,,,,,,,,,,,,,13,-557,Valid,signal,45,1,1.2366952000302263,1,4.0,2.545195100014098,True,1,22,A,2023-09-18_10h43.23.229,exp3,2022.2.2,
,,,,,,,,,,,,,,,,,,,,,,,,14,-2274,Invalid,noise,45,2,2.138472000020556,1,3.0,3.4466729999985546,True,1,22,A,2023-09-18_10h43.23.229,exp3,2022.2.2,
,,,,,,,,,,,,,,,,,,,,,,,,15,-557,Valid,noise,-45,2,1.1211692999931984,1,4.0,2.4292940000304952,True,1,22,A,2023-09-18_10h43.23.229,exp3,2022.2.2,
,,,,,,,,,,,,,,,,,,,,,,,,16,-2274,Valid,signal,-45,1,1.6876012000138871,1,3.0,2.995854800043162,True,1,22,A,2023-09-18_10h43.23.229,exp3,2022.2.2,
,,,,,,,,,,,,,,,,,,,,,,,,17,-2274,Valid,noise,45,2,1.6886373999877833,1,3.0,2.9966941000311635,True,1,22,A,2023-09-18_10h43.23.229,exp3,2022.2.2,
,,,,,,,,,,,,,,,,,,,,,,,,18,2274,Valid,noise,-45,2,1.5715887999976985,1,2.0,2.879642700019758,True,1,22,A,2023-09-18_10h43.23.229,exp3,2022.2.2,
,,,,,,,,,,,,,,,,,,,,,,,,19,-1716,Valid,signal,-45,1,1.6380786999943666,1,3.0,2.94608690001769,True,1,22,A,2023-09-18_10h43.23.229,exp3,2022.2.2,
,,,,,,,,,,,,,,,,,,,,,,,,20,1158,Valid,signal,45,1,1.1212095000082627,1,4.0,2.429184400010854,True,1,22,A,2023-09-18_10h43.23.229,exp3,2022.2.2,
,,,,,,,,,,,,,,,,,,,,,,,,21,-557,Valid,noise,-45,2,7.973499000014272,1,2.0,9.282022499945015,True,1,22,A,2023-09-18_10h43.23.229,exp3,2022.2.2,
,,,,,,,,,,,,,,,,,,,,,,,,22,557,Valid,noise,-45,2,2.105222899990622,1,3.0,3.4133666999987327,True,1,22,A,2023-09-18_10h43.23.229,exp3,2022.2.2,
,,,,,,,,,,,,,,,,,,,,,,,,23,1716,Valid,noise,-45,2,2.605857900052797,1,3.0,3.913900099985767,True,1,22,A,2023-09-18_10h43.23.229,exp3,2022.2.2,
,,,,,,,,,,,,,,,,,,,,,,,,24,557,Valid,signal,-45,1,1.3534226000192575,1,3.0,2.6618288999889046,True,1,22,A,2023-09-18_10h43.23.229,exp3,2022.2.2,
,,,,,,,,,,,,,,,,,,,,,,,,25,-557,Valid,signal,-45,1,0.9556513000279665,1,4.0,2.2634526999900118,True,1,22,A,2023-09-18_10h43.23.229,exp3,2022.2.2,
,,,,,,,,,,,,,,,,,,,,,,,,26,557,Valid,signal,-45,1,2.037062000017613,1,4.0,3.34531230002176,True,1,22,A,2023-09-18_10h43.23.229,exp3,2022.2.2,
,,,,,,,,,,,,,,,,,,,,,,,,27,-2274,Valid,signal,-45,1,1.35496329999296,1,2.0,2.6631467000115663,True,1,22,A,2023-09-18_10h43.23.229,exp3,2022.2.2,
,,,,,,,,,,,,,,,,,,,,,,,,28,557,Valid,signal,-45,1,1.32143549999455,1,4.0,2.629610000003595,True,1,22,A,2023-09-18_10h43.23.229,exp3,2022.2.2,
,,,,,,,,,,,,,,,,,,,,,,,,29,557,Valid,signal,45,1,0.9035540000186302,1,4.0,2.212097099982202,True,1,22,A,2023-09-18_10h43.23.229,exp3,2022.2.2,
,,,,,,,,,,,,,,,,,,,,,,,,30,2274,Valid,signal,-45,1,2.2390850999508984,1,1.0,3.5472007999778725,True,1,22,A,2023-09-18_10h43.23.229,exp3,2022.2.2,
,,,,,,,,,,,,,,,,,,,,,,,,31,1716,Valid,signal,45,1,1.4043338000192307,1,3.0,2.71258079999825,True,1,22,A,2023-09-18_10h43.23.229,exp3,2022.2.2,
,,,,,,,,,,,,,,,,,,,,,,,,32,557,Invalid,signal,45,2,1.9373759000445716,0,1.0,3.2457434000098146,True,1,22,A,2023-09-18_10h43.23.229,exp3,2022.2.2,
,,,,,,,,,,,,,,,,,,,,,,,,33,-1716,Valid,noise,45,2,1.2382075000205077,1,3.0,2.5464272999670357,True,1,22,A,2023-09-18_10h43.23.229,exp3,2022.2.2,
,,,,,,,,,,,,,,,,,,,,,,,,34,1158,Valid,noise,45,2,1.3049860000028275,1,3.0,2.612961200007703,True,1,22,A,2023-09-18_10h43.23.229,exp3,2022.2.2,
,,,,,,,,,,,,,,,,,,,,,,,,35,2274,Valid,noise,-45,2,2.487906700000167,1,3.0,3.7960255999932997,True,1,22,A,2023-09-18_10h43.23.229,exp3,2022.2.2,
,,,,,,,,,,,,,,,,,,,,,,,,36,1716,Invalid,signal,-45,1,1.5041107999859378,1,3.0,2.8127327999682166,True,1,22,A,2023-09-18_10h43.23.229,exp3,2022.2.2,
,,,,,,,,,,,,,,,,,,,,,,,,37,-1716,Valid,noise,45,2,1.3714241000125185,1,3.0,2.6793897000025027,True,1,22,A,2023-09-18_10h43.23.229,exp3,2022.2.2,
,,,,,,,,,,,,,,,,,,,,,,,,38,557,Valid,noise,-45,2,1.404362700006459,1,4.0,2.7127877000020817,True,1,22,A,2023-09-18_10h43.23.229,exp3,2022.2.2,
,,,,,,,,,,,,,,,,,,,,,,,,39,-1716,Valid,signal,-45,1,1.0377617999911308,1,3.0,2.346048899984453,True,1,22,A,2023-09-18_10h43.23.229,exp3,2022.2.2,
,,,,,,,,,,,,,,,,,,,,,,,,40,1158,Valid,signal,45,1,1.2544980000238866,1,4.0,2.5627808999852277,True,1,22,A,2023-09-18_10h43.23.229,exp3,2022.2.2,
,,,,,,,,,,,,,,,,,,,,,,,,41,557,Valid,noise,-45,2,0.8548343000002205,1,4.0,2.1627655999618582,True,1,22,A,2023-09-18_10h43.23.229,exp3,2022.2.2,
,,,,,,,,,,,,,,,,,,,,,,,,42,-1158,Valid,noise,45,2,1.5875660000019707,1,4.0,2.8959809000371024,True,1,22,A,2023-09-18_10h43.23.229,exp3,2022.2.2,
,,,,,,,,,,,,,,,,,,,,,,,,43,2274,Valid,signal,45,2,3.188514799985569,0,2.0,4.4967347999918275,True,1,22,A,2023-09-18_10h43.23.229,exp3,2022.2.2,
,,,,,,,,,,,,,,,,,,,,,,,,44,-1716,Invalid,noise,45,2,1.5051526999450289,1,3.0,2.8132253999938257,True,1,22,A,2023-09-18_10h43.23.229,exp3,2022.2.2,
,,,,,,,,,,,,,,,,,,,,,,,,45,2274,Valid,signal,45,1,1.3542547999531962,1,2.0,2.662762499996461,True,1,22,A,2023-09-18_10h43.23.229,exp3,2022.2.2,
,,,,,,,,,,,,,,,,,,,,,,,,46,-2274,Valid,noise,45,2,1.9217169999610633,1,4.0,3.2301336000091396,True,1,22,A,2023-09-18_10h43.23.229,exp3,2022.2.2,
,,,,,,,,,,,,,,,,,,,,,,,,47,-1158,Valid,noise,45,2,1.7709157000062987,1,3.0,3.079287300002761,True,1,22,A,2023-09-18_10h43.23.229,exp3,2022.2.2,
,,,,,,,,,,,,,,,,,,,,,,,,48,2274,Valid,noise,45,2,1.5050278999842703,1,2.0,2.8133407999994233,True,1,22,A,2023-09-18_10h43.23.229,exp3,2022.2.2,
,,,,,,,,,,,,,,,,,,,,,,,,49,-557,Valid,noise,45,2,1.0707155000418425,1,4.0,2.379149700049311,True,1,22,A,2023-09-18_10h43.23.229,exp3,2022.2.2,
,,,,,,,,,,,,,,,,,,,,,,,,50,557,Valid,signal,45,1,0.9374162000021897,1,4.0,2.2455223000142723,True,1,22,A,2023-09-18_10h43.23.229,exp3,2022.2.2,
,,,,,,,,,,,,,,,,,,,,,,,,51,-557,Invalid,noise,-45,2,1.9381116000004113,1,4.0,3.246380299970042,True,1,22,A,2023-09-18_10h43.23.229,exp3,2022.2.2,
,,,,,,,,,,,,,,,,,,,,,,,,52,-1716,Invalid,signal,-45,1,1.221371999999974,1,4.0,2.5295394000131637,True,1,22,A,2023-09-18_10h43.23.229,exp3,2022.2.2,
,,,,,,,,,,,,,,,,,,,,,,,,53,557,Invalid,noise,-45,2,1.4879459000076167,1,3.0,2.7961294000269845,True,1,22,A,2023-09-18_10h43.23.229,exp3,2022.2.2,
,,,,,,,,,,,,,,,,,,,,,,,,54,-1158,Valid,signal,45,1,1.0210820999927819,1,4.0,2.3294857000000775,True,1,22,A,2023-09-18_10h43.23.229,exp3,2022.2.2,
,,,,,,,,,,,,,,,,,,,,,,,,55,2274,Invalid,signal,-45,1,1.1874216999858618,1,4.0,2.495800299977418,True,1,22,A,2023-09-18_10h43.23.229,exp3,2022.2.2,
,,,,,,,,,,,,,,,,,,,,,,,,56,-1158,Valid,noise,45,2,1.2881617000093684,1,3.0,2.596472700010054,True,1,22,A,2023-09-18_10h43.23.229,exp3,2022.2.2,
,,,,,,,,,,,,,,,,,,,,,,,,57,1716,Valid,noise,45,2,1.2539715999737382,1,4.0,2.5623099000076763,True,1,22,A,2023-09-18_10h43.23.229,exp3,2022.2.2,
,,,,,,,,,,,,,,,,,,,,,,,,58,557,Invalid,noise,45,2,0.9380518000107259,1,4.0,2.2462993999943137,True,1,22,A,2023-09-18_10h43.23.229,exp3,2022.2.2,
,,,,,,,,,,,,,,,,,,,,,,,,59,-557,Valid,signal,45,1,0.9542705999920145,1,4.0,2.2626554000307806,True,1,22,A,2023-09-18_10h43.23.229,exp3,2022.2.2,
,,,,,,,,,,,,,,,,,,,,,,,,60,1716,Valid,signal,45,1,2.4545689999940805,1,4.0,3.7628890000050887,True,1,22,A,2023-09-18_10h43.23.229,exp3,2022.2.2,
,,,,,,,,,,,,,,,,,,,,,,,,61,-1716,Valid,signal,-45,1,1.1720459999633022,1,3.0,2.4801825000322424,True,1,22,A,2023-09-18_10h43.23.229,exp3,2022.2.2,
,,,,,,,,,,,,,,,,,,,,,,,,62,-2274,Valid,signal,45,1,1.0030396999791265,1,3.0,2.311427900043782,True,1,22,A,2023-09-18_10h43.23.229,exp3,2022.2.2,
,,,,,,,,,,,,,,,,,,,,,,,,63,-557,Valid,noise,45,2,1.2209102000342682,1,4.0,2.5293190999655053,True,1,22,A,2023-09-18_10h43.23.229,exp3,2022.2.2,
,,,,,,,,,,,,,,,,,,,,,,,,64,1158,Valid,noise,-45,2,2.254863000009209,1,4.0,3.5632276000105776,True,1,22,A,2023-09-18_10h43.23.229,exp3,2022.2.2,
,,,,,,,,,,,,,,,,,,,,,,,,65,-1158,Valid,signal,45,1,0.7877884000190534,1,4.0,2.096253599971533,True,1,22,A,2023-09-18_10h43.23.229,exp3,2022.2.2,
,,,,,,,,,,,,,,,,,,,,,,,,66,-2274,Valid,signal,-45,1,0.9543838999816217,1,3.0,2.262625899980776,True,1,22,A,2023-09-18_10h43.23.229,exp3,2022.2.2,
,,,,,,,,,,,,,,,,,,,,,,,,67,1716,Valid,noise,45,2,0.9543416000087745,1,4.0,2.2627657999983057,True,1,22,A,2023-09-18_10h43.23.229,exp3,2022.2.2,
,,,,,,,,,,,,,,,,,,,,,,,,68,557,Valid,signal,-45,1,1.0209653999772854,1,4.0,2.3292853999882936,True,1,22,A,2023-09-18_10h43.23.229,exp3,2022.2.2,
,,,,,,,,,,,,,,,,,,,,,,,,69,-557,Valid,signal,45,1,1.9384984000353143,1,4.0,3.2466443000012077,True,1,22,A,2023-09-18_10h43.23.229,exp3,2022.2.2,
,,,,,,,,,,,,,,,,,,,,,,,,70,-2274,Invalid,noise,-45,2,2.9550640000379644,1,1.0,4.263103500008583,True,1,22,A,2023-09-18_10h43.23.229,exp3,2022.2.2,
,,,,,,,,,,,,,,,,,,,,,,,,71,-1716,Valid,noise,-45,2,1.8378148999763653,1,3.0,3.146161700016819,True,1,22,A,2023-09-18_10h43.23.229,exp3,2022.2.2,
,,,,,,,,,,,,,,,,,,,,,,,,72,-1158,Valid,noise,45,2,1.3043066000100225,1,4.0,2.6127874000230804,True,1,22,A,2023-09-18_10h43.23.229,exp3,2022.2.2,
,,,,,,,,,,,,,,,,,,,,,,,,73,-557,Valid,noise,45,2,0.888187900010962,1,4.0,2.1961309000034817,True,1,22,A,2023-09-18_10h43.23.229,exp3,2022.2.2,
,,,,,,,,,,,,,,,,,,,,,,,,74,-557,Valid,signal,-45,1,0.9376218999968842,1,4.0,2.245973100012634,True,1,22,A,2023-09-18_10h43.23.229,exp3,2022.2.2,
,,,,,,,,,,,,,,,,,,,,,,,,75,1158,Valid,signal,-45,1,0.9206195999868214,1,4.0,2.2290130999754183,True,1,22,A,2023-09-18_10h43.23.229,exp3,2022.2.2,
,,,,,,,,,,,,,,,,,,,,,,,,76,-1716,Invalid,signal,45,1,0.9211711999960244,1,4.0,2.229383700003382,True,1,22,A,2023-09-18_10h43.23.229,exp3,2022.2.2,
,,,,,,,,,,,,,,,,,,,,,,,,77,-557,Invalid,signal,-45,1,0.8710529000381939,1,4.0,2.1793419000459835,True,1,22,A,2023-09-18_10h43.23.229,exp3,2022.2.2,
,,,,,,,,,,,,,,,,,,,,,,,,78,2274,Valid,signal,45,1,2.054718400002457,1,1.0,3.3628518999903463,True,1,22,A,2023-09-18_10h43.23.229,exp3,2022.2.2,
,,,,,,,,,,,,,,,,,,,,,,,,79,557,Valid,signal,-45,1,1.188788800034672,1,4.0,2.4970858999877237,True,1,22,A,2023-09-18_10h43.23.229,exp3,2022.2.2,
,,,,,,,,,,,,,,,,,,,,,,,,80,-2274,Valid,noise,45,2,1.0537598000373691,1,3.0,2.3621443000156432,True,1,22,A,2023-09-18_10h43.23.229,exp3,2022.2.2,
,,,,,,,,,,,,,,,,,,,,,,,,81,2274,Valid,noise,-45,2,1.7708963000332005,1,2.0,3.0793431000201963,True,1,22,A,2023-09-18_10h43.23.229,exp3,2022.2.2,
,,,,,,,,,,,,,,,,,,,,,,,,82,-2274,Invalid,signal,-45,2,1.4547177000204101,0,3.0,2.7631193000124767,True,1,22,A,2023-09-18_10h43.23.229,exp3,2022.2.2,
,,,,,,,,,,,,,,,,,,,,,,,,83,557,Valid,noise,-45,2,1.3211598999914713,1,4.0,2.6295302999787964,True,1,22,A,2023-09-18_10h43.23.229,exp3,2022.2.2,
,,,,,,,,,,,,,,,,,,,,,,,,84,1716,Valid,signal,45,1,1.1551745000178926,1,2.0,2.463340700021945,True,1,22,A,2023-09-18_10h43.23.229,exp3,2022.2.2,
,,,,,,,,,,,,,,,,,,,,,,,,85,-557,Valid,signal,45,1,0.9034169999649748,1,4.0,2.211869199993089,True,1,22,A,2023-09-18_10h43.23.229,exp3,2022.2.2,
,,,,,,,,,,,,,,,,,,,,,,,,86,-1158,Valid,signal,-45,1,0.8375451000174507,1,4.0,2.1457630999502726,True,1,22,A,2023-09-18_10h43.23.229,exp3,2022.2.2,
,,,,,,,,,,,,,,,,,,,,,,,,87,1716,Valid,signal,-45,1,1.2052425000001676,1,2.0,2.5133170999470167,True,1,22,A,2023-09-18_10h43.23.229,exp3,2022.2.2,
,,,,,,,,,,,,,,,,,,,,,,,,88,-2274,Valid,noise,-45,2,1.0878828999702819,1,3.0,2.3961303000105545,True,1,22,A,2023-09-18_10h43.23.229,exp3,2022.2.2,
,,,,,,,,,,,,,,,,,,,,,,,,89,1716,Invalid,noise,-45,2,1.0033483000006527,1,4.0,2.3119096999871545,True,1,22,A,2023-09-18_10h43.23.229,exp3,2022.2.2,
,,,,,,,,,,,,,,,,,,,,,,,,90,-1158,Valid,noise,-45,2,2.3217689000302926,1,2.0,3.6301470000180416,True,1,22,A,2023-09-18_10h43.23.229,exp3,2022.2.2,
,,,,,,,,,,,,,,,,,,,,,,,,91,-557,Valid,signal,-45,1,0.8376882000011392,1,4.0,2.1457883999682963,True,1,22,A,2023-09-18_10h43.23.229,exp3,2022.2.2,
,,,,,,,,,,,,,,,,,,,,,,,,92,-2274,Valid,signal,45,1,1.5710730999708176,1,2.0,2.8793744000140578,True,1,22,A,2023-09-18_10h43.23.229,exp3,2022.2.2,
,,,,,,,,,,,,,,,,,,,,,,,,93,-1158,Invalid,noise,45,2,1.9212253000005148,1,4.0,3.229856100049801,True,1,22,A,2023-09-18_10h43.23.229,exp3,2022.2.2,
,,,,,,,,,,,,,,,,,,,,,,,,94,1716,Valid,noise,-45,2,0.9045735000399873,1,4.0,2.2126855999813415,True,1,22,A,2023-09-18_10h43.23.229,exp3,2022.2.2,
,,,,,,,,,,,,,,,,,,,,,,,,95,-2274,Valid,signal,-45,1,1.7213842999772169,1,2.0,3.0298506999970414,True,1,22,A,2023-09-18_10h43.23.229,exp3,2022.2.2,
,,,,,,,,,,,,,,,,,,,,,,,,96,1158,Invalid,noise,45,2,1.371394900023006,1,4.0,2.6797414000029676,True,1,22,A,2023-09-18_10h43.23.229,exp3,2022.2.2,
,,,,,,,,,,,,,,,,,,,,,,,,97,2274,Valid,signal,45,1,2.4558100000140257,1,1.0,3.7636843000072986,True,1,22,A,2023-09-18_10h43.23.229,exp3,2022.2.2,
,,,,,,,,,,,,,,,,,,,,,,,,98,1716,Valid,signal,-45,1,1.1538759000250138,1,2.0,2.4619086000020616,True,1,22,A,2023-09-18_10h43.23.229,exp3,2022.2.2,
,,,,,,,,,,,,,,,,,,,,,,,,99,-1716,Valid,signal,-45,1,1.0713863000273705,1,3.0,2.3795184000045992,True,1,22,A,2023-09-18_10h43.23.229,exp3,2022.2.2,
,,,,,,,,,,,,,,,,,,,,,,,,100,-1158,Valid,signal,-45,1,1.9379802999901585,1,4.0,3.2462825999828056,True,1,22,A,2023-09-18_10h43.23.229,exp3,2022.2.2,
,,,,,,,,,,,,,,,,,,,,,,,,101,-557,Valid,noise,45,2,1.4380661000031978,1,3.0,2.7464397000148892,True,1,22,A,2023-09-18_10h43.23.229,exp3,2022.2.2,
,,,,,,,,,,,,,,,,,,,,,,,,102,1158,Valid,noise,45,2,2.58900509995874,1,3.0,3.8970167999505065,True,1,22,A,2023-09-18_10h43.23.229,exp3,2022.2.2,
,,,,,,,,,,,,,,,,,,,,,,,,103,-1158,Valid,signal,-45,1,0.970050000003539,1,4.0,2.27849439997226,True,1,22,A,2023-09-18_10h43.23.229,exp3,2022.2.2,
,,,,,,,,,,,,,,,,,,,,,,,,104,2274,Valid,noise,45,2,1.0713273999863304,1,3.0,2.379318499995861,True,1,22,A,2023-09-18_10h43.23.229,exp3,2022.2.2,
,,,,,,,,,,,,,,,,,,,,,,,,105,1716,Valid,signal,-45,1,1.0877182999975048,1,3.0,2.3962438000016846,True,1,22,A,2023-09-18_10h43.23.229,exp3,2022.2.2,
,,,,,,,,,,,,,,,,,,,,,,,,106,557,Invalid,signal,-45,1,2.1218649999937043,1,4.0,3.4301307999994606,True,1,22,A,2023-09-18_10h43.23.229,exp3,2022.2.2,
,,,,,,,,,,,,,,,,,,,,,,,,107,-557,Valid,noise,45,2,1.021196299989242,1,3.0,2.3293999999877997,True,1,22,A,2023-09-18_10h43.23.229,exp3,2022.2.2,
,,,,,,,,,,,,,,,,,,,,,,,,108,1158,Valid,noise,-45,2,0.8039546000072733,1,4.0,2.112134499999229,True,1,22,A,2023-09-18_10h43.23.229,exp3,2022.2.2,
,,,,,,,,,,,,,,,,,,,,,,,,109,1158,Valid,noise,-45,2,0.7874229999724776,1,4.0,2.0960255000391044,True,1,22,A,2023-09-18_10h43.23.229,exp3,2022.2.2,
,,,,,,,,,,,,,,,,,,,,,,,,110,1716,Invalid,noise,-45,2,0.7541788999806158,1,4.0,2.062462300003972,True,1,22,A,2023-09-18_10h43.23.229,exp3,2022.2.2,
,,,,,,,,,,,,,,,,,,,,,,,,111,1716,Valid,noise,-45,2,0.7876026999438182,1,4.0,2.0958132999949157,True,1,22,A,2023-09-18_10h43.23.229,exp3,2022.2.2,
,,,,,,,,,,,,,,,,,,,,,,,,112,2274,Invalid,signal,45,1,1.3544070000061765,1,1.0,2.662932799954433,True,1,22,A,2023-09-18_10h43.23.229,exp3,2022.2.2,
,,,,,,,,,,,,,,,,,,,,,,,,113,-557,Valid,noise,45,1,1.6550742000108585,0,1.0,2.963253599999007,True,1,22,A,2023-09-18_10h43.23.229,exp3,2022.2.2,
,,,,,,,,,,,,,,,,,,,,,,,,114,-557,Valid,signal,-45,1,0.7706484000082128,1,4.0,2.0789125000010245,True,1,22,A,2023-09-18_10h43.23.229,exp3,2022.2.2,
,,,,,,,,,,,,,,,,,,,,,,,,115,2274,Valid,signal,45,2,1.3381732000270858,0,2.0,2.646361999970395,True,1,22,A,2023-09-18_10h43.23.229,exp3,2022.2.2,
,,,,,,,,,,,,,,,,,,,,,,,,116,-2274,Valid,signal,45,1,1.8884566000197083,1,1.0,3.1967045000055805,True,1,22,A,2023-09-18_10h43.23.229,exp3,2022.2.2,
,,,,,,,,,,,,,,,,,,,,,,,,117,2274,Valid,noise,45,2,1.0203376999706961,1,3.0,2.3287972999969497,True,1,22,A,2023-09-18_10h43.23.229,exp3,2022.2.2,
,,,,,,,,,,,,,,,,,,,,,,,,118,-1716,Valid,signal,45,1,1.3218527000281028,1,3.0,2.6298268999671564,True,1,22,A,2023-09-18_10h43.23.229,exp3,2022.2.2,
,,,,,,,,,,,,,,,,,,,,,,,,119,557,Valid,noise,-45,2,0.8037358999717981,1,4.0,2.112174799956847,True,1,22,A,2023-09-18_10h43.23.229,exp3,2022.2.2,
,,,,,,,,,,,,,,,,,,,,,,,,120,-1716,Valid,noise,45,2,0.9210461999755353,1,3.0,2.2294044999871403,True,1,22,A,2023-09-18_10h43.23.229,exp3,2022.2.2,
,,,,,,,,,,,,,,,,,,,,,,,,121,1716,Valid,signal,-45,1,0.9876933000050485,1,2.0,2.296018399996683,True,1,22,A,2023-09-18_10h43.23.229,exp3,2022.2.2,
,,,,,,,,,,,,,,,,,,,,,,,,122,-2274,Invalid,signal,45,2,1.5215412999968976,0,2.0,2.829946600017138,True,1,22,A,2023-09-18_10h43.23.229,exp3,2022.2.2,
,,,,,,,,,,,,,,,,,,,,,,,,123,-1716,Invalid,noise,-45,2,0.9380968000041321,1,3.0,2.2463279999792576,True,1,22,A,2023-09-18_10h43.23.229,exp3,2022.2.2,
,,,,,,,,,,,,,,,,,,,,,,,,124,-2274,Valid,signal,45,2,2.0207531000487506,0,2.0,3.3292483999975957,True,1,22,A,2023-09-18_10h43.23.229,exp3,2022.2.2,
,,,,,,,,,,,,,,,,,,,,,,,,125,1716,Valid,noise,45,2,1.0213320999755524,1,3.0,2.329638099996373,True,1,22,A,2023-09-18_10h43.23.229,exp3,2022.2.2,
,,,,,,,,,,,,,,,,,,,,,,,,126,-1716,Valid,noise,45,2,0.9044044999754988,1,3.0,2.212429200008046,True,1,22,A,2023-09-18_10h43.23.229,exp3,2022.2.2,
,,,,,,,,,,,,,,,,,,,,,,,,127,-1158,Valid,noise,-45,2,0.9038541999761946,1,3.0,2.212256700033322,True,1,22,A,2023-09-18_10h43.23.229,exp3,2022.2.2,
,,,,,,,,,,,,,,,,,,,,,,,,128,1158,Valid,noise,-45,2,0.7879721000208519,1,4.0,2.0962834000238217,True,1,22,A,2023-09-18_10h43.23.229,exp3,2022.2.2,
,,,,,,,,,,,,,,,,,,,,,,,,129,-1716,Valid,signal,45,1,1.3039008000050671,1,2.0,2.612239599984605,True,1,22,A,2023-09-18_10h43.23.229,exp3,2022.2.2,
,,,,,,,,,,,,,,,,,,,,,,,,130,-1158,Valid,signal,-45,1,0.8047215000260621,1,3.0,2.1130722000380047,True,1,22,A,2023-09-18_10h43.23.229,exp3,2022.2.2,
,,,,,,,,,,,,,,,,,,,,,,,,131,1716,Valid,noise,45,2,1.4543931999942288,1,4.0,2.7627625000313856,True,1,22,A,2023-09-18_10h43.23.229,exp3,2022.2.2,
,,,,,,,,,,,,,,,,,,,,,,,,132,-1158,Invalid,noise,45,2,0.7549405000172555,1,4.0,2.0630932999774814,True,1,22,A,2023-09-18_10h43.23.229,exp3,2022.2.2,
,,,,,,,,,,,,,,,,,,,,,,,,133,1716,Invalid,signal,45,1,2.2208066000021063,1,4.0,3.5289715999970213,True,1,22,A,2023-09-18_10h43.23.229,exp3,2022.2.2,
,,,,,,,,,,,,,,,,,,,,,,,,134,-1158,Valid,noise,-45,2,0.8381100999540649,1,4.0,2.1463921000249684,True,1,22,A,2023-09-18_10h43.23.229,exp3,2022.2.2,
,,,,,,,,,,,,,,,,,,,,,,,,135,-2274,Valid,noise,-45,2,1.604685399972368,1,4.0,2.912845200044103,True,1,22,A,2023-09-18_10h43.23.229,exp3,2022.2.2,
,,,,,,,,,,,,,,,,,,,,,,,,136,1158,Valid,signal,45,1,0.9210008999798447,1,3.0,2.2292920000036247,True,1,22,A,2023-09-18_10h43.23.229,exp3,2022.2.2,
,,,,,,,,,,,,,,,,,,,,,,,,137,-1158,Valid,signal,-45,1,0.9373245000024326,1,3.0,2.2456371000153013,True,1,22,A,2023-09-18_10h43.23.229,exp3,2022.2.2,
,,,,,,,,,,,,,,,,,,,,,,,,138,-557,Invalid,noise,45,2,2.3382769000018016,1,4.0,3.646417999989353,True,1,22,A,2023-09-18_10h43.23.229,exp3,2022.2.2,
,,,,,,,,,,,,,,,,,,,,,,,,139,-1716,Valid,noise,-45,2,0.9217987000010908,1,4.0,2.229621800011955,True,1,22,A,2023-09-18_10h43.23.229,exp3,2022.2.2,
,,,,,,,,,,,,,,,,,,,,,,,,140,2274,Valid,signal,-45,2,0.8538445999729447,0,4.0,2.161921999999322,True,1,22,A,2023-09-18_10h43.23.229,exp3,2022.2.2,
,,,,,,,,,,,,,,,,,,,,,,,,141,-1716,Valid,noise,-45,2,0.8883891999721527,1,4.0,2.1963473000214435,True,1,22,A,2023-09-18_10h43.23.229,exp3,2022.2.2,
,,,,,,,,,,,,,,,,,,,,,,,,142,1158,Invalid,signal,45,1,0.9038586000096984,1,3.0,2.212081300036516,True,1,22,A,2023-09-18_10h43.23.229,exp3,2022.2.2,
,,,,,,,,,,,,,,,,,,,,,,,,143,1158,Valid,noise,-45,2,0.8046968999551609,1,4.0,2.1129475999623537,True,1,22,A,2023-09-18_10h43.23.229,exp3,2022.2.2,
,,,,,,,,,,,,,,,,,,,,,,,,144,-1158,Invalid,signal,45,1,0.971327300008852,1,3.0,2.279626300034579,True,1,22,A,2023-09-18_10h43.23.229,exp3,2022.2.2,
,,,,,,,,,,,,,,,,,,,,,,,,145,-1158,Valid,signal,-45,1,1.2870457000099123,1,4.0,2.595463599951472,True,1,22,A,2023-09-18_10h43.23.229,exp3,2022.2.2,
,,,,,,,,,,,,,,,,,,,,,,,,146,1158,Valid,signal,45,1,0.9218639999744482,1,4.0,2.230322499992326,True,1,22,A,2023-09-18_10h43.23.229,exp3,2022.2.2,
,,,,,,,,,,,,,,,,,,,,,,,,147,-2274,Valid,noise,-45,2,0.9371746000251733,1,4.0,2.2452548999572173,True,1,22,A,2023-09-18_10h43.23.229,exp3,2022.2.2,
,,,,,,,,,,,,,,,,,,,,,,,,148,557,Valid,noise,-45,2,0.6872261999524198,1,4.0,1.9953441999969073,True,1,22,A,2023-09-18_10h43.23.229,exp3,2022.2.2,
,,,,,,,,,,,,,,,,,,,,,,,,149,1158,Valid,signal,45,1,0.9875960000208579,1,3.0,2.296028499957174,True,1,22,A,2023-09-18_10h43.23.229,exp3,2022.2.2,
,,,,,,,,,,,,,,,,,,,,,,,,150,1716,Valid,signal,-45,1,1.0215378999710083,1,3.0,2.329819700040389,True,1,22,A,2023-09-18_10h43.23.229,exp3,2022.2.2,
,,,,,,,,,,,,,,,,,,,,,,,,151,-1716,Valid,noise,-45,2,0.8873701999546029,1,4.0,2.1955370000214316,True,1,22,A,2023-09-18_10h43.23.229,exp3,2022.2.2,
,,,,,,,,,,,,,,,,,,,,,,,,152,1158,Invalid,signal,-45,1,0.9547237000078894,1,4.0,2.262637200008612,True,1,22,A,2023-09-18_10h43.23.229,exp3,2022.2.2,
,,,,,,,,,,,,,,,,,,,,,,,,153,1716,Valid,noise,-45,2,0.9367276999983005,1,4.0,2.245657099992968,True,1,22,A,2023-09-18_10h43.23.229,exp3,2022.2.2,
,,,,,,,,,,,,,,,,,,,,,,,,154,-2274,Valid,noise,-45,2,1.77171110000927,1,4.0,3.079915600013919,True,1,22,A,2023-09-18_10h43.23.229,exp3,2022.2.2,
,,,,,,,,,,,,,,,,,,,,,,,,155,-1158,Invalid,signal,-45,1,1.0221248000161722,1,4.0,2.3300643999828026,True,1,22,A,2023-09-18_10h43.23.229,exp3,2022.2.2,
,,,,,,,,,,,,,,,,,,,,,,,,156,-557,Valid,signal,45,1,0.9538562999805436,1,4.0,2.262068599986378,True,1,22,A,2023-09-18_10h43.23.229,exp3,2022.2.2,
,,,,,,,,,,,,,,,,,,,,,,,,157,2274,Valid,signal,45,2,1.3717904000077397,0,2.0,2.679822200036142,True,1,22,A,2023-09-18_10h43.23.229,exp3,2022.2.2,
,,,,,,,,,,,,,,,,,,,,,,,,158,-1716,Valid,signal,45,1,1.004107299959287,1,3.0,2.3121932999929413,True,1,22,A,2023-09-18_10h43.23.229,exp3,2022.2.2,
,,,,,,,,,,,,,,,,,,,,,,,,159,-1716,Valid,signal,45,1,1.0042892000055872,1,3.0,2.312343899975531,True,1,22,A,2023-09-18_10h43.23.229,exp3,2022.2.2,
,,,,,,,,,,,,,,,,,,,,,,,,160,2274,Valid,signal,-45,2,0.9886309999856167,0,4.0,2.2967057999921963,True,1,22,A,2023-09-18_10h43.23.229,exp3,2022.2.2,
,,,,,,,,,,,,,,,,,,,,,,,,161,1158,Valid,noise,45,2,0.9034742999938317,1,4.0,2.21178479999071,True,1,22,A,2023-09-18_10h43.23.229,exp3,2022.2.2,
,,,,,,,,,,,,,,,,,,,,,,,,162,-2274,Valid,noise,-45,2,0.8544588999939151,1,4.0,2.1628508000285365,True,1,22,A,2023-09-18_10h43.23.229,exp3,2022.2.2,
,,,,,,,,,,,,,,,,,,,,,,,,163,2274,Valid,noise,-45,2,1.1712617000448518,1,4.0,2.479464099975303,True,1,22,A,2023-09-18_10h43.23.229,exp3,2022.2.2,
,,,,,,,,,,,,,,,,,,,,,,,,164,1158,Valid,noise,-45,2,0.7543614000314847,1,4.0,2.062348800012842,True,1,22,A,2023-09-18_10h43.23.229,exp3,2022.2.2,
,,,,,,,,,,,,,,,,,,,,,,,,165,557,Valid,signal,45,1,0.9045209000469185,1,4.0,2.212644500017632,True,1,22,A,2023-09-18_10h43.23.229,exp3,2022.2.2,
,,,,,,,,,,,,,,,,,,,,,,,,166,2274,Valid,noise,45,2,0.8212132999906316,1,4.0,2.129108000022825,True,1,22,A,2023-09-18_10h43.23.229,exp3,2022.2.2,
,,,,,,,,,,,,,,,,,,,,,,,,167,-1716,Valid,signal,45,1,0.9371186000062153,1,3.0,2.245317100023385,True,1,22,A,2023-09-18_10h43.23.229,exp3,2022.2.2,
,,,,,,,,,,,,,,,,,,,,,,,,168,557,Valid,noise,-45,2,2.0723659000359476,1,4.0,3.3802305000135675,True,1,22,A,2023-09-18_10h43.23.229,exp3,2022.2.2,
,,,,,,,,,,,,,,,,,,,,,,,,169,1158,Valid,signal,45,1,3.45537239999976,1,4.0,4.7635819999850355,True,1,22,A,2023-09-18_10h43.23.229,exp3,2022.2.2,
,,,,,,,,,,,,,,,,,,,,,,,,170,-1158,Valid,noise,45,2,0.754320599953644,1,4.0,2.06237770000007,True,1,22,A,2023-09-18_10h43.23.229,exp3,2022.2.2,
,,,,,,,,,,,,,,,,,,,,,,,,171,1158,Valid,signal,45,1,1.355031599989161,1,3.0,2.6629193000262603,True,1,22,A,2023-09-18_10h43.23.229,exp3,2022.2.2,
,,,,,,,,,,,,,,,,,,,,,,,,172,-1716,Valid,noise,-45,2,0.8039688999997452,1,4.0,2.1121497999993153,True,1,22,A,2023-09-18_10h43.23.229,exp3,2022.2.2,
,,,,,,,,,,,,,,,,,,,,,,,,173,-2274,Valid,noise,-45,2,0.8544547000201419,1,4.0,2.162713599973358,True,1,22,A,2023-09-18_10h43.23.229,exp3,2022.2.2,
,,,,,,,,,,,,,,,,,,,,,,,,174,-557,Valid,noise,-45,2,0.8712155999965034,1,4.0,2.179128399991896,True,1,22,A,2023-09-18_10h43.23.229,exp3,2022.2.2,
,,,,,,,,,,,,,,,,,,,,,,,,175,1158,Valid,signal,-45,1,1.237736799987033,1,3.0,2.5459084000322036,True,1,22,A,2023-09-18_10h43.23.229,exp3,2022.2.2,
,,,,,,,,,,,,,,,,,,,,,,,,176,-1158,Valid,noise,-45,2,0.8207473999937065,1,3.0,2.1290057000005618,True,1,22,A,2023-09-18_10h43.23.229,exp3,2022.2.2,
,,,,,,,,,,,,,,,,,,,,,,,,2,-2274,Valid,noise,45,2,3.2401003999984823,1,4.0,4.5488165999995545,True,1,22,A,2023-09-18_10h43.23.229,exp3,2022.2.2,
,,,,,,,,,,,,,,,,,,,,,,,,4,-557,Valid,noise,-45,2,1.0346533000119962,1,4.0,2.345958999998402,True,1,22,A,2023-09-18_10h43.23.229,exp3,2022.2.2,
,,,,,,,,,,,,,,,,,,,,,,,,6,557,Valid,signal,-45,1,0.8372692999546416,1,4.0,2.145964900031686,True,1,22,A,2023-09-18_10h43.23.229,exp3,2022.2.2,
,,,,,,,,,,,,,,,,,,,,,,,,8,-557,Valid,noise,-45,2,0.687533899967093,1,4.0,1.9959208999644034,True,1,22,A,2023-09-18_10h43.23.229,exp3,2022.2.2,
,,,,,,,,,,,,,,,,,,,,,,,,10,2274,Valid,noise,-45,1,2.887767400010489,0,1.0,4.1966933000367135,True,1,22,A,2023-09-18_10h43.23.229,exp3,2022.2.2,
,,,,,,,,,,,,,,,,,,,,,,,,12,2274,Valid,signal,-45,2,2.004592999990564,0,2.0,3.313138599973172,True,1,22,A,2023-09-18_10h43.23.229,exp3,2022.2.2,
,,,,,,,,,,,,,,,,,,,,,,,,14,557,Invalid,signal,45,1,1.3539689000463113,1,4.0,2.6627471999963745,True,1,22,A,2023-09-18_10h43.23.229,exp3,2022.2.2,
,,,,,,,,,,,,,,,,,,,,,,,,16,-1158,Valid,signal,-45,1,1.1043862999649718,1,3.0,2.4128538999939337,True,1,22,A,2023-09-18_10h43.23.229,exp3,2022.2.2,
,,,,,,,,,,,,,,,,,,,,,,,,18,1716,Valid,signal,45,1,1.0368954000296071,1,3.0,2.3456882999744266,True,1,22,A,2023-09-18_10h43.23.229,exp3,2022.2.2,
,,,,,,,,,,,,,,,,,,,,,,,,20,1158,Valid,noise,45,2,0.9715618999907747,1,4.0,2.279854400025215,True,1,22,A,2023-09-18_10h43.23.229,exp3,2022.2.2,
,,,,,,,,,,,,,,,,,,,,,,,,22,-557,Invalid,noise,45,2,1.0038047000416555,1,4.0,2.3123667999752797,True,1,22,A,2023-09-18_10h43.23.229,exp3,2022.2.2,
,,,,,,,,,,,,,,,,,,,,,,,,24,-557,Invalid,signal,45,1,0.8704078000155278,1,3.0,2.179048700025305,True,1,22,A,2023-09-18_10h43.23.229,exp3,2022.2.2,
,,,,,,,,,,,,,,,,,,,,,,,,26,2274,Invalid,signal,45,1,1.3041755000012927,1,3.0,2.612876800005324,True,1,22,A,2023-09-18_10h43.23.229,exp3,2022.2.2,
,,,,,,,,,,,,,,,,,,,,,,,,28,2274,Valid,signal,-45,2,1.4877454999950714,0,2.0,2.796145400032401,True,1,22,A,2023-09-18_10h43.23.229,exp3,2022.2.2,
,,,,,,,,,,,,,,,,,,,,,,,,30,1716,Valid,signal,45,1,1.0206933000008576,1,3.0,2.3294501999625936,True,1,22,A,2023-09-18_10h43.23.229,exp3,2022.2.2,
,,,,,,,,,,,,,,,,,,,,,,,,32,557,Valid,signal,-45,1,1.3048743999679573,1,4.0,2.6133051000069827,True,1,22,A,2023-09-18_10h43.23.229,exp3,2022.2.2,
,,,,,,,,,,,,,,,,,,,,,,,,34,-2274,Valid,noise,45,2,1.5043226000270806,1,1.0,2.8125698999501765,True,1,22,A,2023-09-18_10h43.23.229,exp3,2022.2.2,
,,,,,,,,,,,,,,,,,,,,,,,,36,1716,Valid,noise,-45,2,1.0369780999608338,1,4.0,2.3453384999884292,True,1,22,A,2023-09-18_10h43.23.229,exp3,2022.2.2,
,,,,,,,,,,,,,,,,,,,,,,,,38,-1158,Valid,signal,45,1,1.1042775000096299,1,3.0,2.4128921999945305,True,1,22,A,2023-09-18_10h43.23.229,exp3,2022.2.2,
,,,,,,,,,,,,,,,,,,,,,,,,40,-2274,Valid,signal,-45,1,1.3046343000023626,1,2.0,2.6132261999882758,True,1,22,A,2023-09-18_10h43.23.229,exp3,2022.2.2,
,,,,,,,,,,,,,,,,,,,,,,,,42,1158,Valid,signal,45,1,1.070294900040608,1,3.0,2.378761100000702,True,1,22,A,2023-09-18_10h43.23.229,exp3,2022.2.2,
,,,,,,,,,,,,,,,,,,,,,,,,44,557,Valid,noise,45,2,1.1212988999905065,1,4.0,2.429737299971748,True,1,22,A,2023-09-18_10h43.23.229,exp3,2022.2.2,
,,,,,,,,,,,,,,,,,,,,,,,,46,1158,Valid,noise,45,2,1.3544466000166722,1,4.0,2.662799499987159,True,1,22,A,2023-09-18_10h43.23.229,exp3,2022.2.2,
,,,,,,,,,,,,,,,,,,,,,,,,48,-2274,Invalid,noise,45,2,1.688576299988199,1,4.0,2.99700929998653,True,1,22,A,2023-09-18_10h43.23.229,exp3,2022.2.2,
,,,,,,,,,,,,,,,,,,,,,,,,50,-1158,Valid,signal,45,1,0.9698914000182413,1,4.0,2.278523300017696,True,1,22,A,2023-09-18_10h43.23.229,exp3,2022.2.2,
,,,,,,,,,,,,,,,,,,,,,,,,52,-557,Valid,noise,-45,2,1.354603899992071,1,4.0,2.66276450001169,True,1,22,A,2023-09-18_10h43.23.229,exp3,2022.2.2,
,,,,,,,,,,,,,,,,,,,,,,,,54,1716,Valid,signal,-45,1,1.020457400009036,1,3.0,2.3292239000438713,True,1,22,A,2023-09-18_10h43.23.229,exp3,2022.2.2,
,,,,,,,,,,,,,,,,,,,,,,,,56,-1158,Invalid,noise,-45,2,1.1208604000275955,1,4.0,2.429463200038299,True,1,22,A,2023-09-18_10h43.23.229,exp3,2022.2.2,
,,,,,,,,,,,,,,,,,,,,,,,,58,-1716,Valid,noise,-45,2,0.9876601999858394,1,4.0,2.296176900039427,True,1,22,A,2023-09-18_10h43.23.229,exp3,2022.2.2,
,,,,,,,,,,,,,,,,,,,,,,,,60,1158,Invalid,noise,-45,2,0.7209711000323296,1,4.0,2.029372900025919,True,1,22,A,2023-09-18_10h43.23.229,exp3,2022.2.2,
,,,,,,,,,,,,,,,,,,,,,,,,62,-2274,Valid,noise,45,2,0.820598499965854,1,4.0,2.129204099997878,True,1,22,A,2023-09-18_10h43.23.229,exp3,2022.2.2,
,,,,,,,,,,,,,,,,,,,,,,,,64,2274,Valid,signal,45,2,0.8203341000480577,0,4.0,2.1291016999748535,True,1,22,A,2023-09-18_10h43.23.229,exp3,2022.2.2,
,,,,,,,,,,,,,,,,,,,,,,,,66,1716,Invalid,noise,-45,2,0.7706938000046648,1,4.0,2.0791128000128083,True,1,22,A,2023-09-18_10h43.23.229,exp3,2022.2.2,
,,,,,,,,,,,,,,,,,,,,,,,,68,557,Valid,signal,45,1,1.037309399980586,1,3.0,2.346057799994014,True,1,22,A,2023-09-18_10h43.23.229,exp3,2022.2.2,
,,,,,,,,,,,,,,,,,,,,,,,,70,-557,Valid,signal,-45,1,0.8877766999648884,1,4.0,2.1961842000018805,True,1,22,A,2023-09-18_10h43.23.229,exp3,2022.2.2,
,,,,,,,,,,,,,,,,,,,,,,,,72,1158,Valid,signal,45,1,1.121531100012362,1,4.0,2.429834300011862,True,1,22,A,2023-09-18_10h43.23.229,exp3,2022.2.2,
,,,,,,,,,,,,,,,,,,,,,,,,74,-1158,Valid,signal,-45,1,1.337427899998147,1,4.0,2.645794299955014,True,1,22,A,2023-09-18_10h43.23.229,exp3,2022.2.2,
,,,,,,,,,,,,,,,,,,,,,,,,76,-1158,Valid,signal,-45,1,0.8372040999820456,1,4.0,2.1457200999720953,True,1,22,A,2023-09-18_10h43.23.229,exp3,2022.2.2,
,,,,,,,,,,,,,,,,,,,,,,,,78,-1716,Valid,noise,45,2,0.8041897000512108,1,4.0,2.112570700002834,True,1,22,A,2023-09-18_10h43.23.229,exp3,2022.2.2,
,,,,,,,,,,,,,,,,,,,,,,,,80,-1716,Invalid,signal,-45,1,0.9372093999991193,1,3.0,2.246052300033625,True,1,22,A,2023-09-18_10h43.23.229,exp3,2022.2.2,
,,,,,,,,,,,,,,,,,,,,,,,,82,2274,Valid,signal,-45,2,1.6045011999667622,0,1.0,2.912939900008496,True,1,22,A,2023-09-18_10h43.23.229,exp3,2022.2.2,
,,,,,,,,,,,,,,,,,,,,,,,,84,2274,Valid,noise,45,2,2.4383136999676935,1,2.0,3.7468820000067353,True,1,22,A,2023-09-18_10h43.23.229,exp3,2022.2.2,
,,,,,,,,,,,,,,,,,,,,,,,,86,-557,Invalid,noise,45,2,1.8542299999971874,1,3.0,3.1627483000047505,True,1,22,A,2023-09-18_10h43.23.229,exp3,2022.2.2,
,,,,,,,,,,,,,,,,,,,,,,,,88,1716,Valid,signal,-45,1,1.9538171999738552,1,2.0,3.262607900018338,True,1,22,A,2023-09-18_10h43.23.229,exp3,2022.2.2,
,,,,,,,,,,,,,,,,,,,,,,,,90,1716,Valid,noise,-45,2,0.7716537000378594,1,4.0,2.079808700014837,True,1,22,A,2023-09-18_10h43.23.229,exp3,2022.2.2,
,,,,,,,,,,,,,,,,,,,,,,,,92,-557,Valid,signal,-45,1,0.903304899984505,1,3.0,2.211972099961713,True,1,22,A,2023-09-18_10h43.23.229,exp3,2022.2.2,
,,,,,,,,,,,,,,,,,,,,,,,,94,-557,Valid,noise,45,2,1.221523399988655,1,4.0,2.5298604000126943,True,1,22,A,2023-09-18_10h43.23.229,exp3,2022.2.2,
,,,,,,,,,,,,,,,,,,,,,,,,96,-557,Valid,signal,45,1,1.5034301999839954,1,4.0,2.8122165000531822,True,1,22,A,2023-09-18_10h43.23.229,exp3,2022.2.2,
,,,,,,,,,,,,,,,,,,,,,,,,98,-1716,Valid,signal,-45,1,0.9208403999800794,1,3.0,2.229576999961864,True,1,22,A,2023-09-18_10h43.23.229,exp3,2022.2.2,
