trials.label,trials.startVal,trials.maxVal,trials.minVal,trials.startValSd,trials.pthreshold,trials.beta,trials.delta,trials.gamma,trials.grain,trials.stepSize,trials.range,trials.cue,trials.thisIndex,trials.thisRepN,trials.thisN,trials.direction,trials.stepType,trials.intensity,signalOpacity,stair_response_correct,level,trials.response,stair_eye_ok,nTrial,position,validity,Stimulus,orientation,response_key,response_rt,response_correct,confidence,confidence_rt,eye_ok,trial_rep,participant,session,date,expName,psychopyVersion,
low_opac_i,0.4,1,0.01,3,0.82,3.5,0.01,0,0.01,4,5,Invalid,2,1,0,start,lin,0.4,0,1,0.4,1,True,,,,,,,,,,,,,23,A,2023-09-18_14h59.06.977,exp3,2022.2.2,
low_opac_v,0.4,1,0.01,3,0.82,3.5,0.01,0,0.01,4,5,Valid,0,1,1,start,lin,0.4,0.4,1,0.4,1,True,,,,,,,,,,,,,23,A,2023-09-18_14h59.06.977,exp3,2022.2.2,
high_opac_v,0.01,1,0.01,3,0.82,3.5,0.01,0,0.01,4,5,Valid,1,1,2,start,lin,0.01,0,1,0.01,1,True,,,,,,,,,,,,,23,A,2023-09-18_14h59.06.977,exp3,2022.2.2,
low_opac_v,0.4,1,0.01,3,0.82,3.5,0.01,0,0.01,4,5,Valid,0,2,3,start,lin,0.01,0.01,0,0.01,0,True,,,,,,,,,,,,,23,A,2023-09-18_14h59.06.977,exp3,2022.2.2,
high_opac_v,0.01,1,0.01,3,0.82,3.5,0.01,0,0.01,4,5,Valid,1,2,4,start,lin,0.01,0,1,0.01,1,True,,,,,,,,,,,,,23,A,2023-09-18_14h59.06.977,exp3,2022.2.2,
low_opac_i,0.4,1,0.01,3,0.82,3.5,0.01,0,0.01,4,5,Invalid,2,2,5,start,lin,0.01,0.01,0,0.01,0,True,,,,,,,,,,,,,23,A,2023-09-18_14h59.06.977,exp3,2022.2.2,
low_opac_v,0.4,1,0.01,3,0.82,3.5,0.01,0,0.01,4,5,Valid,0,3,6,start,lin,0.3144098688205103,0,1,0.3144098688205103,1,True,,,,,,,,,,,,,23,A,2023-09-18_14h59.06.977,exp3,2022.2.2,
high_opac_v,0.01,1,0.01,3,0.82,3.5,0.01,0,0.01,4,5,Valid,1,3,7,start,lin,0.01,0,1,0.01,1,True,,,,,,,,,,,,,23,A,2023-09-18_14h59.06.977,exp3,2022.2.2,
low_opac_i,0.4,1,0.01,3,0.82,3.5,0.01,0,0.01,4,5,Invalid,2,3,8,start,lin,0.3144098688205103,0,1,0.3144098688205103,1,True,,,,,,,,,,,,,23,A,2023-09-18_14h59.06.977,exp3,2022.2.2,
high_opac_v,0.01,1,0.01,3,0.82,3.5,0.01,0,0.01,4,5,Valid,1,4,9,start,lin,0.01,0.01,1,0.01,1,True,,,,,,,,,,,,,23,A,2023-09-18_14h59.06.977,exp3,2022.2.2,
low_opac_v,0.4,1,0.01,3,0.82,3.5,0.01,0,0.01,4,5,Valid,0,4,10,start,lin,0.23561159539411833,0.23561159539411833,1,0.23561159539411833,1,True,,,,,,,,,,,,,23,A,2023-09-18_14h59.06.977,exp3,2022.2.2,
low_opac_i,0.4,1,0.01,3,0.82,3.5,0.01,0,0.01,4,5,Invalid,2,4,11,start,lin,0.23561159539411833,0.23561159539411833,1,0.23561159539411833,1,True,,,,,,,,,,,,,23,A,2023-09-18_14h59.06.977,exp3,2022.2.2,
low_opac_v,0.4,1,0.01,3,0.82,3.5,0.01,0,0.01,4,5,Valid,0,5,12,start,lin,0.1841780991895161,0,1,0.1841780991895161,1,True,,,,,,,,,,,,,23,A,2023-09-18_14h59.06.977,exp3,2022.2.2,
low_opac_i,0.4,1,0.01,3,0.82,3.5,0.01,0,0.01,4,5,Invalid,2,5,13,start,lin,0.1841780991895161,0.1841780991895161,1,0.1841780991895161,1,True,,,,,,,,,,,,,23,A,2023-09-18_14h59.06.977,exp3,2022.2.2,
high_opac_v,0.01,1,0.01,3,0.82,3.5,0.01,0,0.01,4,5,Valid,1,5,14,start,lin,0.01,0.01,0,0.01,0,True,,,,,,,,,,,,,23,A,2023-09-18_14h59.06.977,exp3,2022.2.2,
low_opac_i,0.4,1,0.01,3,0.82,3.5,0.01,0,0.01,4,5,Invalid,2,6,15,start,lin,0.14081453445857006,0,1,0.14081453445857006,1,True,,,,,,,,,,,,,23,A,2023-09-18_14h59.06.977,exp3,2022.2.2,
high_opac_v,0.01,1,0.01,3,0.82,3.5,0.01,0,0.01,4,5,Valid,1,6,16,start,lin,0.01,0,1,0.01,1,True,,,,,,,,,,,,,23,A,2023-09-18_14h59.06.977,exp3,2022.2.2,
low_opac_v,0.4,1,0.01,3,0.82,3.5,0.01,0,0.01,4,5,Valid,0,6,17,start,lin,0.14081453445857006,0,1,0.14081453445857006,1,True,,,,,,,,,,,,,23,A,2023-09-18_14h59.06.977,exp3,2022.2.2,
low_opac_v,0.4,1,0.01,3,0.82,3.5,0.01,0,0.01,4,5,Valid,0,7,18,start,lin,0.10410764613410528,0,1,0.10410764613410528,1,True,,,,,,,,,,,,,23,A,2023-09-18_14h59.06.977,exp3,2022.2.2,
high_opac_v,0.01,1,0.01,3,0.82,3.5,0.01,0,0.01,4,5,Valid,1,7,19,start,lin,0.01,0,0,0.01,0,True,,,,,,,,,,,,,23,A,2023-09-18_14h59.06.977,exp3,2022.2.2,
low_opac_i,0.4,1,0.01,3,0.82,3.5,0.01,0,0.01,4,5,Invalid,2,7,20,start,lin,0.10410764613410528,0,0,0.10410764613410528,0,True,,,,,,,,,,,,,23,A,2023-09-18_14h59.06.977,exp3,2022.2.2,
low_opac_i,0.4,1,0.01,3,0.82,3.5,0.01,0,0.01,4,5,Invalid,2,8,21,start,lin,0.19056109375041447,0.19056109375041447,1,0.19056109375041447,1,True,,,,,,,,,,,,,23,A,2023-09-18_14h59.06.977,exp3,2022.2.2,
high_opac_v,0.01,1,0.01,3,0.82,3.5,0.01,0,0.01,4,5,Valid,1,8,22,start,lin,0.042570940251129494,0,0,0.042570940251129494,0,True,,,,,,,,,,,,,23,A,2023-09-18_14h59.06.977,exp3,2022.2.2,
low_opac_v,0.4,1,0.01,3,0.82,3.5,0.01,0,0.01,4,5,Valid,0,8,23,start,lin,0.06939770050553568,0,0,0.06939770050553568,0,True,,,,,,,,,,,,,23,A,2023-09-18_14h59.06.977,exp3,2022.2.2,
low_opac_v,0.4,1,0.01,3,0.82,3.5,0.01,0,0.01,4,5,Valid,0,9,24,start,lin,0.15355165060147863,0,1,0.15355165060147863,1,True,,,,,,,,,,,,,23,A,2023-09-18_14h59.06.977,exp3,2022.2.2,
low_opac_i,0.4,1,0.01,3,0.82,3.5,0.01,0,0.01,4,5,Invalid,2,9,25,start,lin,0.17347077109677828,0.17347077109677828,1,0.17347077109677828,1,True,,,,,,,,,,,,,23,A,2023-09-18_14h59.06.977,exp3,2022.2.2,
high_opac_v,0.01,1,0.01,3,0.82,3.5,0.01,0,0.01,4,5,Valid,1,9,26,start,lin,0.08785723588411656,0,1,0.08785723588411656,1,True,,,,,,,,,,,,,23,A,2023-09-18_14h59.06.977,exp3,2022.2.2,
low_opac_i,0.4,1,0.01,3,0.82,3.5,0.01,0,0.01,4,5,Invalid,2,10,27,start,lin,0.15844504057130598,0.15844504057130598,1,0.15844504057130598,1,True,,,,,,,,,,,,,23,A,2023-09-18_14h59.06.977,exp3,2022.2.2,
low_opac_v,0.4,1,0.01,3,0.82,3.5,0.01,0,0.01,4,5,Valid,0,10,28,start,lin,0.1380266354329187,0,0,0.1380266354329187,0,True,,,,,,,,,,,,,23,A,2023-09-18_14h59.06.977,exp3,2022.2.2,
high_opac_v,0.01,1,0.01,3,0.82,3.5,0.01,0,0.01,4,5,Valid,1,10,29,start,lin,0.07757026117580865,0.07757026117580865,0,0.07757026117580865,0,True,,,,,,,,,,,,,23,A,2023-09-18_14h59.06.977,exp3,2022.2.2,
low_opac_i,0.4,1,0.01,3,0.82,3.5,0.01,0,0.01,4,5,Invalid,2,11,30,start,lin,0.14569013635865596,0,0,0.14569013635865596,0,True,,,,,,,,,,,,,23,A,2023-09-18_14h59.06.977,exp3,2022.2.2,
low_opac_v,0.4,1,0.01,3,0.82,3.5,0.01,0,0.01,4,5,Valid,0,11,31,start,lin,0.18500047044237494,0,1,0.18500047044237494,1,True,,,,,,,,,,,,,23,A,2023-09-18_14h59.06.977,exp3,2022.2.2,
high_opac_v,0.01,1,0.01,3,0.82,3.5,0.01,0,0.01,4,5,Valid,1,11,32,start,lin,0.1125569724522768,0.1125569724522768,1,0.1125569724522768,1,True,,,,,,,,,,,,,23,A,2023-09-18_14h59.06.977,exp3,2022.2.2,
high_opac_v,0.01,1,0.01,3,0.82,3.5,0.01,0,0.01,4,5,Valid,1,12,33,start,lin,0.10375625541527095,0,1,0.10375625541527095,1,True,,,,,,,,,,,,,23,A,2023-09-18_14h59.06.977,exp3,2022.2.2,
low_opac_i,0.4,1,0.01,3,0.82,3.5,0.01,0,0.01,4,5,Invalid,2,12,34,start,lin,0.1879379049930803,0.1879379049930803,1,0.1879379049930803,1,True,,,,,,,,,,,,,23,A,2023-09-18_14h59.06.977,exp3,2022.2.2,
low_opac_v,0.4,1,0.01,3,0.82,3.5,0.01,0,0.01,4,5,Valid,0,12,35,start,lin,0.17468021776316672,0.17468021776316672,1,0.17468021776316672,1,True,,,,,,,,,,,,,23,A,2023-09-18_14h59.06.977,exp3,2022.2.2,
high_opac_v,0.01,1,0.01,3,0.82,3.5,0.01,0,0.01,4,5,Valid,1,13,36,start,lin,0.0958671665290935,0,1,0.0958671665290935,1,True,,,,,,,,,,,,,23,A,2023-09-18_14h59.06.977,exp3,2022.2.2,
low_opac_i,0.4,1,0.01,3,0.82,3.5,0.01,0,0.01,4,5,Invalid,2,13,37,start,lin,0.17877075249930593,0,0,0.17877075249930593,0,True,,,,,,,,,,,,,23,A,2023-09-18_14h59.06.977,exp3,2022.2.2,
low_opac_v,0.4,1,0.01,3,0.82,3.5,0.01,0,0.01,4,5,Valid,0,13,38,start,lin,0.16475639416193197,0,0,0.16475639416193197,0,True,,,,,,,,,,,,,23,A,2023-09-18_14h59.06.977,exp3,2022.2.2,
high_opac_v,0.01,1,0.01,3,0.82,3.5,0.01,0,0.01,4,5,Valid,1,14,39,start,lin,0.08917056803448946,0.08917056803448946,0,0.08917056803448946,0,True,,,,,,,,,,,,,23,A,2023-09-18_14h59.06.977,exp3,2022.2.2,
low_opac_i,0.4,1,0.01,3,0.82,3.5,0.01,0,0.01,4,5,Invalid,2,14,40,start,lin,0.21061218107318885,0,1,0.21061218107318885,1,True,,,,,,,,,,,,,23,A,2023-09-18_14h59.06.977,exp3,2022.2.2,
low_opac_v,0.4,1,0.01,3,0.82,3.5,0.01,0,0.01,4,5,Valid,0,14,41,start,lin,0.19611898230615454,0,0,0.19611898230615454,0,True,,,,,,,,,,,,,23,A,2023-09-18_14h59.06.977,exp3,2022.2.2,
low_opac_i,0.4,1,0.01,3,0.82,3.5,0.01,0,0.01,4,5,Invalid,2,15,42,start,lin,0.20309593515921032,0.20309593515921032,1,0.20309593515921032,1,True,,,,,,,,,,,,,23,A,2023-09-18_14h59.06.977,exp3,2022.2.2,
low_opac_v,0.4,1,0.01,3,0.82,3.5,0.01,0,0.01,4,5,Valid,0,15,43,start,lin,0.22598969842409997,0.22598969842409997,1,0.22598969842409997,1,True,,,,,,,,,,,,,23,A,2023-09-18_14h59.06.977,exp3,2022.2.2,
high_opac_v,0.01,1,0.01,3,0.82,3.5,0.01,0,0.01,4,5,Valid,1,15,44,start,lin,0.11383482253303594,0.11383482253303594,1,0.11383482253303594,1,True,,,,,,,,,,,,,23,A,2023-09-18_14h59.06.977,exp3,2022.2.2,
low_opac_i,0.4,1,0.01,3,0.82,3.5,0.01,0,0.01,4,5,Invalid,2,16,45,start,lin,0.19605344214765133,0.19605344214765133,1,0.19605344214765133,1,True,,,,,,,,,,,,,23,A,2023-09-18_14h59.06.977,exp3,2022.2.2,
low_opac_v,0.4,1,0.01,3,0.82,3.5,0.01,0,0.01,4,5,Valid,0,16,46,start,lin,0.21914852105125263,0.21914852105125263,1,0.21914852105125263,1,True,,,,,,,,,,,,,23,A,2023-09-18_14h59.06.977,exp3,2022.2.2,
high_opac_v,0.01,1,0.01,3,0.82,3.5,0.01,0,0.01,4,5,Valid,1,16,47,start,lin,0.10763188108637062,0,1,0.10763188108637062,1,True,,,,,,,,,,,,,23,A,2023-09-18_14h59.06.977,exp3,2022.2.2,
low_opac_i,0.4,1,0.01,3,0.82,3.5,0.01,0,0.01,4,5,Invalid,2,17,48,start,lin,0.18990483373588435,0.18990483373588435,1,0.18990483373588435,1,True,,,,,,,,,,,,,23,A,2023-09-18_14h59.06.977,exp3,2022.2.2,
high_opac_v,0.01,1,0.01,3,0.82,3.5,0.01,0,0.01,4,5,Valid,1,17,49,start,lin,0.10222070140288315,0.10222070140288315,1,0.10222070140288315,1,True,,,,,,,,,,,,,23,A,2023-09-18_14h59.06.977,exp3,2022.2.2,
low_opac_v,0.4,1,0.01,3,0.82,3.5,0.01,0,0.01,4,5,Valid,0,17,50,start,lin,0.2127390527470448,0.2127390527470448,1,0.2127390527470448,1,True,,,,,,,,,,,,,23,A,2023-09-18_14h59.06.977,exp3,2022.2.2,
high_opac_v,0.01,1,0.01,3,0.82,3.5,0.01,0,0.01,4,5,Valid,1,18,51,start,lin,0.09696498628406,0,1,0.09696498628406,1,True,,,,,,,,,,,,,23,A,2023-09-18_14h59.06.977,exp3,2022.2.2,
low_opac_i,0.4,1,0.01,3,0.82,3.5,0.01,0,0.01,4,5,Invalid,2,18,52,start,lin,0.18399852781533277,0,1,0.18399852781533277,1,True,,,,,,,,,,,,,23,A,2023-09-18_14h59.06.977,exp3,2022.2.2,
low_opac_v,0.4,1,0.01,3,0.82,3.5,0.01,0,0.01,4,5,Valid,0,18,53,start,lin,0.20660959884471944,0.20660959884471944,1,0.20660959884471944,1,True,,,,,,,,,,,,,23,A,2023-09-18_14h59.06.977,exp3,2022.2.2,
low_opac_i,0.4,1,0.01,3,0.82,3.5,0.01,0,0.01,4,5,Invalid,2,19,54,start,lin,0.17824781879635532,0,1,0.17824781879635532,1,True,,,,,,,,,,,,,23,A,2023-09-18_14h59.06.977,exp3,2022.2.2,
low_opac_v,0.4,1,0.01,3,0.82,3.5,0.01,0,0.01,4,5,Valid,0,19,55,start,lin,0.20119841136061656,0.20119841136061656,1,0.20119841136061656,1,True,,,,,,,,,,,,,23,A,2023-09-18_14h59.06.977,exp3,2022.2.2,
high_opac_v,0.01,1,0.01,3,0.82,3.5,0.01,0,0.01,4,5,Valid,1,19,56,start,lin,0.09228333517238821,0,0,0.09228333517238821,0,True,,,,,,,,,,,,,23,A,2023-09-18_14h59.06.977,exp3,2022.2.2,
high_opac_v,0.01,1,0.01,3,0.82,3.5,0.01,0,0.01,4,5,Valid,1,20,57,start,lin,0.10990064808885279,0.10990064808885279,0,0.10990064808885279,0,True,,,,,,,,,,,,,23,A,2023-09-18_14h59.06.977,exp3,2022.2.2,
low_opac_v,0.4,1,0.01,3,0.82,3.5,0.01,0,0.01,4,5,Valid,0,20,58,start,lin,0.1959098478579288,0,0,0.1959098478579288,0,True,,,,,,,,,,,,,23,A,2023-09-18_14h59.06.977,exp3,2022.2.2,
low_opac_i,0.4,1,0.01,3,0.82,3.5,0.01,0,0.01,4,5,Invalid,2,20,59,start,lin,0.1730995515573706,0,0,0.1730995515573706,0,True,,,,,,,,,,,,,23,A,2023-09-18_14h59.06.977,exp3,2022.2.2,
low_opac_i,0.4,1,0.01,3,0.82,3.5,0.01,0,0.01,4,5,Invalid,2,21,60,start,lin,0.19205669884660345,0,1,0.19205669884660345,1,True,,,,,,,,,,,,,23,A,2023-09-18_14h59.06.977,exp3,2022.2.2,
low_opac_v,0.4,1,0.01,3,0.82,3.5,0.01,0,0.01,4,5,Valid,0,21,61,start,lin,0.21571346742783196,0,0,0.21571346742783196,0,True,,,,,,,,,,,,,23,A,2023-09-18_14h59.06.977,exp3,2022.2.2,
high_opac_v,0.01,1,0.01,3,0.82,3.5,0.01,0,0.01,4,5,Valid,1,21,62,start,lin,0.12705762471510684,0,0,0.12705762471510684,0,True,,,,,,,,,,,,,23,A,2023-09-18_14h59.06.977,exp3,2022.2.2,
low_opac_i,0.4,1,0.01,3,0.82,3.5,0.01,0,0.01,4,5,Invalid,2,22,63,start,lin,0.18742060160745846,0,1,0.18742060160745846,1,True,,,,,,,,,,,,,23,A,2023-09-18_14h59.06.977,exp3,2022.2.2,
low_opac_v,0.4,1,0.01,3,0.82,3.5,0.01,0,0.01,4,5,Valid,0,22,64,start,lin,0.23431324716229934,0,1,0.23431324716229934,1,True,,,,,,,,,,,,,23,A,2023-09-18_14h59.06.977,exp3,2022.2.2,
high_opac_v,0.01,1,0.01,3,0.82,3.5,0.01,0,0.01,4,5,Valid,1,22,65,start,lin,0.14403362268944478,0,1,0.14403362268944478,1,True,,,,,,,,,,,,,23,A,2023-09-18_14h59.06.977,exp3,2022.2.2,
low_opac_v,0.4,1,0.01,3,0.82,3.5,0.01,0,0.01,4,5,Valid,0,23,66,start,lin,0.22979821639867307,0,0,0.22979821639867307,0,True,,,,,,,,,,,,,23,A,2023-09-18_14h59.06.977,exp3,2022.2.2,
low_opac_i,0.4,1,0.01,3,0.82,3.5,0.01,0,0.01,4,5,Invalid,2,23,67,start,lin,0.18322124487197972,0,0,0.18322124487197972,0,True,,,,,,,,,,,,,23,A,2023-09-18_14h59.06.977,exp3,2022.2.2,
high_opac_v,0.01,1,0.01,3,0.82,3.5,0.01,0,0.01,4,5,Valid,1,23,68,start,lin,0.13980887831306413,0.13980887831306413,1,0.13980887831306413,1,True,,,,,,,,,,,,,23,A,2023-09-18_14h59.06.977,exp3,2022.2.2,
low_opac_i,0.4,1,0.01,3,0.82,3.5,0.01,0,0.01,4,5,Invalid,2,24,69,start,lin,0.19908697532549063,0,1,0.19908697532549063,1,True,,,,,,,,,,,,,23,A,2023-09-18_14h59.06.977,exp3,2022.2.2,
low_opac_v,0.4,1,0.01,3,0.82,3.5,0.01,0,0.01,4,5,Valid,0,24,70,start,lin,0.24614383486226818,0,0,0.24614383486226818,0,True,,,,,,,,,,,,,23,A,2023-09-18_14h59.06.977,exp3,2022.2.2,
high_opac_v,0.01,1,0.01,3,0.82,3.5,0.01,0,0.01,4,5,Valid,1,24,71,start,lin,0.13598364528620588,0.13598364528620588,1,0.13598364528620588,1,True,,,,,,,,,,,,,23,A,2023-09-18_14h59.06.977,exp3,2022.2.2,
low_opac_i,0.4,1,0.01,3,0.82,3.5,0.01,0,0.01,4,5,Invalid,2,25,72,start,lin,0.19527707901840882,0,1,0.19527707901840882,1,True,,,,,,,,,,,,,23,A,2023-09-18_14h59.06.977,exp3,2022.2.2,
high_opac_v,0.01,1,0.01,3,0.82,3.5,0.01,0,0.01,4,5,Valid,1,25,73,start,lin,0.13247924904088365,0,1,0.13247924904088365,1,True,,,,,,,,,,,,,23,A,2023-09-18_14h59.06.977,exp3,2022.2.2,
low_opac_v,0.4,1,0.01,3,0.82,3.5,0.01,0,0.01,4,5,Valid,0,25,74,start,lin,0.26228190350625735,0,1,0.26228190350625735,1,True,,,,,,,,,,,,,23,A,2023-09-18_14h59.06.977,exp3,2022.2.2,
high_opac_v,0.01,1,0.01,3,0.82,3.5,0.01,0,0.01,4,5,Valid,1,26,75,start,lin,0.12891184862173147,0,1,0.12891184862173147,1,True,,,,,,,,,,,,,23,A,2023-09-18_14h59.06.977,exp3,2022.2.2,
low_opac_v,0.4,1,0.01,3,0.82,3.5,0.01,0,0.01,4,5,Valid,0,26,76,start,lin,0.2583721928529825,0.2583721928529825,1,0.2583721928529825,1,True,,,,,,,,,,,,,23,A,2023-09-18_14h59.06.977,exp3,2022.2.2,
low_opac_i,0.4,1,0.01,3,0.82,3.5,0.01,0,0.01,4,5,Invalid,2,26,77,start,lin,0.19175475898204722,0.19175475898204722,0,0.19175475898204722,0,True,,,,,,,,,,,,,23,A,2023-09-18_14h59.06.977,exp3,2022.2.2,
high_opac_v,0.01,1,0.01,3,0.82,3.5,0.01,0,0.01,4,5,Valid,1,27,78,start,lin,0.12564529427455937,0,0,0.12564529427455937,0,True,,,,,,,,,,,,,23,A,2023-09-18_14h59.06.977,exp3,2022.2.2,
low_opac_i,0.4,1,0.01,3,0.82,3.5,0.01,0,0.01,4,5,Invalid,2,27,79,start,lin,0.20562809602824994,0,0,0.20562809602824994,0,True,,,,,,,,,,,,,23,A,2023-09-18_14h59.06.977,exp3,2022.2.2,
low_opac_v,0.4,1,0.01,3,0.82,3.5,0.01,0,0.01,4,5,Valid,0,27,80,start,lin,0.2548206984987551,0,1,0.2548206984987551,1,True,,,,,,,,,,,,,23,A,2023-09-18_14h59.06.977,exp3,2022.2.2,
high_opac_v,0.01,1,0.01,3,0.82,3.5,0.01,0,0.01,4,5,Valid,1,28,81,start,lin,0.13875503132082367,0.13875503132082367,1,0.13875503132082367,1,True,,,,,,,,,,,,,23,A,2023-09-18_14h59.06.977,exp3,2022.2.2,
low_opac_v,0.4,1,0.01,3,0.82,3.5,0.01,0,0.01,4,5,Valid,0,28,82,start,lin,0.2512384650854309,0.2512384650854309,1,0.2512384650854309,1,True,,,,,,,,,,,,,23,A,2023-09-18_14h59.06.977,exp3,2022.2.2,
low_opac_i,0.4,1,0.01,3,0.82,3.5,0.01,0,0.01,4,5,Invalid,2,28,83,start,lin,0.219428229173236,0,1,0.219428229173236,1,True,,,,,,,,,,,,,23,A,2023-09-18_14h59.06.977,exp3,2022.2.2,
low_opac_v,0.4,1,0.01,3,0.82,3.5,0.01,0,0.01,4,5,Valid,0,29,84,start,lin,0.2478829744881487,0.2478829744881487,1,0.2478829744881487,1,True,,,,,,,,,,,,,23,A,2023-09-18_14h59.06.977,exp3,2022.2.2,
low_opac_i,0.4,1,0.01,3,0.82,3.5,0.01,0,0.01,4,5,Invalid,2,29,85,start,lin,0.21623427634410253,0.21623427634410253,1,0.21623427634410253,1,True,,,,,,,,,,,,,23,A,2023-09-18_14h59.06.977,exp3,2022.2.2,
high_opac_v,0.01,1,0.01,3,0.82,3.5,0.01,0,0.01,4,5,Valid,1,29,86,start,lin,0.13572578053071094,0.13572578053071094,1,0.13572578053071094,1,True,,,,,,,,,,,,,23,A,2023-09-18_14h59.06.977,exp3,2022.2.2,
low_opac_i,0.4,1,0.01,3,0.82,3.5,0.01,0,0.01,4,5,Invalid,2,30,87,start,lin,0.2132675336606732,0,1,0.2132675336606732,1,True,,,,,,,,,,,,,23,A,2023-09-18_14h59.06.977,exp3,2022.2.2,
high_opac_v,0.01,1,0.01,3,0.82,3.5,0.01,0,0.01,4,5,Valid,1,30,88,start,lin,0.13289977184399976,0.13289977184399976,1,0.13289977184399976,1,True,,,,,,,,,,,,,23,A,2023-09-18_14h59.06.977,exp3,2022.2.2,
low_opac_v,0.4,1,0.01,3,0.82,3.5,0.01,0,0.01,4,5,Valid,0,30,89,start,lin,0.24479941174257394,0,0,0.24479941174257394,0,True,,,,,,,,,,,,,23,A,2023-09-18_14h59.06.977,exp3,2022.2.2,
low_opac_v,0.4,1,0.01,3,0.82,3.5,0.01,0,0.01,4,5,Valid,0,31,90,start,lin,0.25659181641164497,0.25659181641164497,1,0.25659181641164497,1,True,,,,,,,,,,,,,23,A,2023-09-18_14h59.06.977,exp3,2022.2.2,
high_opac_v,0.01,1,0.01,3,0.82,3.5,0.01,0,0.01,4,5,Valid,1,31,91,start,lin,0.12996928526598575,0,1,0.12996928526598575,1,True,,,,,,,,,,,,,23,A,2023-09-18_14h59.06.977,exp3,2022.2.2,
low_opac_i,0.4,1,0.01,3,0.82,3.5,0.01,0,0.01,4,5,Invalid,2,31,92,start,lin,0.2102026662923482,0,1,0.2102026662923482,1,True,,,,,,,,,,,,,23,A,2023-09-18_14h59.06.977,exp3,2022.2.2,
high_opac_v,0.01,1,0.01,3,0.82,3.5,0.01,0,0.01,4,5,Valid,1,32,93,start,lin,0.12722553716285634,0.12722553716285634,1,0.12722553716285634,1,True,,,,,,,,,,,,,23,A,2023-09-18_14h59.06.977,exp3,2022.2.2,
low_opac_v,0.4,1,0.01,3,0.82,3.5,0.01,0,0.01,4,5,Valid,0,32,94,start,lin,0.25376290798298623,0,1,0.25376290798298623,1,True,,,,,,,,,,,,,23,A,2023-09-18_14h59.06.977,exp3,2022.2.2,
low_opac_i,0.4,1,0.01,3,0.82,3.5,0.01,0,0.01,4,5,Invalid,2,32,95,start,lin,0.2073208768789635,0.2073208768789635,1,0.2073208768789635,1,True,,,,,,,,,,,,,23,A,2023-09-18_14h59.06.977,exp3,2022.2.2,
low_opac_i,0.4,1,0.01,3,0.82,3.5,0.01,0,0.01,4,5,Invalid,2,33,96,start,lin,0.2046406030465003,0,0,0.2046406030465003,0,True,,,,,,,,,,,,,23,A,2023-09-18_14h59.06.977,exp3,2022.2.2,
low_opac_v,0.4,1,0.01,3,0.82,3.5,0.01,0,0.01,4,5,Valid,0,33,97,start,lin,0.25084460372270756,0.25084460372270756,1,0.25084460372270756,1,True,,,,,,,,,,,,,23,A,2023-09-18_14h59.06.977,exp3,2022.2.2,
high_opac_v,0.01,1,0.01,3,0.82,3.5,0.01,0,0.01,4,5,Valid,1,33,98,start,lin,0.12466837132006003,0,1,0.12466837132006003,1,True,,,,,,,,,,,,,23,A,2023-09-18_14h59.06.977,exp3,2022.2.2,
low_opac_i,0.4,1,0.01,3,0.82,3.5,0.01,0,0.01,4,5,Invalid,2,34,99,start,lin,0.21507981165087478,0.21507981165087478,1,0.21507981165087478,1,True,,,,,,,,,,,,,23,A,2023-09-18_14h59.06.977,exp3,2022.2.2,
high_opac_v,0.01,1,0.01,3,0.82,3.5,0.01,0,0.01,4,5,Valid,1,34,100,start,lin,0.12202903302845938,0.12202903302845938,0,0.12202903302845938,0,True,,,,,,,,,,,,,23,A,2023-09-18_14h59.06.977,exp3,2022.2.2,
low_opac_v,0.4,1,0.01,3,0.82,3.5,0.01,0,0.01,4,5,Valid,0,34,101,start,lin,0.24807359367948445,0,1,0.24807359367948445,1,True,,,,,,,,,,,,,23,A,2023-09-18_14h59.06.977,exp3,2022.2.2,
low_opac_i,0.4,1,0.01,3,0.82,3.5,0.01,0,0.01,4,5,Invalid,2,35,102,start,lin,0.21262726613706917,0.21262726613706917,1,0.21262726613706917,1,True,,,,,,,,,,,,,23,A,2023-09-18_14h59.06.977,exp3,2022.2.2,
low_opac_v,0.4,1,0.01,3,0.82,3.5,0.01,0,0.01,4,5,Valid,0,35,103,start,lin,0.24550047577311737,0,1,0.24550047577311737,1,True,,,,,,,,,,,,,23,A,2023-09-18_14h59.06.977,exp3,2022.2.2,
high_opac_v,0.01,1,0.01,3,0.82,3.5,0.01,0,0.01,4,5,Valid,1,35,104,start,lin,0.13190283863853564,0,1,0.13190283863853564,1,True,,,,,,,,,,,,,23,A,2023-09-18_14h59.06.977,exp3,2022.2.2,
low_opac_i,0.4,1,0.01,3,0.82,3.5,0.01,0,0.01,4,5,Invalid,2,36,105,start,lin,0.2100544793703223,0.2100544793703223,1,0.2100544793703223,1,True,,,,,,,,,,,,,23,A,2023-09-18_14h59.06.977,exp3,2022.2.2,
high_opac_v,0.01,1,0.01,3,0.82,3.5,0.01,0,0.01,4,5,Valid,1,36,106,start,lin,0.1294327856410747,0.1294327856410747,1,0.1294327856410747,1,True,,,,,,,,,,,,,23,A,2023-09-18_14h59.06.977,exp3,2022.2.2,
low_opac_v,0.4,1,0.01,3,0.82,3.5,0.01,0,0.01,4,5,Valid,0,36,107,start,lin,0.24307092647787376,0,1,0.24307092647787376,1,True,,,,,,,,,,,,,23,A,2023-09-18_14h59.06.977,exp3,2022.2.2,
low_opac_v,0.4,1,0.01,3,0.82,3.5,0.01,0,0.01,4,5,Valid,0,37,108,start,lin,0.24052827460395684,0.24052827460395684,1,0.24052827460395684,1,True,,,,,,,,,,,,,23,A,2023-09-18_14h59.06.977,exp3,2022.2.2,
low_opac_i,0.4,1,0.01,3,0.82,3.5,0.01,0,0.01,4,5,Invalid,2,37,109,start,lin,0.20761459340344798,0,1,0.20761459340344798,1,True,,,,,,,,,,,,,23,A,2023-09-18_14h59.06.977,exp3,2022.2.2,
high_opac_v,0.01,1,0.01,3,0.82,3.5,0.01,0,0.01,4,5,Valid,1,37,110,start,lin,0.1271134814993902,0.1271134814993902,1,0.1271134814993902,1,True,,,,,,,,,,,,,23,A,2023-09-18_14h59.06.977,exp3,2022.2.2,
high_opac_v,0.01,1,0.01,3,0.82,3.5,0.01,0,0.01,4,5,Valid,1,38,111,start,lin,0.12493203535101968,0.12493203535101968,1,0.12493203535101968,1,True,,,,,,,,,,,,,23,A,2023-09-18_14h59.06.977,exp3,2022.2.2,
low_opac_i,0.4,1,0.01,3,0.82,3.5,0.01,0,0.01,4,5,Invalid,2,38,112,start,lin,0.2053289638011519,0,1,0.2053289638011519,1,True,,,,,,,,,,,,,23,A,2023-09-18_14h59.06.977,exp3,2022.2.2,
low_opac_v,0.4,1,0.01,3,0.82,3.5,0.01,0,0.01,4,5,Valid,0,38,113,start,lin,0.23809451314523003,0,1,0.23809451314523003,1,True,,,,,,,,,,,,,23,A,2023-09-18_14h59.06.977,exp3,2022.2.2,
high_opac_v,0.01,1,0.01,3,0.82,3.5,0.01,0,0.01,4,5,Valid,1,39,114,start,lin,0.12266612754452026,0,1,0.12266612754452026,1,True,,,,,,,,,,,,,23,A,2023-09-18_14h59.06.977,exp3,2022.2.2,
low_opac_v,0.4,1,0.01,3,0.82,3.5,0.01,0,0.01,4,5,Valid,0,39,115,start,lin,0.23581800906999212,0,1,0.23581800906999212,1,True,,,,,,,,,,,,,23,A,2023-09-18_14h59.06.977,exp3,2022.2.2,
low_opac_i,0.4,1,0.01,3,0.82,3.5,0.01,0,0.01,4,5,Invalid,2,39,116,start,lin,0.20315466091331955,0.20315466091331955,1,0.20315466091331955,1,True,,,,,,,,,,,,,23,A,2023-09-18_14h59.06.977,exp3,2022.2.2,
low_opac_i,0.4,1,0.01,3,0.82,3.5,0.01,0,0.01,4,5,Invalid,2,40,117,start,lin,0.2008659932757975,0.2008659932757975,1,0.2008659932757975,1,True,,,,,,,,,,,,,23,A,2023-09-18_14h59.06.977,exp3,2022.2.2,
low_opac_v,0.4,1,0.01,3,0.82,3.5,0.01,0,0.01,4,5,Valid,0,40,118,start,lin,0.23365746484170236,0,1,0.23365746484170236,1,True,,,,,,,,,,,,,23,A,2023-09-18_14h59.06.977,exp3,2022.2.2,
high_opac_v,0.01,1,0.01,3,0.82,3.5,0.01,0,0.01,4,5,Valid,1,40,119,start,lin,0.1204680007629304,0,1,0.1204680007629304,1,True,,,,,,,,,,,,,23,A,2023-09-18_14h59.06.977,exp3,2022.2.2,
low_opac_v,0.4,1,0.01,3,0.82,3.5,0.01,0,0.01,4,5,Valid,0,41,120,start,lin,0.2313899633925575,0,1,0.2313899633925575,1,True,,,,,,,,,,,,,23,A,2023-09-18_14h59.06.977,exp3,2022.2.2,
low_opac_i,0.4,1,0.01,3,0.82,3.5,0.01,0,0.01,4,5,Invalid,2,41,121,start,lin,0.19864656658655963,0.19864656658655963,1,0.19864656658655963,1,True,,,,,,,,,,,,,23,A,2023-09-18_14h59.06.977,exp3,2022.2.2,
high_opac_v,0.01,1,0.01,3,0.82,3.5,0.01,0,0.01,4,5,Valid,1,41,122,start,lin,0.11834765478571378,0,1,0.11834765478571378,1,True,,,,,,,,,,,,,23,A,2023-09-18_14h59.06.977,exp3,2022.2.2,
low_opac_i,0.4,1,0.01,3,0.82,3.5,0.01,0,0.01,4,5,Invalid,2,42,123,start,lin,0.19655911847460242,0,1,0.19655911847460242,1,True,,,,,,,,,,,,,23,A,2023-09-18_14h59.06.977,exp3,2022.2.2,
low_opac_v,0.4,1,0.01,3,0.82,3.5,0.01,0,0.01,4,5,Valid,0,42,124,start,lin,0.22917993026248057,0,1,0.22917993026248057,1,True,,,,,,,,,,,,,23,A,2023-09-18_14h59.06.977,exp3,2022.2.2,
high_opac_v,0.01,1,0.01,3,0.82,3.5,0.01,0,0.01,4,5,Valid,1,42,125,start,lin,0.11635466661000633,0.11635466661000633,1,0.11635466661000633,1,True,,,,,,,,,,,,,23,A,2023-09-18_14h59.06.977,exp3,2022.2.2,
high_opac_v,0.01,1,0.01,3,0.82,3.5,0.01,0,0.01,4,5,Valid,1,43,126,start,lin,0.11445836452874142,0,1,0.11445836452874142,1,True,,,,,,,,,,,,,23,A,2023-09-18_14h59.06.977,exp3,2022.2.2,
low_opac_v,0.4,1,0.01,3,0.82,3.5,0.01,0,0.01,4,5,Valid,0,43,127,start,lin,0.22709083662468948,0.22709083662468948,1,0.22709083662468948,1,True,,,,,,,,,,,,,23,A,2023-09-18_14h59.06.977,exp3,2022.2.2,
low_opac_i,0.4,1,0.01,3,0.82,3.5,0.01,0,0.01,4,5,Invalid,2,43,128,start,lin,0.19457723088023832,0,1,0.19457723088023832,1,True,,,,,,,,,,,,,23,A,2023-09-18_14h59.06.977,exp3,2022.2.2,
low_opac_i,0.4,1,0.01,3,0.82,3.5,0.01,0,0.01,4,5,Invalid,2,44,129,start,lin,0.19250080830257477,0,1,0.19250080830257477,1,True,,,,,,,,,,,,,23,A,2023-09-18_14h59.06.977,exp3,2022.2.2,
low_opac_v,0.4,1,0.01,3,0.82,3.5,0.01,0,0.01,4,5,Valid,0,44,130,start,lin,0.22511268137569335,0,1,0.22511268137569335,1,True,,,,,,,,,,,,,23,A,2023-09-18_14h59.06.977,exp3,2022.2.2,
high_opac_v,0.01,1,0.01,3,0.82,3.5,0.01,0,0.01,4,5,Valid,1,44,131,start,lin,0.11246814425116344,0.11246814425116344,1,0.11246814425116344,1,True,,,,,,,,,,,,,23,A,2023-09-18_14h59.06.977,exp3,2022.2.2,
low_opac_i,0.4,1,0.01,3,0.82,3.5,0.01,0,0.01,4,5,Invalid,2,45,132,start,lin,0.19047347892174932,0,1,0.19047347892174932,1,True,,,,,,,,,,,,,23,A,2023-09-18_14h59.06.977,exp3,2022.2.2,
high_opac_v,0.01,1,0.01,3,0.82,3.5,0.01,0,0.01,4,5,Valid,1,45,133,start,lin,0.11052281511439992,0.11052281511439992,1,0.11052281511439992,1,True,,,,,,,,,,,,,23,A,2023-09-18_14h59.06.977,exp3,2022.2.2,
low_opac_v,0.4,1,0.01,3,0.82,3.5,0.01,0,0.01,4,5,Valid,0,45,134,start,lin,0.22321499189560354,0,1,0.22321499189560354,1,True,,,,,,,,,,,,,23,A,2023-09-18_14h59.06.977,exp3,2022.2.2,
low_opac_v,0.4,1,0.01,3,0.82,3.5,0.01,0,0.01,4,5,Valid,0,46,135,start,lin,0.22120404402007246,0.22120404402007246,1,0.22120404402007246,1,True,,,,,,,,,,,,,23,A,2023-09-18_14h59.06.977,exp3,2022.2.2,
low_opac_i,0.4,1,0.01,3,0.82,3.5,0.01,0,0.01,4,5,Invalid,2,46,136,start,lin,0.18849925506557197,0,1,0.18849925506557197,1,True,,,,,,,,,,,,,23,A,2023-09-18_14h59.06.977,exp3,2022.2.2,
high_opac_v,0.01,1,0.01,3,0.82,3.5,0.01,0,0.01,4,5,Valid,1,46,137,start,lin,0.10862630056492849,0.10862630056492849,1,0.10862630056492849,1,True,,,,,,,,,,,,,23,A,2023-09-18_14h59.06.977,exp3,2022.2.2,
low_opac_i,0.4,1,0.01,3,0.82,3.5,0.01,0,0.01,4,5,Invalid,2,47,138,start,lin,0.18663421767040814,0,1,0.18663421767040814,1,True,,,,,,,,,,,,,23,A,2023-09-18_14h59.06.977,exp3,2022.2.2,
low_opac_v,0.4,1,0.01,3,0.82,3.5,0.01,0,0.01,4,5,Valid,0,47,139,start,lin,0.2192286543202076,0,1,0.2192286543202076,1,True,,,,,,,,,,,,,23,A,2023-09-18_14h59.06.977,exp3,2022.2.2,
high_opac_v,0.01,1,0.01,3,0.82,3.5,0.01,0,0.01,4,5,Valid,1,47,140,start,lin,0.10683401511723618,0,1,0.10683401511723618,1,True,,,,,,,,,,,,,23,A,2023-09-18_14h59.06.977,exp3,2022.2.2,
high_opac_v,0.01,1,0.01,3,0.82,3.5,0.01,0,0.01,4,5,Valid,1,48,141,start,lin,0.1051248262521724,0.1051248262521724,1,0.1051248262521724,1,True,,,,,,,,,,,,,23,A,2023-09-18_14h59.06.977,exp3,2022.2.2,
low_opac_v,0.4,1,0.01,3,0.82,3.5,0.01,0,0.01,4,5,Valid,0,48,142,start,lin,0.21734929548014228,0,1,0.21734929548014228,1,True,,,,,,,,,,,,,23,A,2023-09-18_14h59.06.977,exp3,2022.2.2,
low_opac_i,0.4,1,0.01,3,0.82,3.5,0.01,0,0.01,4,5,Invalid,2,48,143,start,lin,0.18485504953836673,0,1,0.18485504953836673,1,True,,,,,,,,,,,,,23,A,2023-09-18_14h59.06.977,exp3,2022.2.2,
high_opac_v,0.01,1,0.01,3,0.82,3.5,0.01,0,0.01,4,5,Valid,1,49,144,start,lin,0.10347654511073617,0.10347654511073617,1,0.10347654511073617,1,True,,,,,,,,,,,,,23,A,2023-09-18_14h59.06.977,exp3,2022.2.2,
low_opac_i,0.4,1,0.01,3,0.82,3.5,0.01,0,0.01,4,5,Invalid,2,49,145,start,lin,0.18298490920812308,0.18298490920812308,1,0.18298490920812308,1,True,,,,,,,,,,,,,23,A,2023-09-18_14h59.06.977,exp3,2022.2.2,
low_opac_v,0.4,1,0.01,3,0.82,3.5,0.01,0,0.01,4,5,Valid,0,49,146,start,lin,0.21556334459309867,0.21556334459309867,1,0.21556334459309867,1,True,,,,,,,,,,,,,23,A,2023-09-18_14h59.06.977,exp3,2022.2.2,
low_opac_i,0.4,1,0.01,3,0.82,3.5,0.01,0,0.01,4,5,Invalid,2,50,147,start,lin,0.18115601447752583,0,1,0.18115601447752583,1,True,,,,,,,,,,,,,23,A,2023-09-18_14h59.06.977,exp3,2022.2.2,
low_opac_v,0.4,1,0.01,3,0.82,3.5,0.01,0,0.01,4,5,Valid,0,50,148,start,lin,0.21384639393238927,0.21384639393238927,1,0.21384639393238927,1,True,,,,,,,,,,,,,23,A,2023-09-18_14h59.06.977,exp3,2022.2.2,
high_opac_v,0.01,1,0.01,3,0.82,3.5,0.01,0,0.01,4,5,Valid,1,50,149,start,lin,0.10172383376360133,0.10172383376360133,1,0.10172383376360133,1,True,,,,,,,,,,,,,23,A,2023-09-18_14h59.06.977,exp3,2022.2.2,
low_opac_v,0.4,1,0.01,3,0.82,3.5,0.01,0,0.01,4,5,Valid,0,51,150,start,lin,0.21202617039838018,0,1,0.21202617039838018,1,True,,,,,,,,,,,,,23,A,2023-09-18_14h59.06.977,exp3,2022.2.2,
high_opac_v,0.01,1,0.01,3,0.82,3.5,0.01,0,0.01,4,5,Valid,1,51,151,start,lin,0.09999288551655569,0.09999288551655569,1,0.09999288551655569,1,True,,,,,,,,,,,,,23,A,2023-09-18_14h59.06.977,exp3,2022.2.2,
low_opac_i,0.4,1,0.01,3,0.82,3.5,0.01,0,0.01,4,5,Invalid,2,51,152,start,lin,0.1793488097844162,0.1793488097844162,1,0.1793488097844162,1,True,,,,,,,,,,,,,23,A,2023-09-18_14h59.06.977,exp3,2022.2.2,
high_opac_v,0.01,1,0.01,3,0.82,3.5,0.01,0,0.01,4,5,Valid,1,52,153,start,lin,0.0983098705361852,0.0983098705361852,1,0.0983098705361852,1,True,,,,,,,,,,,,,23,A,2023-09-18_14h59.06.977,exp3,2022.2.2,
low_opac_i,0.4,1,0.01,3,0.82,3.5,0.01,0,0.01,4,5,Invalid,2,52,154,start,lin,0.177619125816274,0,1,0.177619125816274,1,True,,,,,,,,,,,,,23,A,2023-09-18_14h59.06.977,exp3,2022.2.2,
low_opac_v,0.4,1,0.01,3,0.82,3.5,0.01,0,0.01,4,5,Valid,0,52,155,start,lin,0.21023281320870668,0.21023281320870668,1,0.21023281320870668,1,True,,,,,,,,,,,,,23,A,2023-09-18_14h59.06.977,exp3,2022.2.2,
high_opac_v,0.01,1,0.01,3,0.82,3.5,0.01,0,0.01,4,5,Valid,1,53,156,start,lin,0.09671250927098334,0.09671250927098334,1,0.09671250927098334,1,True,,,,,,,,,,,,,23,A,2023-09-18_14h59.06.977,exp3,2022.2.2,
low_opac_v,0.4,1,0.01,3,0.82,3.5,0.01,0,0.01,4,5,Valid,0,53,157,start,lin,0.20847637683885328,0,1,0.20847637683885328,1,True,,,,,,,,,,,,,23,A,2023-09-18_14h59.06.977,exp3,2022.2.2,
low_opac_i,0.4,1,0.01,3,0.82,3.5,0.01,0,0.01,4,5,Invalid,2,53,158,start,lin,0.17597210629079688,0,1,0.17597210629079688,1,True,,,,,,,,,,,,,23,A,2023-09-18_14h59.06.977,exp3,2022.2.2,
high_opac_v,0.01,1,0.01,3,0.82,3.5,0.01,0,0.01,4,5,Valid,1,54,159,start,lin,0.09518104093345535,0.09518104093345535,1,0.09518104093345535,1,True,,,,,,,,,,,,,23,A,2023-09-18_14h59.06.977,exp3,2022.2.2,
low_opac_i,0.4,1,0.01,3,0.82,3.5,0.01,0,0.01,4,5,Invalid,2,54,160,start,lin,0.17438719676624537,0,0,0.17438719676624537,0,True,,,,,,,,,,,,,23,A,2023-09-18_14h59.06.977,exp3,2022.2.2,
low_opac_v,0.4,1,0.01,3,0.82,3.5,0.01,0,0.01,4,5,Valid,0,54,161,start,lin,0.2068093773199728,0.2068093773199728,1,0.2068093773199728,1,True,,,,,,,,,,,,,23,A,2023-09-18_14h59.06.977,exp3,2022.2.2,
low_opac_i,0.4,1,0.01,3,0.82,3.5,0.01,0,0.01,4,5,Invalid,2,55,162,start,lin,0.18088833712007782,0.18088833712007782,1,0.18088833712007782,1,True,,,,,,,,,,,,,23,A,2023-09-18_14h59.06.977,exp3,2022.2.2,
low_opac_v,0.4,1,0.01,3,0.82,3.5,0.01,0,0.01,4,5,Valid,0,55,163,start,lin,0.20521272009770405,0.20521272009770405,1,0.20521272009770405,1,True,,,,,,,,,,,,,23,A,2023-09-18_14h59.06.977,exp3,2022.2.2,
high_opac_v,0.01,1,0.01,3,0.82,3.5,0.01,0,0.01,4,5,Valid,1,55,164,start,lin,0.09369811676584967,0,1,0.09369811676584967,1,True,,,,,,,,,,,,,23,A,2023-09-18_14h59.06.977,exp3,2022.2.2,
high_opac_v,0.01,1,0.01,3,0.82,3.5,0.01,0,0.01,4,5,Valid,1,56,165,start,lin,0.09211657574844205,0,1,0.09211657574844205,1,True,,,,,,,,,,,,,23,A,2023-09-18_14h59.06.977,exp3,2022.2.2,
low_opac_i,0.4,1,0.01,3,0.82,3.5,0.01,0,0.01,4,5,Invalid,2,56,166,start,lin,0.1792603666873714,0,1,0.1792603666873714,1,True,,,,,,,,,,,,,23,A,2023-09-18_14h59.06.977,exp3,2022.2.2,
low_opac_v,0.4,1,0.01,3,0.82,3.5,0.01,0,0.01,4,5,Valid,0,56,167,start,lin,0.2036676197809624,0,1,0.2036676197809624,1,True,,,,,,,,,,,,,23,A,2023-09-18_14h59.06.977,exp3,2022.2.2,
low_opac_v,0.4,1,0.01,3,0.82,3.5,0.01,0,0.01,4,5,Valid,0,57,168,start,lin,0.2020199567455953,0.2020199567455953,1,0.2020199567455953,1,True,,,,,,,,,,,,,23,A,2023-09-18_14h59.06.977,exp3,2022.2.2,
high_opac_v,0.01,1,0.01,3,0.82,3.5,0.01,0,0.01,4,5,Valid,1,57,169,start,lin,0.09055217185121671,0,0,0.09055217185121671,0,True,,,,,,,,,,,,,23,A,2023-09-18_14h59.06.977,exp3,2022.2.2,
low_opac_i,0.4,1,0.01,3,0.82,3.5,0.01,0,0.01,4,5,Invalid,2,57,170,start,lin,0.17770285179349654,0,1,0.17770285179349654,1,True,,,,,,,,,,,,,23,A,2023-09-18_14h59.06.977,exp3,2022.2.2,
low_opac_i,0.4,1,0.01,3,0.82,3.5,0.01,0,0.01,4,5,Invalid,2,58,171,start,lin,0.1762161701181413,0.1762161701181413,1,0.1762161701181413,1,True,,,,,,,,,,,,,23,A,2023-09-18_14h59.06.977,exp3,2022.2.2,
high_opac_v,0.01,1,0.01,3,0.82,3.5,0.01,0,0.01,4,5,Valid,1,58,172,start,lin,0.09662293212234996,0,1,0.09662293212234996,1,True,,,,,,,,,,,,,23,A,2023-09-18_14h59.06.977,exp3,2022.2.2,
low_opac_v,0.4,1,0.01,3,0.82,3.5,0.01,0,0.01,4,5,Valid,0,58,173,start,lin,0.20038974292020276,0.20038974292020276,1,0.20038974292020276,1,True,,,,,,,,,,,,,23,A,2023-09-18_14h59.06.977,exp3,2022.2.2,
high_opac_v,0.01,1,0.01,3,0.82,3.5,0.01,0,0.01,4,5,Valid,1,59,174,start,lin,0.09523803584529277,0.09523803584529277,1,0.09523803584529277,1,True,,,,,,,,,,,,,23,A,2023-09-18_14h59.06.977,exp3,2022.2.2,
low_opac_i,0.4,1,0.01,3,0.82,3.5,0.01,0,0.01,4,5,Invalid,2,59,175,start,lin,0.17478363260754895,0,1,0.17478363260754895,1,True,,,,,,,,,,,,,23,A,2023-09-18_14h59.06.977,exp3,2022.2.2,
low_opac_v,0.4,1,0.01,3,0.82,3.5,0.01,0,0.01,4,5,Valid,0,59,176,start,lin,0.19877574583742802,0.19877574583742802,1,0.19877574583742802,1,True,,,,,,,,,,,,,23,A,2023-09-18_14h59.06.977,exp3,2022.2.2,
high_opac_v,0.01,1,0.01,3,0.82,3.5,0.01,0,0.01,4,5,Valid,1,60,177,start,lin,0.09389401021934182,0.09389401021934182,1,0.09389401021934182,1,True,,,,,,,,,,,,,23,A,2023-09-18_14h59.06.977,exp3,2022.2.2,
low_opac_v,0.4,1,0.01,3,0.82,3.5,0.01,0,0.01,4,5,Valid,0,60,178,start,lin,0.19723636961098692,0.19723636961098692,1,0.19723636961098692,1,True,,,,,,,,,,,,,23,A,2023-09-18_14h59.06.977,exp3,2022.2.2,
low_opac_i,0.4,1,0.01,3,0.82,3.5,0.01,0,0.01,4,5,Invalid,2,60,179,start,lin,0.17326560251958012,0,1,0.17326560251958012,1,True,,,,,,,,,,,,,23,A,2023-09-18_14h59.06.977,exp3,2022.2.2,
high_opac_v,0.01,1,0.01,3,0.82,3.5,0.01,0,0.01,4,5,Valid,1,61,180,start,lin,0.09245890990223635,0.09245890990223635,0,0.09245890990223635,0,True,,,,,,,,,,,,,23,A,2023-09-18_14h59.06.977,exp3,2022.2.2,
low_opac_i,0.4,1,0.01,3,0.82,3.5,0.01,0,0.01,4,5,Invalid,2,61,181,start,lin,0.17177331891722208,0.17177331891722208,0,0.17177331891722208,0,True,,,,,,,,,,,,,23,A,2023-09-18_14h59.06.977,exp3,2022.2.2,
low_opac_v,0.4,1,0.01,3,0.82,3.5,0.01,0,0.01,4,5,Valid,0,61,182,start,lin,0.19576038632145917,0,1,0.19576038632145917,1,True,,,,,,,,,,,,,23,A,2023-09-18_14h59.06.977,exp3,2022.2.2,
high_opac_v,0.01,1,0.01,3,0.82,3.5,0.01,0,0.01,4,5,Valid,1,62,183,start,lin,0.09797109928914664,0,1,0.09797109928914664,1,True,,,,,,,,,,,,,23,A,2023-09-18_14h59.06.977,exp3,2022.2.2,
low_opac_v,0.4,1,0.01,3,0.82,3.5,0.01,0,0.01,4,5,Valid,0,62,184,start,lin,0.1943318523211073,0,1,0.1943318523211073,1,True,,,,,,,,,,,,,23,A,2023-09-18_14h59.06.977,exp3,2022.2.2,
low_opac_i,0.4,1,0.01,3,0.82,3.5,0.01,0,0.01,4,5,Invalid,2,62,185,start,lin,0.17752691618240787,0,1,0.17752691618240787,1,True,,,,,,,,,,,,,23,A,2023-09-18_14h59.06.977,exp3,2022.2.2,
low_opac_v,0.4,1,0.01,3,0.82,3.5,0.01,0,0.01,4,5,Valid,0,63,186,start,lin,0.19281022761407934,0,1,0.19281022761407934,1,True,,,,,,,,,,,,,23,A,2023-09-18_14h59.06.977,exp3,2022.2.2,
high_opac_v,0.01,1,0.01,3,0.82,3.5,0.01,0,0.01,4,5,Valid,1,63,187,start,lin,0.09665781445448167,0,1,0.09665781445448167,1,True,,,,,,,,,,,,,23,A,2023-09-18_14h59.06.977,exp3,2022.2.2,
low_opac_i,0.4,1,0.01,3,0.82,3.5,0.01,0,0.01,4,5,Invalid,2,63,188,start,lin,0.1761779658707925,0.1761779658707925,1,0.1761779658707925,1,True,,,,,,,,,,,,,23,A,2023-09-18_14h59.06.977,exp3,2022.2.2,
high_opac_v,0.01,1,0.01,3,0.82,3.5,0.01,0,0.01,4,5,Valid,1,64,189,start,lin,0.09539206877224812,0.09539206877224812,1,0.09539206877224812,1,True,,,,,,,,,,,,,23,A,2023-09-18_14h59.06.977,exp3,2022.2.2,
low_opac_v,0.4,1,0.01,3,0.82,3.5,0.01,0,0.01,4,5,Valid,0,64,190,start,lin,0.19130740778591965,0,0,0.19130740778591965,0,True,,,,,,,,,,,,,23,A,2023-09-18_14h59.06.977,exp3,2022.2.2,
low_opac_i,0.4,1,0.01,3,0.82,3.5,0.01,0,0.01,4,5,Invalid,2,64,191,start,lin,0.17487478384392277,0,1,0.17487478384392277,1,True,,,,,,,,,,,,,23,A,2023-09-18_14h59.06.977,exp3,2022.2.2,
low_opac_i,0.4,1,0.01,3,0.82,3.5,0.01,0,0.01,4,5,Invalid,2,65,192,start,lin,0.1734915045334076,0,1,0.1734915045334076,1,True,,,,,,,,,,,,,23,A,2023-09-18_14h59.06.977,exp3,2022.2.2,
low_opac_v,0.4,1,0.01,3,0.82,3.5,0.01,0,0.01,4,5,Valid,0,65,193,start,lin,0.1971282479537326,0.1971282479537326,1,0.1971282479537326,1,True,,,,,,,,,,,,,23,A,2023-09-18_14h59.06.977,exp3,2022.2.2,
high_opac_v,0.01,1,0.01,3,0.82,3.5,0.01,0,0.01,4,5,Valid,1,65,194,start,lin,0.09416215453233599,0,1,0.09416215453233599,1,True,,,,,,,,,,,,,23,A,2023-09-18_14h59.06.977,exp3,2022.2.2,
high_opac_v,0.01,1,0.01,3,0.82,3.5,0.01,0,0.01,4,5,Valid,1,66,195,start,lin,0.09284857310339702,0.09284857310339702,1,0.09284857310339702,1,True,,,,,,,,,,,,,23,A,2023-09-18_14h59.06.977,exp3,2022.2.2,
low_opac_v,0.4,1,0.01,3,0.82,3.5,0.01,0,0.01,4,5,Valid,0,66,196,start,lin,0.19578858572295152,0.19578858572295152,1,0.19578858572295152,1,True,,,,,,,,,,,,,23,A,2023-09-18_14h59.06.977,exp3,2022.2.2,
low_opac_i,0.4,1,0.01,3,0.82,3.5,0.01,0,0.01,4,5,Invalid,2,66,197,start,lin,0.17213069302175232,0.17213069302175232,1,0.17213069302175232,1,True,,,,,,,,,,,,,23,A,2023-09-18_14h59.06.977,exp3,2022.2.2,
low_opac_i,0.4,1,0.01,3,0.82,3.5,0.01,0,0.01,4,5,Invalid,2,67,198,start,lin,0.17077940627919058,0.17077940627919058,1,0.17077940627919058,1,True,,,,,,,,,,,,,23,A,2023-09-18_14h59.06.977,exp3,2022.2.2,
low_opac_v,0.4,1,0.01,3,0.82,3.5,0.01,0,0.01,4,5,Valid,0,67,199,start,lin,0.19448952839487058,0.19448952839487058,1,0.19448952839487058,1,True,,,,,,,,,,,,,23,A,2023-09-18_14h59.06.977,exp3,2022.2.2,
high_opac_v,0.01,1,0.01,3,0.82,3.5,0.01,0,0.01,4,5,Valid,1,67,200,start,lin,0.09154956985571204,0,1,0.09154956985571204,1,True,,,,,,,,,,,,,23,A,2023-09-18_14h59.06.977,exp3,2022.2.2,
low_opac_i,0.4,1,0.01,3,0.82,3.5,0.01,0,0.01,4,5,Invalid,2,68,201,start,lin,0.16942815372792974,0,1,0.16942815372792974,1,True,,,,,,,,,,,,,23,A,2023-09-18_14h59.06.977,exp3,2022.2.2,
high_opac_v,0.01,1,0.01,3,0.82,3.5,0.01,0,0.01,4,5,Valid,1,68,202,start,lin,0.09025360521578915,0,1,0.09025360521578915,1,True,,,,,,,,,,,,,23,A,2023-09-18_14h59.06.977,exp3,2022.2.2,
low_opac_v,0.4,1,0.01,3,0.82,3.5,0.01,0,0.01,4,5,Valid,0,68,203,start,lin,0.1931046012869507,0.1931046012869507,1,0.1931046012869507,1,True,,,,,,,,,,,,,23,A,2023-09-18_14h59.06.977,exp3,2022.2.2,
high_opac_v,0.01,1,0.01,3,0.82,3.5,0.01,0,0.01,4,5,Valid,1,69,204,start,lin,0.08896749460360212,0,1,0.08896749460360212,1,True,,,,,,,,,,,,,23,A,2023-09-18_14h59.06.977,exp3,2022.2.2,
low_opac_i,0.4,1,0.01,3,0.82,3.5,0.01,0,0.01,4,5,Invalid,2,69,205,start,lin,0.16812490587038073,0,1,0.16812490587038073,1,True,,,,,,,,,,,,,23,A,2023-09-18_14h59.06.977,exp3,2022.2.2,
low_opac_v,0.4,1,0.01,3,0.82,3.5,0.01,0,0.01,4,5,Valid,0,69,206,start,lin,0.19173678178349626,0,1,0.19173678178349626,1,True,,,,,,,,,,,,,23,A,2023-09-18_14h59.06.977,exp3,2022.2.2,
low_opac_i,0.4,1,0.01,3,0.82,3.5,0.01,0,0.01,4,5,Invalid,2,70,207,start,lin,0.16687718034281995,0.16687718034281995,1,0.16687718034281995,1,True,,,,,,,,,,,,,23,A,2023-09-18_14h59.06.977,exp3,2022.2.2,
high_opac_v,0.01,1,0.01,3,0.82,3.5,0.01,0,0.01,4,5,Valid,1,70,208,start,lin,0.08773814906861135,0.08773814906861135,1,0.08773814906861135,1,True,,,,,,,,,,,,,23,A,2023-09-18_14h59.06.977,exp3,2022.2.2,
low_opac_v,0.4,1,0.01,3,0.82,3.5,0.01,0,0.01,4,5,Valid,0,70,209,start,lin,0.19037326588039852,0,1,0.19037326588039852,1,True,,,,,,,,,,,,,23,A,2023-09-18_14h59.06.977,exp3,2022.2.2,
low_opac_i,0.4,1,0.01,3,0.82,3.5,0.01,0,0.01,4,5,Invalid,2,71,210,start,lin,0.1656733286042944,0.1656733286042944,1,0.1656733286042944,1,True,,,,,,,,,,,,,23,A,2023-09-18_14h59.06.977,exp3,2022.2.2,
low_opac_v,0.4,1,0.01,3,0.82,3.5,0.01,0,0.01,4,5,Valid,0,71,211,start,lin,0.18901050181608914,0.18901050181608914,1,0.18901050181608914,1,True,,,,,,,,,,,,,23,A,2023-09-18_14h59.06.977,exp3,2022.2.2,
high_opac_v,0.01,1,0.01,3,0.82,3.5,0.01,0,0.01,4,5,Valid,1,71,212,start,lin,0.08655750356073694,0.08655750356073694,1,0.08655750356073694,1,True,,,,,,,,,,,,,23,A,2023-09-18_14h59.06.977,exp3,2022.2.2,
low_opac_i,0.4,1,0.01,3,0.82,3.5,0.01,0,0.01,4,5,Invalid,2,72,213,start,lin,0.16450287373375572,0,1,0.16450287373375572,1,True,,,,,,,,,,,,,23,A,2023-09-18_14h59.06.977,exp3,2022.2.2,
low_opac_v,0.4,1,0.01,3,0.82,3.5,0.01,0,0.01,4,5,Valid,0,72,214,start,lin,0.18770328728027189,0,1,0.18770328728027189,1,True,,,,,,,,,,,,,23,A,2023-09-18_14h59.06.977,exp3,2022.2.2,
high_opac_v,0.01,1,0.01,3,0.82,3.5,0.01,0,0.01,4,5,Valid,1,72,215,start,lin,0.085415211875691,0,1,0.085415211875691,1,True,,,,,,,,,,,,,23,A,2023-09-18_14h59.06.977,exp3,2022.2.2,
high_opac_v,0.01,1,0.01,3,0.82,3.5,0.01,0,0.01,4,5,Valid,1,73,216,start,lin,0.08430191478178588,0,1,0.08430191478178588,1,True,,,,,,,,,,,,,23,A,2023-09-18_14h59.06.977,exp3,2022.2.2,
low_opac_i,0.4,1,0.01,3,0.82,3.5,0.01,0,0.01,4,5,Invalid,2,73,217,start,lin,0.163252819634546,0,1,0.163252819634546,1,True,,,,,,,,,,,,,23,A,2023-09-18_14h59.06.977,exp3,2022.2.2,
low_opac_v,0.4,1,0.01,3,0.82,3.5,0.01,0,0.01,4,5,Valid,0,73,218,start,lin,0.18644714323080938,0,1,0.18644714323080938,1,True,,,,,,,,,,,,,23,A,2023-09-18_14h59.06.977,exp3,2022.2.2,
high_opac_v,0.01,1,0.01,3,0.82,3.5,0.01,0,0.01,4,5,Valid,1,74,219,start,lin,0.08311016748191928,0.08311016748191928,0,0.08311016748191928,0,True,,,,,,,,,,,,,23,A,2023-09-18_14h59.06.977,exp3,2022.2.2,
low_opac_v,0.4,1,0.01,3,0.82,3.5,0.01,0,0.01,4,5,Valid,0,74,220,start,lin,0.18523058535787332,0,1,0.18523058535787332,1,True,,,,,,,,,,,,,23,A,2023-09-18_14h59.06.977,exp3,2022.2.2,
low_opac_i,0.4,1,0.01,3,0.82,3.5,0.01,0,0.01,4,5,Invalid,2,74,221,start,lin,0.16201716755120657,0,1,0.16201716755120657,1,True,,,,,,,,,,,,,23,A,2023-09-18_14h59.06.977,exp3,2022.2.2,
high_opac_v,0.01,1,0.01,3,0.82,3.5,0.01,0,0.01,4,5,Valid,1,75,222,start,lin,0.08769155486839399,0.08769155486839399,1,0.08769155486839399,1,True,,,,,,,,,,,,,23,A,2023-09-18_14h59.06.977,exp3,2022.2.2,
low_opac_v,0.4,1,0.01,3,0.82,3.5,0.01,0,0.01,4,5,Valid,0,75,223,start,lin,0.1840432073965422,0,1,0.1840432073965422,1,True,,,,,,,,,,,,,23,A,2023-09-18_14h59.06.977,exp3,2022.2.2,
low_opac_i,0.4,1,0.01,3,0.82,3.5,0.01,0,0.01,4,5,Invalid,2,75,224,start,lin,0.1607854340604218,0.1607854340604218,1,0.1607854340604218,1,True,,,,,,,,,,,,,23,A,2023-09-18_14h59.06.977,exp3,2022.2.2,
,,,,,,,,,,,,,,,,,,,,,,,,0,1716,Valid,signal,45,1,5.048935999977402,1,4.0,6.356819100037683,True,1,23,A,2023-09-18_14h59.06.977,exp3,2022.2.2,
,,,,,,,,,,,,,,,,,,,,,,,,0,1716,Valid,signal,45,1,3.122722399944905,1,4.0,4.430458499991801,True,1,23,A,2023-09-18_14h59.06.977,exp3,2022.2.2,
,,,,,,,,,,,,,,,,,,,,,,,,0,-1716,Valid,noise,-45,2,2.9886145999771543,1,4.0,4.296462500002235,True,1,23,A,2023-09-18_14h59.06.977,exp3,2022.2.2,
,,,,,,,,,,,,,,,,,,,,,,,,0,1716,Valid,signal,45,1,3.9228016000124626,1,4.0,5.23058969998965,True,1,23,A,2023-09-18_14h59.06.977,exp3,2022.2.2,
,,,,,,,,,,,,,,,,,,,,,,,,0,-1716,Valid,signal,-45,1,2.9383431999594904,1,3.0,4.246148700010963,True,1,23,A,2023-09-18_14h59.06.977,exp3,2022.2.2,
,,,,,,,,,,,,,,,,,,,,,,,,0,1158,Valid,noise,-45,1,3.255782799969893,0,3.0,4.56338239996694,True,1,23,A,2023-09-18_14h59.06.977,exp3,2022.2.2,
,,,,,,,,,,,,,,,,,,,,,,,,0,1716,Valid,signal,-45,1,2.8725240000057966,1,3.0,4.180310599971563,True,1,23,A,2023-09-18_14h59.06.977,exp3,2022.2.2,
,,,,,,,,,,,,,,,,,,,,,,,,0,-1158,Valid,noise,-45,2,3.038790400023572,1,2.0,4.346558700024616,True,1,23,A,2023-09-18_14h59.06.977,exp3,2022.2.2,
,,,,,,,,,,,,,,,,,,,,,,,,0,1716,Valid,signal,45,1,1.8544401000253856,1,4.0,3.1622543000266887,True,1,23,A,2023-09-18_14h59.06.977,exp3,2022.2.2,
,,,,,,,,,,,,,,,,,,,,,,,,0,2274,Valid,noise,45,1,2.8717272999929264,0,4.0,4.179868499981239,True,1,23,A,2023-09-18_14h59.06.977,exp3,2022.2.2,
,,,,,,,,,,,,,,,,,,,,,,,,0,1158,Valid,noise,-45,2,2.222087999980431,1,3.0,3.52996339998208,True,1,23,A,2023-09-18_14h59.06.977,exp3,2022.2.2,
,,,,,,,,,,,,,,,,,,,,,,,,0,-1716,Valid,signal,45,1,2.5047792999539524,1,4.0,3.8125639999634586,True,1,23,A,2023-09-18_14h59.06.977,exp3,2022.2.2,
,,,,,,,,,,,,,,,,,,,,,,,,0,-2274,Valid,noise,-45,2,1.3554240000084974,1,4.0,2.6632766000111587,True,1,23,A,2023-09-18_14h59.06.977,exp3,2022.2.2,
,,,,,,,,,,,,,,,,,,,,,,,,0,557,Valid,noise,-45,2,1.6882591000176035,1,4.0,2.996109700005036,True,1,23,A,2023-09-18_14h59.06.977,exp3,2022.2.2,
,,,,,,,,,,,,,,,,,,,,,,,,0,-557,Valid,noise,-45,2,1.3874895999906585,1,4.0,2.6954674999578856,True,1,23,A,2023-09-18_14h59.06.977,exp3,2022.2.2,
,,,,,,,,,,,,,,,,,,,,,,,,0,1158,Valid,noise,45,2,1.672283600026276,1,3.0,2.9799543999833986,True,1,23,A,2023-09-18_14h59.06.977,exp3,2022.2.2,
,,,,,,,,,,,,,,,,,,,,,,,,0,2274,Valid,noise,-45,2,1.5712709999643266,1,2.0,2.8789039999828674,True,1,23,A,2023-09-18_14h59.06.977,exp3,2022.2.2,
,,,,,,,,,,,,,,,,,,,,,,,,0,-1716,Invalid,noise,-45,2,3.572753400017973,1,1.0,4.880494299985003,True,1,23,A,2023-09-18_14h59.06.977,exp3,2022.2.2,
,,,,,,,,,,,,,,,,,,,,,,,,0,1158,Valid,noise,45,2,1.4051007999805734,1,2.0,2.71281470003305,True,1,23,A,2023-09-18_14h59.06.977,exp3,2022.2.2,
,,,,,,,,,,,,,,,,,,,,,,,,0,557,Valid,noise,-45,2,1.1870688000344671,1,2.0,2.4953005000134,True,1,23,A,2023-09-18_14h59.06.977,exp3,2022.2.2,
,,,,,,,,,,,,,,,,,,,,,,,,0,-557,Valid,signal,-45,2,1.288059799990151,0,2.0,2.5959602000075392,True,1,23,A,2023-09-18_14h59.06.977,exp3,2022.2.2,
,,,,,,,,,,,,,,,,,,,,,,,,0,1716,Valid,noise,-45,2,1.4716989999869838,1,2.0,2.7795557000208646,True,1,23,A,2023-09-18_14h59.06.977,exp3,2022.2.2,
,,,,,,,,,,,,,,,,,,,,,,,,0,-557,Valid,signal,45,2,1.5385543999727815,0,2.0,2.846476199978497,True,1,23,A,2023-09-18_14h59.06.977,exp3,2022.2.2,
,,,,,,,,,,,,,,,,,,,,,,,,0,2274,Valid,signal,-45,2,1.4877389000030234,0,4.0,2.795799699961208,True,1,23,A,2023-09-18_14h59.06.977,exp3,2022.2.2,
,,,,,,,,,,,,,,,,,,,,,,,,0,-557,Valid,noise,-45,2,1.3221788000082597,1,3.0,2.629856299958192,True,1,23,A,2023-09-18_14h59.06.977,exp3,2022.2.2,
,,,,,,,,,,,,,,,,,,,,,,,,0,1158,Valid,noise,-45,2,1.2715656000073068,1,3.0,2.579335300019011,True,1,23,A,2023-09-18_14h59.06.977,exp3,2022.2.2,
,,,,,,,,,,,,,,,,,,,,,,,,0,-1716,Valid,signal,-45,2,0.8879640999948606,0,3.0,2.195802200003527,True,1,23,A,2023-09-18_14h59.06.977,exp3,2022.2.2,
,,,,,,,,,,,,,,,,,,,,,,,,0,2274,Invalid,noise,45,2,2.254880599968601,1,3.0,3.5625702000106685,True,1,23,A,2023-09-18_14h59.06.977,exp3,2022.2.2,
,,,,,,,,,,,,,,,,,,,,,,,,0,557,Valid,noise,45,2,0.8545049000531435,1,4.0,2.162486399989575,True,1,23,A,2023-09-18_14h59.06.977,exp3,2022.2.2,
,,,,,,,,,,,,,,,,,,,,,,,,0,-557,Valid,noise,45,2,1.5712808999815024,1,4.0,2.8794274000101723,True,1,23,A,2023-09-18_14h59.06.977,exp3,2022.2.2,
,,,,,,,,,,,,,,,,,,,,,,,,0,-557,Valid,signal,45,1,1.5379969999776222,1,2.0,2.845998500008136,True,1,23,A,2023-09-18_14h59.06.977,exp3,2022.2.2,
,,,,,,,,,,,,,,,,,,,,,,,,0,-1716,Valid,noise,-45,2,1.6215133999940008,1,4.0,2.9294829000136815,True,1,23,A,2023-09-18_14h59.06.977,exp3,2022.2.2,
,,,,,,,,,,,,,,,,,,,,,,,,0,557,Invalid,signal,45,2,1.5882692000013776,0,2.0,2.8962540000211447,True,1,23,A,2023-09-18_14h59.06.977,exp3,2022.2.2,
,,,,,,,,,,,,,,,,,,,,,,,,0,1716,Valid,signal,-45,1,1.4049228000221774,1,3.0,2.7127783999894746,True,1,23,A,2023-09-18_14h59.06.977,exp3,2022.2.2,
,,,,,,,,,,,,,,,,,,,,,,,,0,-2274,Valid,noise,45,2,1.388348100008443,1,3.0,2.696228000044357,True,1,23,A,2023-09-18_14h59.06.977,exp3,2022.2.2,
,,,,,,,,,,,,,,,,,,,,,,,,0,1158,Valid,signal,-45,1,1.2048518999945372,1,4.0,2.512566899997182,True,1,23,A,2023-09-18_14h59.06.977,exp3,2022.2.2,
,,,,,,,,,,,,,,,,,,,,,,,,0,-1158,Valid,signal,45,1,1.9720128999906592,1,3.0,3.28006290004123,True,1,23,A,2023-09-18_14h59.06.977,exp3,2022.2.2,
,,,,,,,,,,,,,,,,,,,,,,,,0,-1716,Invalid,signal,45,2,1.7712667000014335,0,2.0,3.079222300031688,True,1,23,A,2023-09-18_14h59.06.977,exp3,2022.2.2,
,,,,,,,,,,,,,,,,,,,,,,,,0,-1716,Valid,noise,45,2,1.3883725000196137,1,4.0,2.696145099995192,True,1,23,A,2023-09-18_14h59.06.977,exp3,2022.2.2,
,,,,,,,,,,,,,,,,,,,,,,,,0,557,Invalid,noise,45,2,1.7549154000007547,1,3.0,3.062894300033804,True,1,23,A,2023-09-18_14h59.06.977,exp3,2022.2.2,
,,,,,,,,,,,,,,,,,,,,,,,,0,-1716,Valid,noise,-45,2,1.1044173000263982,1,3.0,2.4123487999895588,True,1,23,A,2023-09-18_14h59.06.977,exp3,2022.2.2,
,,,,,,,,,,,,,,,,,,,,,,,,0,-557,Valid,noise,-45,2,1.1047178000444546,1,3.0,2.412596100009978,True,1,23,A,2023-09-18_14h59.06.977,exp3,2022.2.2,
,,,,,,,,,,,,,,,,,,,,,,,,0,-1158,Valid,noise,45,2,1.1723114000051282,1,3.0,2.4800871000043117,True,1,23,A,2023-09-18_14h59.06.977,exp3,2022.2.2,
,,,,,,,,,,,,,,,,,,,,,,,,0,557,Valid,noise,-45,2,0.9209157000295818,1,3.0,2.2286662999540567,True,1,23,A,2023-09-18_14h59.06.977,exp3,2022.2.2,
,,,,,,,,,,,,,,,,,,,,,,,,0,1716,Valid,noise,-45,2,1.137866600009147,1,3.0,2.4456985000288114,True,1,23,A,2023-09-18_14h59.06.977,exp3,2022.2.2,
,,,,,,,,,,,,,,,,,,,,,,,,0,1158,Valid,signal,45,1,1.221078500035219,1,4.0,2.5291413000086322,True,1,23,A,2023-09-18_14h59.06.977,exp3,2022.2.2,
,,,,,,,,,,,,,,,,,,,,,,,,0,1716,Invalid,noise,45,2,1.838616799970623,1,3.0,3.146405900013633,True,1,23,A,2023-09-18_14h59.06.977,exp3,2022.2.2,
,,,,,,,,,,,,,,,,,,,,,,,,0,-557,Valid,noise,45,2,1.038534699997399,1,3.0,2.3465615999884903,True,1,23,A,2023-09-18_14h59.06.977,exp3,2022.2.2,
,,,,,,,,,,,,,,,,,,,,,,,,0,1716,Valid,noise,45,2,0.9878329999628477,1,3.0,2.295676499954425,True,1,23,A,2023-09-18_14h59.06.977,exp3,2022.2.2,
,,,,,,,,,,,,,,,,,,,,,,,,0,-2274,Valid,signal,-45,2,0.7870437999954447,0,3.0,2.0951703999890015,True,1,23,A,2023-09-18_14h59.06.977,exp3,2022.2.2,
,,,,,,,,,,,,,,,,,,,,,,,,0,-2274,Valid,noise,45,2,1.1880025999853387,1,4.0,2.4959391000447795,True,1,23,A,2023-09-18_14h59.06.977,exp3,2022.2.2,
,,,,,,,,,,,,,,,,,,,,,,,,0,-1716,Valid,signal,45,2,1.139573400025256,0,4.0,4.030167800025083,True,2,23,A,2023-09-18_14h59.06.977,exp3,2022.2.2,
,,,,,,,,,,,,,,,,,,,,,,,,0,-557,Valid,noise,-45,2,1.1878962999908254,1,4.0,2.495906800031662,True,1,23,A,2023-09-18_14h59.06.977,exp3,2022.2.2,
,,,,,,,,,,,,,,,,,,,,,,,,0,557,Invalid,signal,45,1,1.6214445999939926,1,2.0,2.9295418999972753,True,1,23,A,2023-09-18_14h59.06.977,exp3,2022.2.2,
,,,,,,,,,,,,,,,,,,,,,,,,0,557,Valid,noise,-45,2,1.7383920000283979,1,4.0,3.046424600004684,True,1,23,A,2023-09-18_14h59.06.977,exp3,2022.2.2,
,,,,,,,,,,,,,,,,,,,,,,,,0,-2274,Valid,signal,-45,2,1.3047801000066102,0,3.0,2.6125748000340536,True,1,23,A,2023-09-18_14h59.06.977,exp3,2022.2.2,
,,,,,,,,,,,,,,,,,,,,,,,,0,1716,Valid,signal,45,1,1.1775757999857888,1,3.0,4.230402199958917,True,2,23,A,2023-09-18_14h59.06.977,exp3,2022.2.2,
,,,,,,,,,,,,,,,,,,,,,,,,0,2274,Valid,signal,-45,2,1.0377081000478938,0,3.0,2.3456478000152856,True,1,23,A,2023-09-18_14h59.06.977,exp3,2022.2.2,
,,,,,,,,,,,,,,,,,,,,,,,,0,-557,Invalid,noise,45,2,1.037696999963373,1,3.0,2.3456621000077575,True,1,23,A,2023-09-18_14h59.06.977,exp3,2022.2.2,
,,,,,,,,,,,,,,,,,,,,,,,,0,557,Valid,noise,-45,2,1.2217714000144042,1,3.0,2.529634199978318,True,1,23,A,2023-09-18_14h59.06.977,exp3,2022.2.2,
,,,,,,,,,,,,,,,,,,,,,,,,0,557,Valid,signal,45,2,1.0711118999752216,0,3.0,2.378930400009267,True,1,23,A,2023-09-18_14h59.06.977,exp3,2022.2.2,
,,,,,,,,,,,,,,,,,,,,,,,,0,1158,Valid,signal,45,1,1.3377311999793164,1,4.0,2.6460559999686666,True,1,23,A,2023-09-18_14h59.06.977,exp3,2022.2.2,
,,,,,,,,,,,,,,,,,,,,,,,,0,-2274,Invalid,signal,45,2,1.1887144000502303,0,3.0,2.496392900007777,True,1,23,A,2023-09-18_14h59.06.977,exp3,2022.2.2,
,,,,,,,,,,,,,,,,,,,,,,,,0,-1158,Valid,signal,-45,1,1.1877686000079848,1,4.0,2.4957397000398487,True,1,23,A,2023-09-18_14h59.06.977,exp3,2022.2.2,
,,,,,,,,,,,,,,,,,,,,,,,,0,-1716,Valid,signal,45,1,1.2207697000121698,1,4.0,2.5292167000006884,True,1,23,A,2023-09-18_14h59.06.977,exp3,2022.2.2,
,,,,,,,,,,,,,,,,,,,,,,,,0,-1716,Valid,signal,45,1,1.3885085999500006,1,4.0,2.6964044999913312,True,1,23,A,2023-09-18_14h59.06.977,exp3,2022.2.2,
,,,,,,,,,,,,,,,,,,,,,,,,0,-2274,Valid,noise,-45,2,1.3377102999947965,1,3.0,2.645832500013057,True,1,23,A,2023-09-18_14h59.06.977,exp3,2022.2.2,
,,,,,,,,,,,,,,,,,,,,,,,,0,557,Valid,noise,45,2,1.0882818999816664,1,4.0,2.3960671999957412,True,1,23,A,2023-09-18_14h59.06.977,exp3,2022.2.2,
,,,,,,,,,,,,,,,,,,,,,,,,0,2274,Valid,signal,45,2,2.0883946000249125,0,3.0,3.3961593999993056,True,1,23,A,2023-09-18_14h59.06.977,exp3,2022.2.2,
,,,,,,,,,,,,,,,,,,,,,,,,0,-1158,Invalid,signal,-45,1,1.7206605999963358,1,3.0,3.028523499961011,True,1,23,A,2023-09-18_14h59.06.977,exp3,2022.2.2,
,,,,,,,,,,,,,,,,,,,,,,,,0,557,Valid,signal,45,1,1.2887589000165462,1,3.0,2.5966044000233524,True,1,23,A,2023-09-18_14h59.06.977,exp3,2022.2.2,
,,,,,,,,,,,,,,,,,,,,,,,,0,1716,Valid,noise,45,2,1.5042978000128642,1,4.0,2.8121772999875247,True,1,23,A,2023-09-18_14h59.06.977,exp3,2022.2.2,
,,,,,,,,,,,,,,,,,,,,,,,,0,-1716,Valid,noise,-45,2,0.9146604999550618,1,4.0,3.8304461000370793,True,2,23,A,2023-09-18_14h59.06.977,exp3,2022.2.2,
,,,,,,,,,,,,,,,,,,,,,,,,0,-557,Valid,signal,-45,2,4.522808999987319,0,3.0,5.830307499971241,True,1,23,A,2023-09-18_14h59.06.977,exp3,2022.2.2,
,,,,,,,,,,,,,,,,,,,,,,,,0,-1158,Valid,signal,45,1,1.0880820999736898,1,4.0,2.3958668999839574,True,1,23,A,2023-09-18_14h59.06.977,exp3,2022.2.2,
,,,,,,,,,,,,,,,,,,,,,,,,0,2274,Valid,noise,-45,2,1.1374789000255987,1,3.0,2.4454655000008643,True,1,23,A,2023-09-18_14h59.06.977,exp3,2022.2.2,
,,,,,,,,,,,,,,,,,,,,,,,,0,1716,Valid,noise,-45,2,1.0378418000182137,1,4.0,2.3457968999864534,True,1,23,A,2023-09-18_14h59.06.977,exp3,2022.2.2,
,,,,,,,,,,,,,,,,,,,,,,,,0,-1716,Valid,noise,45,2,0.9379089999711141,1,4.0,2.2457833999651484,True,1,23,A,2023-09-18_14h59.06.977,exp3,2022.2.2,
,,,,,,,,,,,,,,,,,,,,,,,,0,-557,Invalid,noise,45,2,1.038077000004705,1,4.0,2.345937000005506,True,1,23,A,2023-09-18_14h59.06.977,exp3,2022.2.2,
,,,,,,,,,,,,,,,,,,,,,,,,0,-1716,Valid,signal,45,2,1.8720516000175849,0,4.0,3.179941200010944,True,1,23,A,2023-09-18_14h59.06.977,exp3,2022.2.2,
,,,,,,,,,,,,,,,,,,,,,,,,0,1716,Valid,noise,-45,2,1.588261200056877,1,3.0,2.8959217999945395,True,1,23,A,2023-09-18_14h59.06.977,exp3,2022.2.2,
,,,,,,,,,,,,,,,,,,,,,,,,0,-1158,Valid,noise,-45,2,1.1378674000152387,1,3.0,2.44590450002579,True,1,23,A,2023-09-18_14h59.06.977,exp3,2022.2.2,
,,,,,,,,,,,,,,,,,,,,,,,,0,2274,Valid,signal,-45,2,0.9380127000040375,0,3.0,2.2460245999973267,True,1,23,A,2023-09-18_14h59.06.977,exp3,2022.2.2,
,,,,,,,,,,,,,,,,,,,,,,,,0,-2274,Invalid,noise,45,2,1.4530955999507569,1,2.0,18.70275749999564,True,2,23,A,2023-09-18_14h59.06.977,exp3,2022.2.2,
,,,,,,,,,,,,,,,,,,,,,,,,0,-1158,Invalid,noise,-45,2,1.504574800026603,1,3.0,2.8122954000136815,True,1,23,A,2023-09-18_14h59.06.977,exp3,2022.2.2,
,,,,,,,,,,,,,,,,,,,,,,,,0,-2274,Valid,signal,-45,2,1.4218744999961928,0,3.0,2.7295476000290364,True,1,23,A,2023-09-18_14h59.06.977,exp3,2022.2.2,
,,,,,,,,,,,,,,,,,,,,,,,,0,1158,Valid,noise,45,2,1.0381474000168964,1,4.0,2.345828299992718,True,1,23,A,2023-09-18_14h59.06.977,exp3,2022.2.2,
,,,,,,,,,,,,,,,,,,,,,,,,0,2274,Valid,signal,45,2,1.5050486999680288,0,4.0,2.8126934000174515,True,1,23,A,2023-09-18_14h59.06.977,exp3,2022.2.2,
,,,,,,,,,,,,,,,,,,,,,,,,0,-2274,Valid,noise,-45,2,1.3714222999988124,1,3.0,2.679203299980145,True,1,23,A,2023-09-18_14h59.06.977,exp3,2022.2.2,
,,,,,,,,,,,,,,,,,,,,,,,,0,1716,Valid,noise,-45,2,0.9705185000202619,1,3.0,2.2785369000048377,True,1,23,A,2023-09-18_14h59.06.977,exp3,2022.2.2,
,,,,,,,,,,,,,,,,,,,,,,,,0,-1158,Valid,signal,45,1,1.788182299991604,1,4.0,3.096229700022377,True,1,23,A,2023-09-18_14h59.06.977,exp3,2022.2.2,
,,,,,,,,,,,,,,,,,,,,,,,,0,-1716,Valid,noise,-45,2,1.3552665000315756,1,3.0,2.663127899984829,True,1,23,A,2023-09-18_14h59.06.977,exp3,2022.2.2,
,,,,,,,,,,,,,,,,,,,,,,,,0,-1716,Valid,signal,-45,1,0.9711433000047691,1,4.0,2.2792167000006884,True,1,23,A,2023-09-18_14h59.06.977,exp3,2022.2.2,
,,,,,,,,,,,,,,,,,,,,,,,,0,-1158,Valid,noise,45,2,1.138245000038296,1,3.0,2.446208100009244,True,1,23,A,2023-09-18_14h59.06.977,exp3,2022.2.2,
,,,,,,,,,,,,,,,,,,,,,,,,0,557,Valid,signal,45,1,1.3216421999968588,1,2.0,2.6295542999869213,True,1,23,A,2023-09-18_14h59.06.977,exp3,2022.2.2,
,,,,,,,,,,,,,,,,,,,,,,,,0,1158,Invalid,signal,-45,1,1.788702599995304,1,4.0,3.096554299991112,True,1,23,A,2023-09-18_14h59.06.977,exp3,2022.2.2,
,,,,,,,,,,,,,,,,,,,,,,,,0,-557,Valid,signal,45,2,1.3202365000033751,0,3.0,2.6283681000350043,True,1,23,A,2023-09-18_14h59.06.977,exp3,2022.2.2,
,,,,,,,,,,,,,,,,,,,,,,,,0,2274,Valid,noise,-45,2,2.316757199994754,1,1.0,5.331263100029901,True,2,23,A,2023-09-18_14h59.06.977,exp3,2022.2.2,
,,,,,,,,,,,,,,,,,,,,,,,,0,-2274,Valid,signal,-45,2,1.4715588999679312,0,1.0,2.779408600006718,True,1,23,A,2023-09-18_14h59.06.977,exp3,2022.2.2,
,,,,,,,,,,,,,,,,,,,,,,,,0,-1158,Valid,noise,-45,2,1.1877231000107713,1,1.0,2.495493600028567,True,1,23,A,2023-09-18_14h59.06.977,exp3,2022.2.2,
,,,,,,,,,,,,,,,,,,,,,,,,0,2274,Invalid,signal,-45,2,3.2773290000041015,0,1.0,24.987674199976027,True,2,23,A,2023-09-18_14h59.06.977,exp3,2022.2.2,
,,,,,,,,,,,,,,,,,,,,,,,,0,1158,Valid,signal,45,1,1.2717874000081792,1,3.0,2.5795478000072762,True,1,23,A,2023-09-18_14h59.06.977,exp3,2022.2.2,
,,,,,,,,,,,,,,,,,,,,,,,,0,1158,Valid,signal,-45,1,1.0553116999799386,1,3.0,2.363061200012453,True,1,23,A,2023-09-18_14h59.06.977,exp3,2022.2.2,
,,,,,,,,,,,,,,,,,,,,,,,,0,-557,Valid,noise,45,2,1.087216800020542,1,3.0,2.394998300005682,True,1,23,A,2023-09-18_14h59.06.977,exp3,2022.2.2,
,,,,,,,,,,,,,,,,,,,,,,,,0,-2274,Valid,signal,45,2,1.138768800010439,0,3.0,2.4464683000114746,True,1,23,A,2023-09-18_14h59.06.977,exp3,2022.2.2,
,,,,,,,,,,,,,,,,,,,,,,,,0,-1158,Valid,signal,45,1,0.9708326000254601,1,3.0,2.2782895999844186,True,1,23,A,2023-09-18_14h59.06.977,exp3,2022.2.2,
,,,,,,,,,,,,,,,,,,,,,,,,0,557,Valid,signal,-45,2,1.1216557000298053,0,3.0,2.4294377000187524,True,1,23,A,2023-09-18_14h59.06.977,exp3,2022.2.2,
,,,,,,,,,,,,,,,,,,,,,,,,0,-2274,Valid,noise,45,2,0.9042436999734491,1,3.0,2.2121801000321284,True,1,23,A,2023-09-18_14h59.06.977,exp3,2022.2.2,
,,,,,,,,,,,,,,,,,,,,,,,,0,557,Valid,noise,-45,2,1.1053768999991007,1,3.0,2.4131583999842405,True,1,23,A,2023-09-18_14h59.06.977,exp3,2022.2.2,
,,,,,,,,,,,,,,,,,,,,,,,,0,2274,Valid,noise,-45,2,1.0037919999449514,1,3.0,2.3118105999892578,True,1,23,A,2023-09-18_14h59.06.977,exp3,2022.2.2,
,,,,,,,,,,,,,,,,,,,,,,,,0,1158,Valid,signal,45,1,1.2880171000142582,1,3.0,2.596135800005868,True,1,23,A,2023-09-18_14h59.06.977,exp3,2022.2.2,
,,,,,,,,,,,,,,,,,,,,,,,,0,1158,Valid,noise,45,2,0.9218203999917023,1,3.0,2.2297213999554515,True,1,23,A,2023-09-18_14h59.06.977,exp3,2022.2.2,
,,,,,,,,,,,,,,,,,,,,,,,,0,-1716,Valid,noise,45,2,0.9378203999949619,1,3.0,2.2455890999990515,True,1,23,A,2023-09-18_14h59.06.977,exp3,2022.2.2,
,,,,,,,,,,,,,,,,,,,,,,,,0,557,Invalid,noise,45,2,0.8714299999992363,1,3.0,2.1790740999858826,True,1,23,A,2023-09-18_14h59.06.977,exp3,2022.2.2,
,,,,,,,,,,,,,,,,,,,,,,,,0,1716,Valid,noise,45,2,1.171095099998638,1,3.0,2.4789718000101857,True,1,23,A,2023-09-18_14h59.06.977,exp3,2022.2.2,
,,,,,,,,,,,,,,,,,,,,,,,,0,557,Valid,signal,45,2,0.8379838000400923,0,3.0,2.1458280999795534,True,1,23,A,2023-09-18_14h59.06.977,exp3,2022.2.2,
,,,,,,,,,,,,,,,,,,,,,,,,0,1158,Invalid,signal,45,2,0.9371184000046924,0,3.0,2.245124700013548,True,1,23,A,2023-09-18_14h59.06.977,exp3,2022.2.2,
,,,,,,,,,,,,,,,,,,,,,,,,0,-2274,Valid,noise,45,2,1.672197400010191,1,4.0,2.9799461999791674,True,1,23,A,2023-09-18_14h59.06.977,exp3,2022.2.2,
,,,,,,,,,,,,,,,,,,,,,,,,0,-1158,Valid,signal,-45,1,0.9375366999884136,1,3.0,2.2454911999520846,True,1,23,A,2023-09-18_14h59.06.977,exp3,2022.2.2,
,,,,,,,,,,,,,,,,,,,,,,,,0,557,Valid,signal,45,2,1.1049455999745987,0,3.0,2.4126558999996632,True,1,23,A,2023-09-18_14h59.06.977,exp3,2022.2.2,
,,,,,,,,,,,,,,,,,,,,,,,,0,2274,Valid,signal,-45,2,1.238075100001879,0,2.0,2.545882700011134,True,1,23,A,2023-09-18_14h59.06.977,exp3,2022.2.2,
,,,,,,,,,,,,,,,,,,,,,,,,0,-557,Valid,noise,-45,2,0.9054011999978684,1,3.0,2.213164900022093,True,1,23,A,2023-09-18_14h59.06.977,exp3,2022.2.2,
,,,,,,,,,,,,,,,,,,,,,,,,0,1716,Invalid,noise,45,2,0.7538360999897122,1,2.0,2.0619175999891013,True,1,23,A,2023-09-18_14h59.06.977,exp3,2022.2.2,
,,,,,,,,,,,,,,,,,,,,,,,,0,-1158,Invalid,signal,-45,1,1.8219790000002831,1,4.0,3.1298980999854393,True,1,23,A,2023-09-18_14h59.06.977,exp3,2022.2.2,
,,,,,,,,,,,,,,,,,,,,,,,,0,1158,Valid,noise,-45,2,1.5046296999789774,1,3.0,2.8123775999993086,True,1,23,A,2023-09-18_14h59.06.977,exp3,2022.2.2,
,,,,,,,,,,,,,,,,,,,,,,,,0,2274,Invalid,signal,45,2,1.571781100006774,0,3.0,2.879783399985172,True,1,23,A,2023-09-18_14h59.06.977,exp3,2022.2.2,
,,,,,,,,,,,,,,,,,,,,,,,,0,1158,Invalid,noise,-45,2,1.004379499994684,1,3.0,2.3121252999990247,True,1,23,A,2023-09-18_14h59.06.977,exp3,2022.2.2,
,,,,,,,,,,,,,,,,,,,,,,,,0,-2274,Valid,noise,-45,2,1.423980500025209,1,1.0,4.513394400011748,True,2,23,A,2023-09-18_14h59.06.977,exp3,2022.2.2,
,,,,,,,,,,,,,,,,,,,,,,,,0,-1716,Invalid,signal,45,1,1.3880966999568045,1,3.0,2.6960362000390887,True,1,23,A,2023-09-18_14h59.06.977,exp3,2022.2.2,
,,,,,,,,,,,,,,,,,,,,,,,,0,557,Valid,noise,-45,2,1.0374783999868669,1,3.0,2.3453319999971427,True,1,23,A,2023-09-18_14h59.06.977,exp3,2022.2.2,
,,,,,,,,,,,,,,,,,,,,,,,,0,2274,Valid,noise,-45,2,0.8548930999822915,1,3.0,2.1627261000103317,True,1,23,A,2023-09-18_14h59.06.977,exp3,2022.2.2,
,,,,,,,,,,,,,,,,,,,,,,,,0,-2274,Valid,signal,-45,2,1.1381265000090934,0,3.0,2.446349000034388,True,1,23,A,2023-09-18_14h59.06.977,exp3,2022.2.2,
,,,,,,,,,,,,,,,,,,,,,,,,0,1158,Invalid,noise,45,1,12.959356300008949,0,1.0,14.26703320001252,True,1,23,A,2023-09-18_14h59.06.977,exp3,2022.2.2,
,,,,,,,,,,,,,,,,,,,,,,,,0,-2274,Valid,noise,45,2,3.4336291000363417,1,3.0,88.01181930000894,True,13,23,A,2023-09-18_14h59.06.977,exp3,2022.2.2,
,,,,,,,,,,,,,,,,,,,,,,,,0,-557,Invalid,signal,45,2,3.255631699983496,0,3.0,4.563489699969068,True,1,23,A,2023-09-18_14h59.06.977,exp3,2022.2.2,
,,,,,,,,,,,,,,,,,,,,,,,,0,2274,Invalid,noise,-45,2,2.471778800012544,1,3.0,3.779836100002285,True,1,23,A,2023-09-18_14h59.06.977,exp3,2022.2.2,
,,,,,,,,,,,,,,,,,,,,,,,,0,1158,Valid,signal,45,1,2.1221571000060067,1,3.0,3.4302115999744274,True,1,23,A,2023-09-18_14h59.06.977,exp3,2022.2.2,
,,,,,,,,,,,,,,,,,,,,,,,,0,1716,Valid,signal,-45,1,2.27124279999407,1,2.0,3.579015300027095,True,1,23,A,2023-09-18_14h59.06.977,exp3,2022.2.2,
,,,,,,,,,,,,,,,,,,,,,,,,0,-2274,Invalid,noise,-45,2,2.522188199975062,1,3.0,3.8301879999926314,True,1,23,A,2023-09-18_14h59.06.977,exp3,2022.2.2,
,,,,,,,,,,,,,,,,,,,,,,,,0,2274,Valid,signal,-45,2,2.2882896999944933,0,2.0,3.5963321999879554,True,1,23,A,2023-09-18_14h59.06.977,exp3,2022.2.2,
,,,,,,,,,,,,,,,,,,,,,,,,0,-557,Valid,signal,-45,2,2.038858700019773,0,4.0,3.3466140999807976,True,1,23,A,2023-09-18_14h59.06.977,exp3,2022.2.2,
,,,,,,,,,,,,,,,,,,,,,,,,0,-1716,Valid,signal,45,2,3.3051475000102073,0,1.0,4.613073300046381,True,1,23,A,2023-09-18_14h59.06.977,exp3,2022.2.2,
,,,,,,,,,,,,,,,,,,,,,,,,0,-1158,Valid,signal,45,1,2.389220699958969,1,3.0,3.697022999986075,True,1,23,A,2023-09-18_14h59.06.977,exp3,2022.2.2,
,,,,,,,,,,,,,,,,,,,,,,,,0,-1158,Invalid,noise,-45,2,2.4384295000345446,1,3.0,3.7462508999742568,True,1,23,A,2023-09-18_14h59.06.977,exp3,2022.2.2,
,,,,,,,,,,,,,,,,,,,,,,,,0,2274,Valid,signal,45,2,2.305428199993912,0,2.0,3.613120299996808,True,1,23,A,2023-09-18_14h59.06.977,exp3,2022.2.2,
,,,,,,,,,,,,,,,,,,,,,,,,0,-557,Valid,signal,45,2,2.4712897000135854,0,3.0,3.779359199979808,True,1,23,A,2023-09-18_14h59.06.977,exp3,2022.2.2,
,,,,,,,,,,,,,,,,,,,,,,,,0,-557,Valid,signal,45,2,1.5048668999806978,0,2.0,2.812852400005795,True,1,23,A,2023-09-18_14h59.06.977,exp3,2022.2.2,
,,,,,,,,,,,,,,,,,,,,,,,,0,-1716,Valid,noise,-45,2,2.6225716000190005,1,3.0,3.9301412000204436,True,1,23,A,2023-09-18_14h59.06.977,exp3,2022.2.2,
,,,,,,,,,,,,,,,,,,,,,,,,0,2274,Valid,noise,45,1,1.3878707999829203,0,3.0,2.6957950000069104,True,1,23,A,2023-09-18_14h59.06.977,exp3,2022.2.2,
,,,,,,,,,,,,,,,,,,,,,,,,0,-557,Invalid,signal,-45,2,1.1884488000068814,0,3.0,2.496192999999039,True,1,23,A,2023-09-18_14h59.06.977,exp3,2022.2.2,
,,,,,,,,,,,,,,,,,,,,,,,,0,1158,Valid,signal,-45,1,1.0549043000210077,1,4.0,2.362486199999694,True,1,23,A,2023-09-18_14h59.06.977,exp3,2022.2.2,
,,,,,,,,,,,,,,,,,,,,,,,,0,2274,Valid,noise,-45,2,1.0043357000104152,1,3.0,2.31268050003564,True,1,23,A,2023-09-18_14h59.06.977,exp3,2022.2.2,
,,,,,,,,,,,,,,,,,,,,,,,,0,-2274,Invalid,signal,-45,2,1.0875414000474848,0,1.0,2.3953161999816075,True,1,23,A,2023-09-18_14h59.06.977,exp3,2022.2.2,
,,,,,,,,,,,,,,,,,,,,,,,,0,-557,Valid,signal,-45,2,1.3714956000330858,0,2.0,2.679268999956548,True,1,23,A,2023-09-18_14h59.06.977,exp3,2022.2.2,
,,,,,,,,,,,,,,,,,,,,,,,,0,1716,Valid,signal,-45,1,1.2881858999608085,1,3.0,2.596141499991063,True,1,23,A,2023-09-18_14h59.06.977,exp3,2022.2.2,
,,,,,,,,,,,,,,,,,,,,,,,,0,557,Valid,signal,-45,2,0.9541309000342153,0,3.0,2.2620507999672554,True,1,23,A,2023-09-18_14h59.06.977,exp3,2022.2.2,
,,,,,,,,,,,,,,,,,,,,,,,,0,1716,Invalid,signal,-45,1,1.2718743000295945,1,3.0,2.5797766000032425,True,1,23,A,2023-09-18_14h59.06.977,exp3,2022.2.2,
,,,,,,,,,,,,,,,,,,,,,,,,0,557,Valid,signal,-45,2,0.8719551999820396,0,3.0,2.1796960000065155,True,1,23,A,2023-09-18_14h59.06.977,exp3,2022.2.2,
,,,,,,,,,,,,,,,,,,,,,,,,0,1158,Valid,signal,-45,1,0.8045745000126772,1,3.0,2.112140199984424,True,1,23,A,2023-09-18_14h59.06.977,exp3,2022.2.2,
,,,,,,,,,,,,,,,,,,,,,,,,0,-1158,Valid,noise,45,2,0.7706785000045784,1,3.0,2.0787062000017613,True,1,23,A,2023-09-18_14h59.06.977,exp3,2022.2.2,
,,,,,,,,,,,,,,,,,,,,,,,,0,-1158,Valid,noise,-45,2,0.8210243000066839,1,3.0,2.129057800048031,True,1,23,A,2023-09-18_14h59.06.977,exp3,2022.2.2,
,,,,,,,,,,,,,,,,,,,,,,,,0,-1158,Valid,noise,45,2,0.9046727999811992,1,3.0,2.2126195000018924,True,1,23,A,2023-09-18_14h59.06.977,exp3,2022.2.2,
,,,,,,,,,,,,,,,,,,,,,,,,0,1158,Valid,noise,-45,2,0.7881574000348337,1,3.0,2.0959046999923885,True,1,23,A,2023-09-18_14h59.06.977,exp3,2022.2.2,
,,,,,,,,,,,,,,,,,,,,,,,,0,2274,Valid,noise,-45,2,0.8209180000121705,1,3.0,2.1289207999943756,True,1,23,A,2023-09-18_14h59.06.977,exp3,2022.2.2,
,,,,,,,,,,,,,,,,,,,,,,,,0,-1158,Valid,signal,45,1,0.838469099951908,1,3.0,2.146322100015823,True,1,23,A,2023-09-18_14h59.06.977,exp3,2022.2.2,
,,,,,,,,,,,,,,,,,,,,,,,,0,1716,Invalid,signal,-45,1,1.5878668999648653,1,1.0,2.8958135999855585,True,1,23,A,2023-09-18_14h59.06.977,exp3,2022.2.2,
,,,,,,,,,,,,,,,,,,,,,,,,0,1716,Valid,noise,-45,2,1.972605199960526,1,4.0,3.280399799987208,True,1,23,A,2023-09-18_14h59.06.977,exp3,2022.2.2,
,,,,,,,,,,,,,,,,,,,,,,,,0,-557,Valid,noise,-45,2,0.8545658999937586,1,3.0,2.1621936000301503,True,1,23,A,2023-09-18_14h59.06.977,exp3,2022.2.2,
,,,,,,,,,,,,,,,,,,,,,,,,0,-1158,Valid,noise,-45,2,0.787494299991522,1,3.0,2.0953359000268392,True,1,23,A,2023-09-18_14h59.06.977,exp3,2022.2.2,
,,,,,,,,,,,,,,,,,,,,,,,,0,-2274,Valid,signal,45,2,2.055028000031598,0,1.0,3.3630926000187173,True,1,23,A,2023-09-18_14h59.06.977,exp3,2022.2.2,
,,,,,,,,,,,,,,,,,,,,,,,,0,2274,Valid,signal,-45,2,0.8883806000230834,0,1.0,2.1961219999939203,True,1,23,A,2023-09-18_14h59.06.977,exp3,2022.2.2,
,,,,,,,,,,,,,,,,,,,,,,,,0,-2274,Valid,signal,-45,2,1.9217275000410154,0,1.0,3.2298037000000477,True,1,23,A,2023-09-18_14h59.06.977,exp3,2022.2.2,
,,,,,,,,,,,,,,,,,,,,,,,,0,-2274,Valid,signal,-45,2,2.018005199963227,0,1.0,4.9462746999925,True,2,23,A,2023-09-18_14h59.06.977,exp3,2022.2.2,
,,,,,,,,,,,,,,,,,,,,,,,,0,-1716,Invalid,noise,45,2,2.388511600031052,1,1.0,3.696536700008437,True,1,23,A,2023-09-18_14h59.06.977,exp3,2022.2.2,
,,,,,,,,,,,,,,,,,,,,,,,,0,-1158,Valid,signal,-45,1,1.2051711999811232,1,1.0,2.5131319999927655,True,1,23,A,2023-09-18_14h59.06.977,exp3,2022.2.2,
,,,,,,,,,,,,,,,,,,,,,,,,0,557,Valid,signal,45,1,1.9880266999825835,1,1.0,3.2959463000297546,True,1,23,A,2023-09-18_14h59.06.977,exp3,2022.2.2,
,,,,,,,,,,,,,,,,,,,,,,,,1,-2274,Valid,noise,-45,2,5.57241999998223,1,3.0,6.880523700034246,True,1,23,A,2023-09-18_14h59.06.977,exp3,2022.2.2,
,,,,,,,,,,,,,,,,,,,,,,,,2,-1158,Valid,signal,-45,1,2.5013510000426322,1,2.0,3.812160599976778,True,1,23,A,2023-09-18_14h59.06.977,exp3,2022.2.2,
,,,,,,,,,,,,,,,,,,,,,,,,3,2274,Valid,noise,45,2,1.6048574000014924,1,2.0,2.9130919000017457,True,1,23,A,2023-09-18_14h59.06.977,exp3,2022.2.2,
,,,,,,,,,,,,,,,,,,,,,,,,4,-557,Valid,noise,45,2,1.554716999991797,1,2.0,2.863016300019808,True,1,23,A,2023-09-18_14h59.06.977,exp3,2022.2.2,
,,,,,,,,,,,,,,,,,,,,,,,,5,1716,Valid,signal,45,1,2.820960799988825,1,3.0,4.129745999991428,True,1,23,A,2023-09-18_14h59.06.977,exp3,2022.2.2,
,,,,,,,,,,,,,,,,,,,,,,,,6,-1158,Valid,signal,-45,1,1.9383765999809839,1,2.0,3.246664799982682,True,1,23,A,2023-09-18_14h59.06.977,exp3,2022.2.2,
,,,,,,,,,,,,,,,,,,,,,,,,7,1158,Valid,signal,45,1,1.1379073000280187,1,3.0,2.446040600014385,True,1,23,A,2023-09-18_14h59.06.977,exp3,2022.2.2,
,,,,,,,,,,,,,,,,,,,,,,,,8,557,Valid,noise,-45,2,1.3712401000084355,1,3.0,2.6792455000104383,True,1,23,A,2023-09-18_14h59.06.977,exp3,2022.2.2,
,,,,,,,,,,,,,,,,,,,,,,,,9,2274,Valid,signal,45,2,1.171457799966447,0,3.0,2.47951470001135,True,1,23,A,2023-09-18_14h59.06.977,exp3,2022.2.2,
,,,,,,,,,,,,,,,,,,,,,,,,10,-557,Valid,signal,-45,2,2.438113500014879,0,3.0,3.746400900010485,True,1,23,A,2023-09-18_14h59.06.977,exp3,2022.2.2,
,,,,,,,,,,,,,,,,,,,,,,,,11,1716,Invalid,signal,45,1,1.504084900021553,1,4.0,2.81251139997039,True,1,23,A,2023-09-18_14h59.06.977,exp3,2022.2.2,
,,,,,,,,,,,,,,,,,,,,,,,,12,-1158,Valid,signal,-45,1,1.4378615000168793,1,4.0,2.7459269000100903,True,1,23,A,2023-09-18_14h59.06.977,exp3,2022.2.2,
,,,,,,,,,,,,,,,,,,,,,,,,13,1716,Valid,signal,-45,1,1.0042599000153132,1,3.0,2.3126205000444315,True,1,23,A,2023-09-18_14h59.06.977,exp3,2022.2.2,
,,,,,,,,,,,,,,,,,,,,,,,,14,-2274,Valid,noise,45,2,1.4713929999852553,1,3.0,2.7794937000144273,True,1,23,A,2023-09-18_14h59.06.977,exp3,2022.2.2,
,,,,,,,,,,,,,,,,,,,,,,,,15,-557,Valid,signal,45,2,1.2376928000012413,0,3.0,2.5460338999982923,True,1,23,A,2023-09-18_14h59.06.977,exp3,2022.2.2,
,,,,,,,,,,,,,,,,,,,,,,,,16,2274,Valid,noise,45,2,0.937239299993962,1,3.0,2.245837400027085,True,1,23,A,2023-09-18_14h59.06.977,exp3,2022.2.2,
,,,,,,,,,,,,,,,,,,,,,,,,17,-2274,Valid,signal,-45,2,0.9714682000339963,0,4.0,2.279433300020173,True,1,23,A,2023-09-18_14h59.06.977,exp3,2022.2.2,
,,,,,,,,,,,,,,,,,,,,,,,,18,-2274,Valid,noise,-45,2,0.7705394999939017,1,4.0,2.0787189999828115,True,1,23,A,2023-09-18_14h59.06.977,exp3,2022.2.2,
,,,,,,,,,,,,,,,,,,,,,,,,19,-557,Valid,noise,-45,2,0.8711115000187419,1,3.0,2.179171200026758,True,1,23,A,2023-09-18_14h59.06.977,exp3,2022.2.2,
,,,,,,,,,,,,,,,,,,,,,,,,20,1158,Invalid,noise,-45,2,0.9046037000371143,1,3.0,2.2127132000168785,True,1,23,A,2023-09-18_14h59.06.977,exp3,2022.2.2,
,,,,,,,,,,,,,,,,,,,,,,,,21,557,Valid,signal,-45,2,1.2216472000000067,0,4.0,2.5296798999770544,True,1,23,A,2023-09-18_14h59.06.977,exp3,2022.2.2,
,,,,,,,,,,,,,,,,,,,,,,,,22,557,Valid,noise,45,2,1.9492794999969192,1,3.0,4.913912900025025,True,2,23,A,2023-09-18_14h59.06.977,exp3,2022.2.2,
,,,,,,,,,,,,,,,,,,,,,,,,23,-1716,Valid,noise,-45,2,0.8210119000286795,1,3.0,2.129112399998121,True,1,23,A,2023-09-18_14h59.06.977,exp3,2022.2.2,
,,,,,,,,,,,,,,,,,,,,,,,,24,1716,Valid,noise,-45,2,1.187222299980931,1,3.0,2.495430600014515,True,1,23,A,2023-09-18_14h59.06.977,exp3,2022.2.2,
,,,,,,,,,,,,,,,,,,,,,,,,25,-1716,Valid,noise,-45,2,1.371081899967976,1,3.0,2.6794936999795027,True,1,23,A,2023-09-18_14h59.06.977,exp3,2022.2.2,
,,,,,,,,,,,,,,,,,,,,,,,,26,-1716,Valid,noise,45,2,1.0873172999708913,1,3.0,2.395523499988485,True,1,23,A,2023-09-18_14h59.06.977,exp3,2022.2.2,
,,,,,,,,,,,,,,,,,,,,,,,,27,-557,Valid,signal,-45,2,1.9884391000377946,0,3.0,3.296914000005927,True,1,23,A,2023-09-18_14h59.06.977,exp3,2022.2.2,
,,,,,,,,,,,,,,,,,,,,,,,,28,-557,Valid,noise,-45,2,0.9205029999720864,1,3.0,2.2290514999767765,True,1,23,A,2023-09-18_14h59.06.977,exp3,2022.2.2,
,,,,,,,,,,,,,,,,,,,,,,,,29,2274,Valid,signal,-45,2,0.9594032000168227,0,3.0,4.763366999977734,True,2,23,A,2023-09-18_14h59.06.977,exp3,2022.2.2,
,,,,,,,,,,,,,,,,,,,,,,,,30,-1158,Invalid,signal,45,1,1.5719813999603502,1,4.0,2.880195999983698,True,1,23,A,2023-09-18_14h59.06.977,exp3,2022.2.2,
,,,,,,,,,,,,,,,,,,,,,,,,31,2274,Valid,noise,-45,2,1.7711829000036232,1,4.0,3.079325400001835,True,1,23,A,2023-09-18_14h59.06.977,exp3,2022.2.2,
,,,,,,,,,,,,,,,,,,,,,,,,32,-2274,Valid,noise,-45,2,1.9375725999707356,1,1.0,3.246002900006715,True,1,23,A,2023-09-18_14h59.06.977,exp3,2022.2.2,
,,,,,,,,,,,,,,,,,,,,,,,,33,1158,Valid,signal,45,1,1.4210645999992266,1,3.0,2.7292159000062384,True,1,23,A,2023-09-18_14h59.06.977,exp3,2022.2.2,
,,,,,,,,,,,,,,,,,,,,,,,,34,1716,Valid,noise,45,2,0.9541757999686524,1,3.0,2.2624916000058874,True,1,23,A,2023-09-18_14h59.06.977,exp3,2022.2.2,
,,,,,,,,,,,,,,,,,,,,,,,,35,1158,Valid,noise,45,2,1.1554263000143692,1,3.0,2.463359000044875,True,1,23,A,2023-09-18_14h59.06.977,exp3,2022.2.2,
,,,,,,,,,,,,,,,,,,,,,,,,36,-557,Valid,signal,-45,2,1.1370055999723263,0,3.0,2.445236300001852,True,1,23,A,2023-09-18_14h59.06.977,exp3,2022.2.2,
,,,,,,,,,,,,,,,,,,,,,,,,37,1716,Invalid,signal,-45,2,2.5216497000074014,0,1.0,3.8301061000092886,True,1,23,A,2023-09-18_14h59.06.977,exp3,2022.2.2,
,,,,,,,,,,,,,,,,,,,,,,,,38,-1158,Valid,noise,45,2,1.0875964000006206,1,3.0,2.395789899979718,True,1,23,A,2023-09-18_14h59.06.977,exp3,2022.2.2,
,,,,,,,,,,,,,,,,,,,,,,,,39,-1716,Valid,noise,-45,2,0.8540821999777108,1,3.0,2.1626602000324056,True,1,23,A,2023-09-18_14h59.06.977,exp3,2022.2.2,
,,,,,,,,,,,,,,,,,,,,,,,,40,-557,Valid,signal,-45,2,0.9209678000188433,0,3.0,2.2291975000407547,True,1,23,A,2023-09-18_14h59.06.977,exp3,2022.2.2,
,,,,,,,,,,,,,,,,,,,,,,,,41,-557,Valid,signal,-45,2,0.8709847000427544,0,3.0,2.179254700022284,True,1,23,A,2023-09-18_14h59.06.977,exp3,2022.2.2,
,,,,,,,,,,,,,,,,,,,,,,,,42,2274,Valid,signal,-45,2,1.4043658999726176,0,3.0,2.712582400010433,True,1,23,A,2023-09-18_14h59.06.977,exp3,2022.2.2,
,,,,,,,,,,,,,,,,,,,,,,,,43,2274,Valid,noise,-45,2,0.8717558999778703,1,3.0,2.1796760000288486,True,1,23,A,2023-09-18_14h59.06.977,exp3,2022.2.2,
,,,,,,,,,,,,,,,,,,,,,,,,44,557,Valid,signal,-45,2,1.608721999975387,0,2.0,4.996850800001994,True,2,23,A,2023-09-18_14h59.06.977,exp3,2022.2.2,
,,,,,,,,,,,,,,,,,,,,,,,,45,-2274,Valid,signal,45,2,1.1874204999767244,0,1.0,2.495693899982143,True,1,23,A,2023-09-18_14h59.06.977,exp3,2022.2.2,
,,,,,,,,,,,,,,,,,,,,,,,,46,557,Valid,signal,-45,2,1.1217909999541007,0,1.0,2.4297607999760658,True,1,23,A,2023-09-18_14h59.06.977,exp3,2022.2.2,
,,,,,,,,,,,,,,,,,,,,,,,,47,-1158,Valid,noise,-45,2,0.9207429999951273,1,3.0,2.2288213000283577,True,1,23,A,2023-09-18_14h59.06.977,exp3,2022.2.2,
,,,,,,,,,,,,,,,,,,,,,,,,48,-2274,Valid,signal,45,2,2.1365233999677002,0,4.0,5.046603099966887,True,2,23,A,2023-09-18_14h59.06.977,exp3,2022.2.2,
,,,,,,,,,,,,,,,,,,,,,,,,49,-1716,Invalid,signal,-45,2,1.7708135999855585,0,3.0,3.079157200001646,True,1,23,A,2023-09-18_14h59.06.977,exp3,2022.2.2,
,,,,,,,,,,,,,,,,,,,,,,,,50,-1158,Valid,signal,-45,1,1.0875332999858074,1,3.0,2.396052800002508,True,1,23,A,2023-09-18_14h59.06.977,exp3,2022.2.2,
,,,,,,,,,,,,,,,,,,,,,,,,51,1716,Valid,signal,-45,1,1.104649499990046,1,3.0,2.4125981999677606,True,1,23,A,2023-09-18_14h59.06.977,exp3,2022.2.2,
,,,,,,,,,,,,,,,,,,,,,,,,52,-1716,Invalid,signal,-45,2,1.0216164999874309,0,3.0,2.32967780000763,True,1,23,A,2023-09-18_14h59.06.977,exp3,2022.2.2,
,,,,,,,,,,,,,,,,,,,,,,,,53,1716,Valid,noise,45,2,0.8873835999984294,1,3.0,2.1953521000104956,True,1,23,A,2023-09-18_14h59.06.977,exp3,2022.2.2,
,,,,,,,,,,,,,,,,,,,,,,,,54,-1158,Valid,signal,45,1,0.95436149998568,1,4.0,2.262400900013745,True,1,23,A,2023-09-18_14h59.06.977,exp3,2022.2.2,
,,,,,,,,,,,,,,,,,,,,,,,,55,-557,Valid,signal,-45,1,1.4541342000011355,1,4.0,2.76248089998262,True,1,23,A,2023-09-18_14h59.06.977,exp3,2022.2.2,
,,,,,,,,,,,,,,,,,,,,,,,,56,557,Valid,noise,45,2,1.1207881000009365,1,3.0,2.429180000035558,True,1,23,A,2023-09-18_14h59.06.977,exp3,2022.2.2,
,,,,,,,,,,,,,,,,,,,,,,,,57,557,Valid,noise,45,2,0.8712644000188448,1,3.0,2.1794252999825403,True,1,23,A,2023-09-18_14h59.06.977,exp3,2022.2.2,
,,,,,,,,,,,,,,,,,,,,,,,,58,2274,Valid,noise,45,2,0.937388300022576,1,4.0,2.2454023999744095,True,1,23,A,2023-09-18_14h59.06.977,exp3,2022.2.2,
,,,,,,,,,,,,,,,,,,,,,,,,59,-1158,Valid,signal,45,1,0.9882113000494428,1,4.0,2.296336400031578,True,1,23,A,2023-09-18_14h59.06.977,exp3,2022.2.2,
,,,,,,,,,,,,,,,,,,,,,,,,60,1716,Valid,noise,45,2,1.004042600048706,1,4.0,2.312184199981857,True,1,23,A,2023-09-18_14h59.06.977,exp3,2022.2.2,
,,,,,,,,,,,,,,,,,,,,,,,,61,1716,Invalid,noise,45,2,1.3377372999675572,1,3.0,2.6458520999876782,True,1,23,A,2023-09-18_14h59.06.977,exp3,2022.2.2,
,,,,,,,,,,,,,,,,,,,,,,,,62,-1716,Valid,signal,-45,1,0.9543459999840707,1,4.0,2.2627090999740176,True,1,23,A,2023-09-18_14h59.06.977,exp3,2022.2.2,
,,,,,,,,,,,,,,,,,,,,,,,,63,557,Valid,signal,45,1,1.7217147999908775,1,3.0,3.0298096999758855,True,1,23,A,2023-09-18_14h59.06.977,exp3,2022.2.2,
,,,,,,,,,,,,,,,,,,,,,,,,64,557,Valid,noise,45,2,1.0202457999694161,1,3.0,2.3285035000299104,True,1,23,A,2023-09-18_14h59.06.977,exp3,2022.2.2,
,,,,,,,,,,,,,,,,,,,,,,,,65,1716,Valid,noise,-45,2,1.8050590000348166,1,4.0,3.113151099998504,True,1,23,A,2023-09-18_14h59.06.977,exp3,2022.2.2,
,,,,,,,,,,,,,,,,,,,,,,,,66,1716,Valid,signal,-45,1,1.1373947000247426,1,4.0,2.4457087999908254,True,1,23,A,2023-09-18_14h59.06.977,exp3,2022.2.2,
,,,,,,,,,,,,,,,,,,,,,,,,67,-1716,Valid,signal,-45,1,0.9882041000528261,1,4.0,2.2963068000390194,True,1,23,A,2023-09-18_14h59.06.977,exp3,2022.2.2,
,,,,,,,,,,,,,,,,,,,,,,,,68,2274,Valid,noise,45,2,1.2039319000323303,1,4.0,2.5122046999749728,True,1,23,A,2023-09-18_14h59.06.977,exp3,2022.2.2,
,,,,,,,,,,,,,,,,,,,,,,,,69,-557,Valid,noise,-45,2,0.8381330000120215,1,4.0,2.146319100051187,True,1,23,A,2023-09-18_14h59.06.977,exp3,2022.2.2,
,,,,,,,,,,,,,,,,,,,,,,,,70,2274,Valid,noise,-45,2,0.8706874999916181,1,4.0,2.1789201999781653,True,1,23,A,2023-09-18_14h59.06.977,exp3,2022.2.2,
,,,,,,,,,,,,,,,,,,,,,,,,71,-557,Valid,noise,-45,2,0.7883169000269845,1,4.0,2.0963673999649473,True,1,23,A,2023-09-18_14h59.06.977,exp3,2022.2.2,
,,,,,,,,,,,,,,,,,,,,,,,,72,2274,Invalid,noise,45,2,0.8375556000391953,1,3.0,2.1456955000176094,True,1,23,A,2023-09-18_14h59.06.977,exp3,2022.2.2,
,,,,,,,,,,,,,,,,,,,,,,,,73,1158,Valid,noise,-45,2,0.7538409999688156,1,3.0,2.0620261000003666,True,1,23,A,2023-09-18_14h59.06.977,exp3,2022.2.2,
,,,,,,,,,,,,,,,,,,,,,,,,74,-1716,Invalid,noise,45,2,0.7540991000132635,1,3.0,2.062404799973592,True,1,23,A,2023-09-18_14h59.06.977,exp3,2022.2.2,
,,,,,,,,,,,,,,,,,,,,,,,,75,-557,Valid,signal,45,2,1.7714445000165142,0,4.0,3.079593800008297,True,1,23,A,2023-09-18_14h59.06.977,exp3,2022.2.2,
,,,,,,,,,,,,,,,,,,,,,,,,76,1158,Invalid,signal,-45,1,1.1370437999721617,1,4.0,2.4453242999734357,True,1,23,A,2023-09-18_14h59.06.977,exp3,2022.2.2,
,,,,,,,,,,,,,,,,,,,,,,,,77,-1158,Valid,noise,45,2,0.8208490000106394,1,4.0,2.1291756000136957,True,1,23,A,2023-09-18_14h59.06.977,exp3,2022.2.2,
,,,,,,,,,,,,,,,,,,,,,,,,78,1158,Valid,noise,-45,2,1.2881401000195183,1,4.0,2.5964145999751054,True,1,23,A,2023-09-18_14h59.06.977,exp3,2022.2.2,
,,,,,,,,,,,,,,,,,,,,,,,,79,-1716,Valid,noise,45,2,0.9716270999633707,1,4.0,2.2797018000273965,True,1,23,A,2023-09-18_14h59.06.977,exp3,2022.2.2,
,,,,,,,,,,,,,,,,,,,,,,,,80,-1158,Valid,signal,-45,1,1.203815700020641,1,4.0,2.5122222000500187,True,1,23,A,2023-09-18_14h59.06.977,exp3,2022.2.2,
,,,,,,,,,,,,,,,,,,,,,,,,81,557,Valid,signal,45,2,0.7873838999657892,0,4.0,2.0957771000103094,True,1,23,A,2023-09-18_14h59.06.977,exp3,2022.2.2,
,,,,,,,,,,,,,,,,,,,,,,,,82,557,Invalid,signal,-45,2,1.204108800040558,0,3.0,2.512414099997841,True,1,23,A,2023-09-18_14h59.06.977,exp3,2022.2.2,
,,,,,,,,,,,,,,,,,,,,,,,,83,-2274,Valid,noise,-45,2,0.9378672000020742,1,4.0,2.2464422999764793,True,1,23,A,2023-09-18_14h59.06.977,exp3,2022.2.2,
,,,,,,,,,,,,,,,,,,,,,,,,84,1158,Valid,noise,45,2,1.0709209999768063,1,4.0,2.3791842999635264,True,1,23,A,2023-09-18_14h59.06.977,exp3,2022.2.2,
,,,,,,,,,,,,,,,,,,,,,,,,85,-1158,Invalid,noise,45,2,0.9878824999905191,1,4.0,2.296038100030273,True,1,23,A,2023-09-18_14h59.06.977,exp3,2022.2.2,
,,,,,,,,,,,,,,,,,,,,,,,,86,-1158,Valid,noise,45,2,1.0876503000035882,1,3.0,2.3958247000118718,True,1,23,A,2023-09-18_14h59.06.977,exp3,2022.2.2,
,,,,,,,,,,,,,,,,,,,,,,,,87,-557,Valid,noise,45,2,0.8548408999922685,1,4.0,2.1628925999975763,True,1,23,A,2023-09-18_14h59.06.977,exp3,2022.2.2,
,,,,,,,,,,,,,,,,,,,,,,,,88,1158,Valid,signal,45,1,1.470738000003621,1,4.0,2.7792628000024706,True,1,23,A,2023-09-18_14h59.06.977,exp3,2022.2.2,
,,,,,,,,,,,,,,,,,,,,,,,,89,1716,Valid,signal,45,1,0.7540182000375353,1,3.0,2.0621969000203535,True,1,23,A,2023-09-18_14h59.06.977,exp3,2022.2.2,
,,,,,,,,,,,,,,,,,,,,,,,,90,-2274,Valid,signal,-45,2,0.8714551000157371,0,3.0,2.179525099985767,True,1,23,A,2023-09-18_14h59.06.977,exp3,2022.2.2,
,,,,,,,,,,,,,,,,,,,,,,,,91,-2274,Valid,noise,45,2,1.2046358999796212,1,3.0,2.5127448000130244,True,1,23,A,2023-09-18_14h59.06.977,exp3,2022.2.2,
,,,,,,,,,,,,,,,,,,,,,,,,92,2274,Valid,noise,-45,2,1.1037439000210725,1,4.0,2.4119811999844387,True,1,23,A,2023-09-18_14h59.06.977,exp3,2022.2.2,
,,,,,,,,,,,,,,,,,,,,,,,,93,-1716,Valid,noise,-45,2,0.8548615999752656,1,3.0,2.1628810000256635,True,1,23,A,2023-09-18_14h59.06.977,exp3,2022.2.2,
,,,,,,,,,,,,,,,,,,,,,,,,94,2274,Valid,signal,45,2,1.3437475999817252,0,3.0,4.213351599988528,True,2,23,A,2023-09-18_14h59.06.977,exp3,2022.2.2,
,,,,,,,,,,,,,,,,,,,,,,,,95,557,Invalid,noise,45,2,0.9206139000016265,1,4.0,2.228776700037997,True,1,23,A,2023-09-18_14h59.06.977,exp3,2022.2.2,
,,,,,,,,,,,,,,,,,,,,,,,,96,-557,Valid,noise,-45,2,0.8379882000153884,1,4.0,2.1459792000241578,True,1,23,A,2023-09-18_14h59.06.977,exp3,2022.2.2,
,,,,,,,,,,,,,,,,,,,,,,,,97,-557,Valid,noise,-45,2,2.055085100000724,1,4.0,3.3629512999905273,True,1,23,A,2023-09-18_14h59.06.977,exp3,2022.2.2,
,,,,,,,,,,,,,,,,,,,,,,,,98,2274,Invalid,noise,-45,2,0.9869709999766201,1,4.0,2.2952967999735847,True,1,23,A,2023-09-18_14h59.06.977,exp3,2022.2.2,
,,,,,,,,,,,,,,,,,,,,,,,,99,2274,Valid,signal,45,2,0.7880034999689087,0,4.0,2.0962704999838024,True,1,23,A,2023-09-18_14h59.06.977,exp3,2022.2.2,
,,,,,,,,,,,,,,,,,,,,,,,,100,-1716,Invalid,noise,-45,2,0.9538122999947518,1,4.0,2.262208800006192,True,1,23,A,2023-09-18_14h59.06.977,exp3,2022.2.2,
,,,,,,,,,,,,,,,,,,,,,,,,101,-2274,Valid,noise,45,2,0.8878417999949306,1,3.0,2.196033400017768,True,1,23,A,2023-09-18_14h59.06.977,exp3,2022.2.2,
,,,,,,,,,,,,,,,,,,,,,,,,102,-1158,Valid,noise,45,2,1.0046502000186592,1,3.0,2.312856099975761,True,1,23,A,2023-09-18_14h59.06.977,exp3,2022.2.2,
,,,,,,,,,,,,,,,,,,,,,,,,103,1716,Valid,signal,45,1,0.8701669999863952,1,4.0,2.17843820003327,True,1,23,A,2023-09-18_14h59.06.977,exp3,2022.2.2,
,,,,,,,,,,,,,,,,,,,,,,,,104,1716,Valid,signal,45,1,0.7879099000128917,1,3.0,2.096164399990812,True,1,23,A,2023-09-18_14h59.06.977,exp3,2022.2.2,
,,,,,,,,,,,,,,,,,,,,,,,,105,2274,Invalid,signal,45,2,1.0380131000420079,0,3.0,2.34623179998016,True,1,23,A,2023-09-18_14h59.06.977,exp3,2022.2.2,
,,,,,,,,,,,,,,,,,,,,,,,,106,-2274,Valid,signal,45,2,0.8206113000051118,0,4.0,2.1288628000183962,True,1,23,A,2023-09-18_14h59.06.977,exp3,2022.2.2,
,,,,,,,,,,,,,,,,,,,,,,,,107,-2274,Valid,signal,45,2,0.8041176000260748,0,3.0,2.1124723000102676,True,1,23,A,2023-09-18_14h59.06.977,exp3,2022.2.2,
,,,,,,,,,,,,,,,,,,,,,,,,108,557,Valid,signal,45,1,1.0715168999740854,1,2.0,2.3793941999902017,True,1,23,A,2023-09-18_14h59.06.977,exp3,2022.2.2,
,,,,,,,,,,,,,,,,,,,,,,,,109,-1716,Valid,signal,45,1,1.0542192999855615,1,3.0,2.3624608000391163,True,1,23,A,2023-09-18_14h59.06.977,exp3,2022.2.2,
,,,,,,,,,,,,,,,,,,,,,,,,110,1158,Valid,noise,45,2,0.8039631000137888,1,3.0,2.112267700023949,True,1,23,A,2023-09-18_14h59.06.977,exp3,2022.2.2,
,,,,,,,,,,,,,,,,,,,,,,,,111,1716,Valid,signal,-45,1,0.7874038000009023,1,3.0,2.0954486999544315,True,1,23,A,2023-09-18_14h59.06.977,exp3,2022.2.2,
,,,,,,,,,,,,,,,,,,,,,,,,112,557,Invalid,noise,-45,2,0.8548822000157088,1,3.0,2.163199699949473,True,1,23,A,2023-09-18_14h59.06.977,exp3,2022.2.2,
,,,,,,,,,,,,,,,,,,,,,,,,113,1158,Valid,signal,45,1,0.937124699994456,1,3.0,2.245165000029374,True,1,23,A,2023-09-18_14h59.06.977,exp3,2022.2.2,
,,,,,,,,,,,,,,,,,,,,,,,,114,1716,Valid,noise,45,2,1.5710020000115037,1,1.0,2.8792137000127696,True,1,23,A,2023-09-18_14h59.06.977,exp3,2022.2.2,
,,,,,,,,,,,,,,,,,,,,,,,,115,1158,Valid,signal,45,1,1.305284300004132,1,3.0,2.6133355000056326,True,1,23,A,2023-09-18_14h59.06.977,exp3,2022.2.2,
,,,,,,,,,,,,,,,,,,,,,,,,116,-2274,Invalid,noise,45,2,0.7710097000235692,1,3.0,2.078996600001119,True,1,23,A,2023-09-18_14h59.06.977,exp3,2022.2.2,
,,,,,,,,,,,,,,,,,,,,,,,,117,-1158,Invalid,noise,45,2,0.8205818000133149,1,3.0,2.1287487000226974,True,1,23,A,2023-09-18_14h59.06.977,exp3,2022.2.2,
,,,,,,,,,,,,,,,,,,,,,,,,118,557,Valid,noise,-45,2,0.8540211000363342,1,3.0,2.162336500012316,True,1,23,A,2023-09-18_14h59.06.977,exp3,2022.2.2,
,,,,,,,,,,,,,,,,,,,,,,,,119,1716,Valid,noise,-45,2,0.9712274999474175,1,3.0,2.2794279999798164,True,1,23,A,2023-09-18_14h59.06.977,exp3,2022.2.2,
,,,,,,,,,,,,,,,,,,,,,,,,120,1158,Invalid,noise,45,2,1.6710924000362866,1,3.0,2.97941189998528,True,1,23,A,2023-09-18_14h59.06.977,exp3,2022.2.2,
,,,,,,,,,,,,,,,,,,,,,,,,121,2274,Valid,signal,-45,2,1.28845910000382,0,2.0,2.5962842000299133,True,1,23,A,2023-09-18_14h59.06.977,exp3,2022.2.2,
,,,,,,,,,,,,,,,,,,,,,,,,122,-2274,Valid,signal,-45,2,1.5664228000096045,0,2.0,4.529437199991662,True,2,23,A,2023-09-18_14h59.06.977,exp3,2022.2.2,
,,,,,,,,,,,,,,,,,,,,,,,,123,-1158,Valid,signal,45,1,1.4244127999991179,1,3.0,4.980325400014408,True,2,23,A,2023-09-18_14h59.06.977,exp3,2022.2.2,
,,,,,,,,,,,,,,,,,,,,,,,,124,1158,Valid,noise,-45,2,0.9543381999828853,1,3.0,2.2626378999557346,True,1,23,A,2023-09-18_14h59.06.977,exp3,2022.2.2,
,,,,,,,,,,,,,,,,,,,,,,,,125,-1716,Valid,signal,-45,1,1.3208572000148706,1,3.0,2.6292023999849334,True,1,23,A,2023-09-18_14h59.06.977,exp3,2022.2.2,
,,,,,,,,,,,,,,,,,,,,,,,,126,-557,Valid,signal,45,2,1.721298799966462,0,3.0,3.0296100999694318,True,1,23,A,2023-09-18_14h59.06.977,exp3,2022.2.2,
,,,,,,,,,,,,,,,,,,,,,,,,127,-1716,Valid,signal,45,1,1.020724900008645,1,3.0,2.3289829999557696,True,1,23,A,2023-09-18_14h59.06.977,exp3,2022.2.2,
,,,,,,,,,,,,,,,,,,,,,,,,128,1158,Valid,noise,-45,2,0.7374545999919064,1,3.0,2.04571139998734,True,1,23,A,2023-09-18_14h59.06.977,exp3,2022.2.2,
,,,,,,,,,,,,,,,,,,,,,,,,129,557,Invalid,signal,45,1,1.1383939000079408,1,2.0,2.4465964999981225,True,1,23,A,2023-09-18_14h59.06.977,exp3,2022.2.2,
,,,,,,,,,,,,,,,,,,,,,,,,130,1158,Valid,signal,-45,1,0.9373604999855161,1,3.0,2.2456709999823943,True,1,23,A,2023-09-18_14h59.06.977,exp3,2022.2.2,
,,,,,,,,,,,,,,,,,,,,,,,,131,2274,Valid,noise,-45,2,1.6876408999669366,1,1.0,2.9960548999952152,True,1,23,A,2023-09-18_14h59.06.977,exp3,2022.2.2,
,,,,,,,,,,,,,,,,,,,,,,,,132,-1716,Valid,signal,-45,1,1.0374812000081874,1,3.0,2.3456969000399113,True,1,23,A,2023-09-18_14h59.06.977,exp3,2022.2.2,
,,,,,,,,,,,,,,,,,,,,,,,,133,-1158,Valid,signal,45,1,1.2214849999872968,1,2.0,2.529335600032937,True,1,23,A,2023-09-18_14h59.06.977,exp3,2022.2.2,
,,,,,,,,,,,,,,,,,,,,,,,,134,-1158,Valid,noise,-45,2,1.5350293000228703,1,2.0,5.647492700023577,True,2,23,A,2023-09-18_14h59.06.977,exp3,2022.2.2,
,,,,,,,,,,,,,,,,,,,,,,,,135,-2274,Invalid,noise,45,2,1.4709239000221714,1,2.0,2.779096300015226,True,1,23,A,2023-09-18_14h59.06.977,exp3,2022.2.2,
,,,,,,,,,,,,,,,,,,,,,,,,136,1158,Valid,noise,45,2,0.8035559999989346,1,2.0,2.1118240000214428,True,1,23,A,2023-09-18_14h59.06.977,exp3,2022.2.2,
,,,,,,,,,,,,,,,,,,,,,,,,137,-2274,Valid,noise,45,2,1.4887833999819122,1,3.0,2.7968610000098124,True,1,23,A,2023-09-18_14h59.06.977,exp3,2022.2.2,
,,,,,,,,,,,,,,,,,,,,,,,,138,557,Valid,noise,-45,2,0.8375039999955334,1,3.0,2.1456483000074513,True,1,23,A,2023-09-18_14h59.06.977,exp3,2022.2.2,
,,,,,,,,,,,,,,,,,,,,,,,,139,-557,Invalid,signal,-45,1,2.4043803000240587,1,1.0,3.712633299990557,True,1,23,A,2023-09-18_14h59.06.977,exp3,2022.2.2,
,,,,,,,,,,,,,,,,,,,,,,,,140,-1716,Valid,signal,-45,1,1.2210852000280283,1,2.0,2.529294799955096,True,1,23,A,2023-09-18_14h59.06.977,exp3,2022.2.2,
,,,,,,,,,,,,,,,,,,,,,,,,141,-1158,Invalid,signal,45,1,1.6210231999866664,1,2.0,2.929228499997407,True,1,23,A,2023-09-18_14h59.06.977,exp3,2022.2.2,
,,,,,,,,,,,,,,,,,,,,,,,,142,-2274,Valid,signal,-45,2,0.870923499984201,0,3.0,2.1793064000084996,True,1,23,A,2023-09-18_14h59.06.977,exp3,2022.2.2,
,,,,,,,,,,,,,,,,,,,,,,,,143,1158,Valid,signal,45,1,0.8377633999916725,1,3.0,2.1459073000005446,True,1,23,A,2023-09-18_14h59.06.977,exp3,2022.2.2,
,,,,,,,,,,,,,,,,,,,,,,,,144,2274,Valid,signal,-45,1,1.2377619000035338,1,1.0,2.546029000019189,True,1,23,A,2023-09-18_14h59.06.977,exp3,2022.2.2,
,,,,,,,,,,,,,,,,,,,,,,,,145,1158,Invalid,signal,45,1,1.1214844000060111,1,3.0,2.4298138999729417,True,1,23,A,2023-09-18_14h59.06.977,exp3,2022.2.2,
,,,,,,,,,,,,,,,,,,,,,,,,146,2274,Valid,signal,45,1,1.3706082999706268,1,2.0,2.678736400033813,True,1,23,A,2023-09-18_14h59.06.977,exp3,2022.2.2,
,,,,,,,,,,,,,,,,,,,,,,,,147,557,Valid,noise,45,2,0.9878655999782495,1,3.0,2.296034500002861,True,1,23,A,2023-09-18_14h59.06.977,exp3,2022.2.2,
,,,,,,,,,,,,,,,,,,,,,,,,148,-557,Valid,noise,-45,2,0.7043852999922819,1,3.0,2.012656999984756,True,1,23,A,2023-09-18_14h59.06.977,exp3,2022.2.2,
,,,,,,,,,,,,,,,,,,,,,,,,149,1158,Valid,signal,45,1,0.8209298999863677,1,3.0,2.129047200025525,True,1,23,A,2023-09-18_14h59.06.977,exp3,2022.2.2,
,,,,,,,,,,,,,,,,,,,,,,,,150,-1716,Valid,signal,-45,1,1.9712951999972574,1,1.0,3.2795258999685757,True,1,23,A,2023-09-18_14h59.06.977,exp3,2022.2.2,
,,,,,,,,,,,,,,,,,,,,,,,,151,557,Valid,noise,-45,2,0.8712125000311062,1,3.0,2.1792280999943614,True,1,23,A,2023-09-18_14h59.06.977,exp3,2022.2.2,
,,,,,,,,,,,,,,,,,,,,,,,,152,-1716,Valid,noise,45,2,1.0043997999746352,1,3.0,2.3125046999775805,True,1,23,A,2023-09-18_14h59.06.977,exp3,2022.2.2,
,,,,,,,,,,,,,,,,,,,,,,,,153,2274,Valid,signal,-45,2,1.309130700014066,0,2.0,4.2130614000489,True,2,23,A,2023-09-18_14h59.06.977,exp3,2022.2.2,
,,,,,,,,,,,,,,,,,,,,,,,,154,1716,Invalid,noise,-45,2,1.2047501999768429,1,2.0,2.512937600025907,True,1,23,A,2023-09-18_14h59.06.977,exp3,2022.2.2,
,,,,,,,,,,,,,,,,,,,,,,,,155,-1716,Valid,noise,-45,2,0.9540119000012055,1,2.0,2.2623677999945357,True,1,23,A,2023-09-18_14h59.06.977,exp3,2022.2.2,
,,,,,,,,,,,,,,,,,,,,,,,,156,557,Valid,signal,45,2,1.3041061999974772,0,1.0,2.6123916000360623,True,1,23,A,2023-09-18_14h59.06.977,exp3,2022.2.2,
,,,,,,,,,,,,,,,,,,,,,,,,157,2274,Invalid,signal,45,2,1.2548956999671645,0,3.0,2.563118599995505,True,1,23,A,2023-09-18_14h59.06.977,exp3,2022.2.2,
,,,,,,,,,,,,,,,,,,,,,,,,158,-2274,Valid,signal,-45,2,1.2544276000116952,0,4.0,2.5625566000235267,True,1,23,A,2023-09-18_14h59.06.977,exp3,2022.2.2,
,,,,,,,,,,,,,,,,,,,,,,,,159,-1158,Valid,noise,-45,1,3.9051790999947116,0,2.0,5.213526500039734,True,1,23,A,2023-09-18_14h59.06.977,exp3,2022.2.2,
,,,,,,,,,,,,,,,,,,,,,,,,160,557,Valid,signal,45,1,2.42116830003215,1,1.0,3.7295259999809787,True,1,23,A,2023-09-18_14h59.06.977,exp3,2022.2.2,
,,,,,,,,,,,,,,,,,,,,,,,,161,-557,Invalid,signal,-45,2,0.9720726999803446,0,3.0,2.280199699976947,True,1,23,A,2023-09-18_14h59.06.977,exp3,2022.2.2,
,,,,,,,,,,,,,,,,,,,,,,,,162,1716,Valid,signal,-45,1,0.9867930999607779,1,3.0,2.295080500014592,True,1,23,A,2023-09-18_14h59.06.977,exp3,2022.2.2,
,,,,,,,,,,,,,,,,,,,,,,,,163,557,Valid,signal,-45,2,0.8878798999940045,0,3.0,2.1961016000132076,True,1,23,A,2023-09-18_14h59.06.977,exp3,2022.2.2,
,,,,,,,,,,,,,,,,,,,,,,,,164,1716,Valid,noise,-45,2,1.135154900024645,1,3.0,8.331918300013058,True,2,23,A,2023-09-18_14h59.06.977,exp3,2022.2.2,
,,,,,,,,,,,,,,,,,,,,,,,,165,-1158,Valid,noise,45,2,1.754416600044351,1,4.0,3.0625319000100717,True,1,23,A,2023-09-18_14h59.06.977,exp3,2022.2.2,
,,,,,,,,,,,,,,,,,,,,,,,,166,-557,Invalid,noise,45,2,1.0722180000157095,1,4.0,5.61406289995648,True,2,23,A,2023-09-18_14h59.06.977,exp3,2022.2.2,
,,,,,,,,,,,,,,,,,,,,,,,,167,-1158,Valid,noise,45,2,0.9207386000198312,1,4.0,2.2289488000096753,True,1,23,A,2023-09-18_14h59.06.977,exp3,2022.2.2,
,,,,,,,,,,,,,,,,,,,,,,,,168,-1716,Valid,signal,-45,1,0.8039193999720737,1,4.0,2.112063499982469,True,1,23,A,2023-09-18_14h59.06.977,exp3,2022.2.2,
,,,,,,,,,,,,,,,,,,,,,,,,169,1716,Valid,noise,-45,2,0.6040001999936067,1,4.0,1.9121844000183046,True,1,23,A,2023-09-18_14h59.06.977,exp3,2022.2.2,
,,,,,,,,,,,,,,,,,,,,,,,,170,-557,Invalid,noise,45,2,0.7546847999910824,1,4.0,2.062691700004507,True,1,23,A,2023-09-18_14h59.06.977,exp3,2022.2.2,
,,,,,,,,,,,,,,,,,,,,,,,,171,-2274,Valid,noise,45,2,0.6713950000121258,1,4.0,1.979425999976229,True,1,23,A,2023-09-18_14h59.06.977,exp3,2022.2.2,
,,,,,,,,,,,,,,,,,,,,,,,,172,-1716,Valid,noise,45,2,0.6870131000177935,1,4.0,1.9953223000047728,True,1,23,A,2023-09-18_14h59.06.977,exp3,2022.2.2,
,,,,,,,,,,,,,,,,,,,,,,,,173,-2274,Invalid,signal,45,2,0.6543308999971487,0,4.0,1.9626193000003695,True,1,23,A,2023-09-18_14h59.06.977,exp3,2022.2.2,
,,,,,,,,,,,,,,,,,,,,,,,,174,-2274,Invalid,signal,45,2,0.6210882000159472,0,4.0,1.9290226000011899,True,1,23,A,2023-09-18_14h59.06.977,exp3,2022.2.2,
,,,,,,,,,,,,,,,,,,,,,,,,175,1158,Valid,signal,-45,1,1.270298500021454,1,4.0,2.5787010999629274,True,1,23,A,2023-09-18_14h59.06.977,exp3,2022.2.2,
,,,,,,,,,,,,,,,,,,,,,,,,176,1158,Valid,noise,-45,2,0.7712111999862827,1,4.0,2.079365500016138,True,1,23,A,2023-09-18_14h59.06.977,exp3,2022.2.2,
,,,,,,,,,,,,,,,,,,,,,,,,2,-1158,Valid,noise,-45,2,4.651916600007098,1,3.0,5.960702100011986,True,1,23,A,2023-09-18_14h59.06.977,exp3,2022.2.2,
,,,,,,,,,,,,,,,,,,,,,,,,4,-1158,Valid,noise,45,2,2.8050938000087626,1,3.0,4.113381500006653,True,1,23,A,2023-09-18_14h59.06.977,exp3,2022.2.2,
,,,,,,,,,,,,,,,,,,,,,,,,6,557,Invalid,signal,45,2,1.4881739999982528,0,3.0,2.7964453999884427,True,1,23,A,2023-09-18_14h59.06.977,exp3,2022.2.2,
,,,,,,,,,,,,,,,,,,,,,,,,8,2274,Valid,signal,45,2,2.320384800026659,0,3.0,3.6291143000125885,True,1,23,A,2023-09-18_14h59.06.977,exp3,2022.2.2,
,,,,,,,,,,,,,,,,,,,,,,,,10,-1716,Valid,signal,45,2,1.2039785999804735,0,3.0,2.5124523999984376,True,1,23,A,2023-09-18_14h59.06.977,exp3,2022.2.2,
,,,,,,,,,,,,,,,,,,,,,,,,12,-1158,Valid,signal,45,2,3.438625200011302,0,2.0,4.747144400025718,True,1,23,A,2023-09-18_14h59.06.977,exp3,2022.2.2,
,,,,,,,,,,,,,,,,,,,,,,,,14,-1716,Valid,signal,-45,2,1.1373493999708444,0,2.0,2.445981499971822,True,1,23,A,2023-09-18_14h59.06.977,exp3,2022.2.2,
,,,,,,,,,,,,,,,,,,,,,,,,16,1716,Valid,signal,-45,1,1.0872449000016786,1,3.0,2.395757100021001,True,1,23,A,2023-09-18_14h59.06.977,exp3,2022.2.2,
,,,,,,,,,,,,,,,,,,,,,,,,18,2274,Invalid,noise,45,2,1.231921800004784,1,3.0,4.280147000041325,True,2,23,A,2023-09-18_14h59.06.977,exp3,2022.2.2,
,,,,,,,,,,,,,,,,,,,,,,,,20,1158,Valid,signal,-45,1,0.8878048999467865,1,3.0,2.196052499988582,True,1,23,A,2023-09-18_14h59.06.977,exp3,2022.2.2,
,,,,,,,,,,,,,,,,,,,,,,,,22,-557,Valid,noise,-45,2,1.870702899992466,1,3.0,3.17932249995647,True,1,23,A,2023-09-18_14h59.06.977,exp3,2022.2.2,
,,,,,,,,,,,,,,,,,,,,,,,,24,-1158,Invalid,noise,45,2,0.9878724000300281,1,3.0,2.2963668000302278,True,1,23,A,2023-09-18_14h59.06.977,exp3,2022.2.2,
,,,,,,,,,,,,,,,,,,,,,,,,26,557,Valid,noise,-45,2,0.8202359999995679,1,3.0,2.12884059996577,True,1,23,A,2023-09-18_14h59.06.977,exp3,2022.2.2,
,,,,,,,,,,,,,,,,,,,,,,,,28,1158,Valid,signal,45,1,0.8372103000292554,1,3.0,2.145883599994704,True,1,23,A,2023-09-18_14h59.06.977,exp3,2022.2.2,
,,,,,,,,,,,,,,,,,,,,,,,,30,1716,Invalid,signal,45,1,1.387579900037963,1,3.0,2.6962445999961346,True,1,23,A,2023-09-18_14h59.06.977,exp3,2022.2.2,
,,,,,,,,,,,,,,,,,,,,,,,,32,1158,Valid,signal,-45,1,0.787348700047005,1,3.0,2.09581030003028,True,1,23,A,2023-09-18_14h59.06.977,exp3,2022.2.2,
,,,,,,,,,,,,,,,,,,,,,,,,34,-1158,Invalid,signal,45,1,1.5543707000324503,1,3.0,2.862883099995088,True,1,23,A,2023-09-18_14h59.06.977,exp3,2022.2.2,
,,,,,,,,,,,,,,,,,,,,,,,,36,-1716,Valid,signal,45,1,0.9205471000168473,1,4.0,2.228985699999612,True,1,23,A,2023-09-18_14h59.06.977,exp3,2022.2.2,
,,,,,,,,,,,,,,,,,,,,,,,,38,-557,Valid,signal,45,2,1.0213754000142217,0,3.0,2.329739900014829,True,1,23,A,2023-09-18_14h59.06.977,exp3,2022.2.2,
,,,,,,,,,,,,,,,,,,,,,,,,40,-557,Valid,noise,45,2,0.9031008000019938,1,3.0,2.2118802999611944,True,1,23,A,2023-09-18_14h59.06.977,exp3,2022.2.2,
,,,,,,,,,,,,,,,,,,,,,,,,42,1158,Valid,signal,-45,1,0.7540854999679141,1,3.0,2.0627608000067994,True,1,23,A,2023-09-18_14h59.06.977,exp3,2022.2.2,
,,,,,,,,,,,,,,,,,,,,,,,,44,1158,Valid,signal,-45,1,0.737518000009004,1,3.0,2.0461834000307135,True,1,23,A,2023-09-18_14h59.06.977,exp3,2022.2.2,
,,,,,,,,,,,,,,,,,,,,,,,,46,557,Valid,signal,-45,2,0.9874217999749817,0,3.0,2.29586290003499,True,1,23,A,2023-09-18_14h59.06.977,exp3,2022.2.2,
,,,,,,,,,,,,,,,,,,,,,,,,48,-2274,Valid,signal,45,2,1.2876058999681845,0,3.0,2.596090200007893,True,1,23,A,2023-09-18_14h59.06.977,exp3,2022.2.2,
,,,,,,,,,,,,,,,,,,,,,,,,50,-1158,Valid,signal,45,1,0.887109600007534,1,3.0,2.1958308999892324,True,1,23,A,2023-09-18_14h59.06.977,exp3,2022.2.2,
,,,,,,,,,,,,,,,,,,,,,,,,52,-2274,Valid,noise,45,2,0.5707821000250988,1,3.0,1.8793060999596491,True,1,23,A,2023-09-18_14h59.06.977,exp3,2022.2.2,
,,,,,,,,,,,,,,,,,,,,,,,,54,-2274,Valid,signal,-45,2,0.6872912999824621,0,3.0,1.9958786999923177,True,1,23,A,2023-09-18_14h59.06.977,exp3,2022.2.2,
,,,,,,,,,,,,,,,,,,,,,,,,56,1716,Valid,noise,-45,2,0.6538553000427783,1,3.0,1.962517999985721,True,1,23,A,2023-09-18_14h59.06.977,exp3,2022.2.2,
,,,,,,,,,,,,,,,,,,,,,,,,58,2274,Valid,signal,45,2,0.9335527999792248,0,3.0,4.796809400024358,True,2,23,A,2023-09-18_14h59.06.977,exp3,2022.2.2,
,,,,,,,,,,,,,,,,,,,,,,,,60,2274,Valid,signal,-45,2,0.7873818000080064,0,3.0,2.095714399998542,True,1,23,A,2023-09-18_14h59.06.977,exp3,2022.2.2,
,,,,,,,,,,,,,,,,,,,,,,,,62,-557,Valid,noise,45,2,0.6207468000357039,1,3.0,1.929115400009323,True,1,23,A,2023-09-18_14h59.06.977,exp3,2022.2.2,
,,,,,,,,,,,,,,,,,,,,,,,,64,557,Valid,signal,-45,2,0.653810899995733,0,4.0,1.9622212999965996,True,1,23,A,2023-09-18_14h59.06.977,exp3,2022.2.2,
,,,,,,,,,,,,,,,,,,,,,,,,66,-557,Valid,signal,45,2,1.0537357999710366,0,4.0,2.362315199978184,True,1,23,A,2023-09-18_14h59.06.977,exp3,2022.2.2,
,,,,,,,,,,,,,,,,,,,,,,,,68,2274,Valid,noise,45,2,1.0402795000118203,1,4.0,5.51385940000182,True,3,23,A,2023-09-18_14h59.06.977,exp3,2022.2.2,
,,,,,,,,,,,,,,,,,,,,,,,,70,1158,Invalid,signal,45,1,1.1879883999936283,1,4.0,2.4962761999922805,True,1,23,A,2023-09-18_14h59.06.977,exp3,2022.2.2,
,,,,,,,,,,,,,,,,,,,,,,,,72,-557,Invalid,noise,-45,2,2.087521800014656,1,2.0,3.395994700025767,True,1,23,A,2023-09-18_14h59.06.977,exp3,2022.2.2,
,,,,,,,,,,,,,,,,,,,,,,,,74,-2274,Valid,noise,45,2,0.6368432999588549,1,4.0,1.9456904000253417,True,1,23,A,2023-09-18_14h59.06.977,exp3,2022.2.2,
,,,,,,,,,,,,,,,,,,,,,,,,76,-1716,Valid,signal,-45,2,0.8709202000172809,0,4.0,2.1795172999845818,True,1,23,A,2023-09-18_14h59.06.977,exp3,2022.2.2,
,,,,,,,,,,,,,,,,,,,,,,,,78,557,Invalid,signal,45,2,1.3207796000060625,0,4.0,2.6293129000114277,True,1,23,A,2023-09-18_14h59.06.977,exp3,2022.2.2,
,,,,,,,,,,,,,,,,,,,,,,,,80,-1158,Valid,signal,-45,1,1.0540811999817379,1,3.0,2.362587200012058,True,1,23,A,2023-09-18_14h59.06.977,exp3,2022.2.2,
,,,,,,,,,,,,,,,,,,,,,,,,82,-2274,Valid,signal,45,2,1.2214223999762908,0,4.0,2.5298741000005975,True,1,23,A,2023-09-18_14h59.06.977,exp3,2022.2.2,
,,,,,,,,,,,,,,,,,,,,,,,,84,2274,Invalid,signal,45,2,0.9034529000055045,0,3.0,2.2120858000125736,True,1,23,A,2023-09-18_14h59.06.977,exp3,2022.2.2,
,,,,,,,,,,,,,,,,,,,,,,,,86,557,Valid,noise,-45,2,0.8041802999796346,1,3.0,2.112638499995228,True,1,23,A,2023-09-18_14h59.06.977,exp3,2022.2.2,
,,,,,,,,,,,,,,,,,,,,,,,,88,-1716,Valid,noise,45,2,0.9376729000359774,1,4.0,2.2459422000101767,True,1,23,A,2023-09-18_14h59.06.977,exp3,2022.2.2,
