trials.label,trials.startVal,trials.maxVal,trials.minVal,trials.startValSd,trials.pthreshold,trials.beta,trials.delta,trials.gamma,trials.grain,trials.stepSize,trials.range,trials.cue,trials.thisIndex,trials.thisRepN,trials.thisN,trials.direction,trials.stepType,trials.intensity,signalOpacity,stair_response_correct,level,trials.response,stair_eye_ok,nTrial,position,validity,Stimulus,orientation,response_key,response_rt,response_correct,confidence,confidence_rt,eye_ok,trial_rep,participant,session,date,expName,psychopyVersion,
low_opac_i,0.4,1,0.01,3,0.82,3.5,0.01,0,0.01,4,5,Invalid,2,1,0,start,lin,0.4,0,0,0.4,0,True,,,,,,,,,,,,,25,A,2023-09-20_10h39.47.882,exp3,2022.2.2,
high_opac_v,0.01,1,0.01,3,0.82,3.5,0.01,0,0.01,4,5,Valid,1,1,1,start,lin,0.01,0.01,1,0.01,1,True,,,,,,,,,,,,,25,A,2023-09-20_10h39.47.882,exp3,2022.2.2,
low_opac_v,0.4,1,0.01,3,0.82,3.5,0.01,0,0.01,4,5,Valid,0,1,2,start,lin,0.4,0.4,1,0.4,1,True,,,,,,,,,,,,,25,A,2023-09-20_10h39.47.882,exp3,2022.2.2,
low_opac_v,0.4,1,0.01,3,0.82,3.5,0.01,0,0.01,4,5,Valid,0,2,3,start,lin,0.01,0,0,0.01,0,True,,,,,,,,,,,,,25,A,2023-09-20_10h39.47.882,exp3,2022.2.2,
high_opac_v,0.01,1,0.01,3,0.82,3.5,0.01,0,0.01,4,5,Valid,1,2,4,start,lin,0.01,0,0,0.01,0,True,,,,,,,,,,,,,25,A,2023-09-20_10h39.47.882,exp3,2022.2.2,
low_opac_i,0.4,1,0.01,3,0.82,3.5,0.01,0,0.01,4,5,Invalid,2,2,5,start,lin,1,1,1,1,1,True,,,,,,,,,,,,,25,A,2023-09-20_10h39.47.882,exp3,2022.2.2,
low_opac_i,0.4,1,0.01,3,0.82,3.5,0.01,0,0.01,4,5,Invalid,2,3,6,start,lin,0.8091950431803865,0.8091950431803865,1,0.8091950431803865,1,True,,,,,,,,,,,,,25,A,2023-09-20_10h39.47.882,exp3,2022.2.2,
high_opac_v,0.01,1,0.01,3,0.82,3.5,0.01,0,0.01,4,5,Valid,1,3,7,start,lin,0.11405774706782823,0,0,0.11405774706782823,0,True,,,,,,,,,,,,,25,A,2023-09-20_10h39.47.882,exp3,2022.2.2,
low_opac_v,0.4,1,0.01,3,0.82,3.5,0.01,0,0.01,4,5,Valid,0,3,8,start,lin,0.3144098688205103,0.3144098688205103,1,0.3144098688205103,1,True,,,,,,,,,,,,,25,A,2023-09-20_10h39.47.882,exp3,2022.2.2,
low_opac_v,0.4,1,0.01,3,0.82,3.5,0.01,0,0.01,4,5,Valid,0,4,9,start,lin,0.23561159539411833,0,0,0.23561159539411833,0,True,,,,,,,,,,,,,25,A,2023-09-20_10h39.47.882,exp3,2022.2.2,
high_opac_v,0.01,1,0.01,3,0.82,3.5,0.01,0,0.01,4,5,Valid,1,4,10,start,lin,0.27517081829650164,0.27517081829650164,1,0.27517081829650164,1,True,,,,,,,,,,,,,25,A,2023-09-20_10h39.47.882,exp3,2022.2.2,
low_opac_i,0.4,1,0.01,3,0.82,3.5,0.01,0,0.01,4,5,Invalid,2,4,11,start,lin,0.6973591848232542,0,0,0.6973591848232542,0,True,,,,,,,,,,,,,25,A,2023-09-20_10h39.47.882,exp3,2022.2.2,
low_opac_v,0.4,1,0.01,3,0.82,3.5,0.01,0,0.01,4,5,Valid,0,5,12,start,lin,0.3667233836050213,0.3667233836050213,1,0.3667233836050213,1,True,,,,,,,,,,,,,25,A,2023-09-20_10h39.47.882,exp3,2022.2.2,
low_opac_i,0.4,1,0.01,3,0.82,3.5,0.01,0,0.01,4,5,Invalid,2,5,13,start,lin,0.8614513918880656,0,0,0.8614513918880656,0,True,,,,,,,,,,,,,25,A,2023-09-20_10h39.47.882,exp3,2022.2.2,
high_opac_v,0.01,1,0.01,3,0.82,3.5,0.01,0,0.01,4,5,Valid,1,5,14,start,lin,0.22892244920235785,0.22892244920235785,1,0.22892244920235785,1,True,,,,,,,,,,,,,25,A,2023-09-20_10h39.47.882,exp3,2022.2.2,
low_opac_i,0.4,1,0.01,3,0.82,3.5,0.01,0,0.01,4,5,Invalid,2,6,15,start,lin,0.9692331143506419,0,0,0.9692331143506419,0,True,,,,,,,,,,,,,25,A,2023-09-20_10h39.47.882,exp3,2022.2.2,
high_opac_v,0.01,1,0.01,3,0.82,3.5,0.01,0,0.01,4,5,Valid,1,6,16,start,lin,0.20026763856046717,0,0,0.20026763856046717,0,True,,,,,,,,,,,,,25,A,2023-09-20_10h39.47.882,exp3,2022.2.2,
low_opac_v,0.4,1,0.01,3,0.82,3.5,0.01,0,0.01,4,5,Valid,0,6,17,start,lin,0.3380068496206079,0.3380068496206079,1,0.3380068496206079,1,True,,,,,,,,,,,,,25,A,2023-09-20_10h39.47.882,exp3,2022.2.2,
low_opac_i,0.4,1,0.01,3,0.82,3.5,0.01,0,0.01,4,5,Invalid,2,7,18,start,lin,1,0,0,1,0,True,,,,,,,,,,,,,25,A,2023-09-20_10h39.47.882,exp3,2022.2.2,
low_opac_v,0.4,1,0.01,3,0.82,3.5,0.01,0,0.01,4,5,Valid,0,7,19,start,lin,0.31625773406172786,0.31625773406172786,1,0.31625773406172786,1,True,,,,,,,,,,,,,25,A,2023-09-20_10h39.47.882,exp3,2022.2.2,
high_opac_v,0.01,1,0.01,3,0.82,3.5,0.01,0,0.01,4,5,Valid,1,7,20,start,lin,0.2716257930378581,0,0,0.2716257930378581,0,True,,,,,,,,,,,,,25,A,2023-09-20_10h39.47.882,exp3,2022.2.2,
low_opac_v,0.4,1,0.01,3,0.82,3.5,0.01,0,0.01,4,5,Valid,0,8,21,start,lin,0.2986408498766201,0,0,0.2986408498766201,0,True,,,,,,,,,,,,,25,A,2023-09-20_10h39.47.882,exp3,2022.2.2,
high_opac_v,0.01,1,0.01,3,0.82,3.5,0.01,0,0.01,4,5,Valid,1,8,22,start,lin,0.3344134069311703,0.3344134069311703,1,0.3344134069311703,1,True,,,,,,,,,,,,,25,A,2023-09-20_10h39.47.882,exp3,2022.2.2,
low_opac_i,0.4,1,0.01,3,0.82,3.5,0.01,0,0.01,4,5,Invalid,2,8,23,start,lin,1,1,1,1,1,True,,,,,,,,,,,,,25,A,2023-09-20_10h39.47.882,exp3,2022.2.2,
high_opac_v,0.01,1,0.01,3,0.82,3.5,0.01,0,0.01,4,5,Valid,1,9,24,start,lin,0.3170489253795242,0.3170489253795242,1,0.3170489253795242,1,True,,,,,,,,,,,,,25,A,2023-09-20_10h39.47.882,exp3,2022.2.2,
low_opac_v,0.4,1,0.01,3,0.82,3.5,0.01,0,0.01,4,5,Valid,0,9,25,start,lin,0.35202328335541094,0,0,0.35202328335541094,0,True,,,,,,,,,,,,,25,A,2023-09-20_10h39.47.882,exp3,2022.2.2,
low_opac_i,0.4,1,0.01,3,0.82,3.5,0.01,0,0.01,4,5,Invalid,2,9,26,start,lin,1,0,0,1,0,True,,,,,,,,,,,,,25,A,2023-09-20_10h39.47.882,exp3,2022.2.2,
low_opac_v,0.4,1,0.01,3,0.82,3.5,0.01,0,0.01,4,5,Valid,0,10,27,start,lin,0.395538057610492,0.395538057610492,1,0.395538057610492,1,True,,,,,,,,,,,,,25,A,2023-09-20_10h39.47.882,exp3,2022.2.2,
high_opac_v,0.01,1,0.01,3,0.82,3.5,0.01,0,0.01,4,5,Valid,1,10,28,start,lin,0.30385617495327283,0.30385617495327283,1,0.30385617495327283,1,True,,,,,,,,,,,,,25,A,2023-09-20_10h39.47.882,exp3,2022.2.2,
low_opac_i,0.4,1,0.01,3,0.82,3.5,0.01,0,0.01,4,5,Invalid,2,10,29,start,lin,1,0,0,1,0,True,,,,,,,,,,,,,25,A,2023-09-20_10h39.47.882,exp3,2022.2.2,
low_opac_v,0.4,1,0.01,3,0.82,3.5,0.01,0,0.01,4,5,Valid,0,11,30,start,lin,0.38499617705207406,0,0,0.38499617705207406,0,True,,,,,,,,,,,,,25,A,2023-09-20_10h39.47.882,exp3,2022.2.2,
high_opac_v,0.01,1,0.01,3,0.82,3.5,0.01,0,0.01,4,5,Valid,1,11,31,start,lin,0.29212946510624205,0.29212946510624205,1,0.29212946510624205,1,True,,,,,,,,,,,,,25,A,2023-09-20_10h39.47.882,exp3,2022.2.2,
low_opac_i,0.4,1,0.01,3,0.82,3.5,0.01,0,0.01,4,5,Invalid,2,11,32,start,lin,1,1,1,1,1,True,,,,,,,,,,,,,25,A,2023-09-20_10h39.47.882,exp3,2022.2.2,
low_opac_i,0.4,1,0.01,3,0.82,3.5,0.01,0,0.01,4,5,Invalid,2,12,33,start,lin,1,1,1,1,1,True,,,,,,,,,,,,,25,A,2023-09-20_10h39.47.882,exp3,2022.2.2,
high_opac_v,0.01,1,0.01,3,0.82,3.5,0.01,0,0.01,4,5,Valid,1,12,34,start,lin,0.28203566936260105,0.28203566936260105,1,0.28203566936260105,1,True,,,,,,,,,,,,,25,A,2023-09-20_10h39.47.882,exp3,2022.2.2,
low_opac_v,0.4,1,0.01,3,0.82,3.5,0.01,0,0.01,4,5,Valid,0,12,35,start,lin,0.4195334973801271,0.4195334973801271,1,0.4195334973801271,1,True,,,,,,,,,,,,,25,A,2023-09-20_10h39.47.882,exp3,2022.2.2,
low_opac_i,0.4,1,0.01,3,0.82,3.5,0.01,0,0.01,4,5,Invalid,2,13,36,start,lin,1,1,1,1,1,True,,,,,,,,,,,,,25,A,2023-09-20_10h39.47.882,exp3,2022.2.2,
high_opac_v,0.01,1,0.01,3,0.82,3.5,0.01,0,0.01,4,5,Valid,1,13,37,start,lin,0.2730335010244806,0,0,0.2730335010244806,0,True,,,,,,,,,,,,,25,A,2023-09-20_10h39.47.882,exp3,2022.2.2,
low_opac_v,0.4,1,0.01,3,0.82,3.5,0.01,0,0.01,4,5,Valid,0,13,38,start,lin,0.4106835176062286,0.4106835176062286,1,0.4106835176062286,1,True,,,,,,,,,,,,,25,A,2023-09-20_10h39.47.882,exp3,2022.2.2,
low_opac_i,0.4,1,0.01,3,0.82,3.5,0.01,0,0.01,4,5,Invalid,2,14,39,start,lin,1,1,1,1,1,True,,,,,,,,,,,,,25,A,2023-09-20_10h39.47.882,exp3,2022.2.2,
high_opac_v,0.01,1,0.01,3,0.82,3.5,0.01,0,0.01,4,5,Valid,1,14,40,start,lin,0.3027341601001153,0.3027341601001153,1,0.3027341601001153,1,True,,,,,,,,,,,,,25,A,2023-09-20_10h39.47.882,exp3,2022.2.2,
low_opac_v,0.4,1,0.01,3,0.82,3.5,0.01,0,0.01,4,5,Valid,0,14,41,start,lin,0.4027571516883097,0,0,0.4027571516883097,0,True,,,,,,,,,,,,,25,A,2023-09-20_10h39.47.882,exp3,2022.2.2,
high_opac_v,0.01,1,0.01,3,0.82,3.5,0.01,0,0.01,4,5,Valid,1,15,42,start,lin,0.2953470191922606,0,0,0.2953470191922606,0,True,,,,,,,,,,,,,25,A,2023-09-20_10h39.47.882,exp3,2022.2.2,
low_opac_v,0.4,1,0.01,3,0.82,3.5,0.01,0,0.01,4,5,Valid,0,15,43,start,lin,0.4296514318686069,0,0,0.4296514318686069,0,True,,,,,,,,,,,,,25,A,2023-09-20_10h39.47.882,exp3,2022.2.2,
low_opac_i,0.4,1,0.01,3,0.82,3.5,0.01,0,0.01,4,5,Invalid,2,15,44,start,lin,1,1,1,1,1,True,,,,,,,,,,,,,25,A,2023-09-20_10h39.47.882,exp3,2022.2.2,
high_opac_v,0.01,1,0.01,3,0.82,3.5,0.01,0,0.01,4,5,Valid,1,16,45,start,lin,0.3215842783873999,0,0,0.3215842783873999,0,True,,,,,,,,,,,,,25,A,2023-09-20_10h39.47.882,exp3,2022.2.2,
low_opac_v,0.4,1,0.01,3,0.82,3.5,0.01,0,0.01,4,5,Valid,0,16,46,start,lin,0.4558743922033783,0,0,0.4558743922033783,0,True,,,,,,,,,,,,,25,A,2023-09-20_10h39.47.882,exp3,2022.2.2,
low_opac_i,0.4,1,0.01,3,0.82,3.5,0.01,0,0.01,4,5,Invalid,2,16,47,start,lin,1,1,1,1,1,True,,,,,,,,,,,,,25,A,2023-09-20_10h39.47.882,exp3,2022.2.2,
high_opac_v,0.01,1,0.01,3,0.82,3.5,0.01,0,0.01,4,5,Valid,1,17,48,start,lin,0.345371623909936,0.345371623909936,1,0.345371623909936,1,True,,,,,,,,,,,,,25,A,2023-09-20_10h39.47.882,exp3,2022.2.2,
low_opac_i,0.4,1,0.01,3,0.82,3.5,0.01,0,0.01,4,5,Invalid,2,17,49,start,lin,1,1,1,1,1,True,,,,,,,,,,,,,25,A,2023-09-20_10h39.47.882,exp3,2022.2.2,
low_opac_v,0.4,1,0.01,3,0.82,3.5,0.01,0,0.01,4,5,Valid,0,17,50,start,lin,0.4819727369980766,0.4819727369980766,1,0.4819727369980766,1,True,,,,,,,,,,,,,25,A,2023-09-20_10h39.47.882,exp3,2022.2.2,
low_opac_i,0.4,1,0.01,3,0.82,3.5,0.01,0,0.01,4,5,Invalid,2,18,51,start,lin,1,1,1,1,1,True,,,,,,,,,,,,,25,A,2023-09-20_10h39.47.882,exp3,2022.2.2,
low_opac_v,0.4,1,0.01,3,0.82,3.5,0.01,0,0.01,4,5,Valid,0,18,52,start,lin,0.47549790730064023,0.47549790730064023,1,0.47549790730064023,1,True,,,,,,,,,,,,,25,A,2023-09-20_10h39.47.882,exp3,2022.2.2,
high_opac_v,0.01,1,0.01,3,0.82,3.5,0.01,0,0.01,4,5,Valid,1,18,53,start,lin,0.33964987933349833,0.33964987933349833,1,0.33964987933349833,1,True,,,,,,,,,,,,,25,A,2023-09-20_10h39.47.882,exp3,2022.2.2,
low_opac_v,0.4,1,0.01,3,0.82,3.5,0.01,0,0.01,4,5,Valid,0,19,54,start,lin,0.4698757532067812,0.4698757532067812,1,0.4698757532067812,1,True,,,,,,,,,,,,,25,A,2023-09-20_10h39.47.882,exp3,2022.2.2,
low_opac_i,0.4,1,0.01,3,0.82,3.5,0.01,0,0.01,4,5,Invalid,2,19,55,start,lin,1,1,1,1,1,True,,,,,,,,,,,,,25,A,2023-09-20_10h39.47.882,exp3,2022.2.2,
high_opac_v,0.01,1,0.01,3,0.82,3.5,0.01,0,0.01,4,5,Valid,1,19,56,start,lin,0.33421787420461935,0,0,0.33421787420461935,0,True,,,,,,,,,,,,,25,A,2023-09-20_10h39.47.882,exp3,2022.2.2,
high_opac_v,0.01,1,0.01,3,0.82,3.5,0.01,0,0.01,4,5,Valid,1,20,57,start,lin,0.35365576427757145,0.35365576427757145,1,0.35365576427757145,1,True,,,,,,,,,,,,,25,A,2023-09-20_10h39.47.882,exp3,2022.2.2,
low_opac_v,0.4,1,0.01,3,0.82,3.5,0.01,0,0.01,4,5,Valid,0,20,58,start,lin,0.46453601148837687,0,0,0.46453601148837687,0,True,,,,,,,,,,,,,25,A,2023-09-20_10h39.47.882,exp3,2022.2.2,
low_opac_i,0.4,1,0.01,3,0.82,3.5,0.01,0,0.01,4,5,Invalid,2,20,59,start,lin,1,0,0,1,0,True,,,,,,,,,,,,,25,A,2023-09-20_10h39.47.882,exp3,2022.2.2,
low_opac_v,0.4,1,0.01,3,0.82,3.5,0.01,0,0.01,4,5,Valid,0,21,60,start,lin,0.48360342198966794,0,0,0.48360342198966794,0,True,,,,,,,,,,,,,25,A,2023-09-20_10h39.47.882,exp3,2022.2.2,
high_opac_v,0.01,1,0.01,3,0.82,3.5,0.01,0,0.01,4,5,Valid,1,21,61,start,lin,0.3485963886103017,0,0,0.3485963886103017,0,True,,,,,,,,,,,,,25,A,2023-09-20_10h39.47.882,exp3,2022.2.2,
low_opac_i,0.4,1,0.01,3,0.82,3.5,0.01,0,0.01,4,5,Invalid,2,21,62,start,lin,1,1,1,1,1,True,,,,,,,,,,,,,25,A,2023-09-20_10h39.47.882,exp3,2022.2.2,
high_opac_v,0.01,1,0.01,3,0.82,3.5,0.01,0,0.01,4,5,Valid,1,22,63,start,lin,0.36689159068654636,0,0,0.36689159068654636,0,True,,,,,,,,,,,,,25,A,2023-09-20_10h39.47.882,exp3,2022.2.2,
low_opac_v,0.4,1,0.01,3,0.82,3.5,0.01,0,0.01,4,5,Valid,0,22,64,start,lin,0.5022475301170224,0.5022475301170224,1,0.5022475301170224,1,True,,,,,,,,,,,,,25,A,2023-09-20_10h39.47.882,exp3,2022.2.2,
low_opac_i,0.4,1,0.01,3,0.82,3.5,0.01,0,0.01,4,5,Invalid,2,22,65,start,lin,1,0,0,1,0,True,,,,,,,,,,,,,25,A,2023-09-20_10h39.47.882,exp3,2022.2.2,
high_opac_v,0.01,1,0.01,3,0.82,3.5,0.01,0,0.01,4,5,Valid,1,23,66,start,lin,0.38491954844603415,0.38491954844603415,1,0.38491954844603415,1,True,,,,,,,,,,,,,25,A,2023-09-20_10h39.47.882,exp3,2022.2.2,
low_opac_i,0.4,1,0.01,3,0.82,3.5,0.01,0,0.01,4,5,Invalid,2,23,67,start,lin,1,1,1,1,1,True,,,,,,,,,,,,,25,A,2023-09-20_10h39.47.882,exp3,2022.2.2,
low_opac_v,0.4,1,0.01,3,0.82,3.5,0.01,0,0.01,4,5,Valid,0,23,68,start,lin,0.4974254767831266,0.4974254767831266,1,0.4974254767831266,1,True,,,,,,,,,,,,,25,A,2023-09-20_10h39.47.882,exp3,2022.2.2,
low_opac_i,0.4,1,0.01,3,0.82,3.5,0.01,0,0.01,4,5,Invalid,2,24,69,start,lin,1,0,0,1,0,True,,,,,,,,,,,,,25,A,2023-09-20_10h39.47.882,exp3,2022.2.2,
low_opac_v,0.4,1,0.01,3,0.82,3.5,0.01,0,0.01,4,5,Valid,0,24,70,start,lin,0.49313180772869103,0.49313180772869103,1,0.49313180772869103,1,True,,,,,,,,,,,,,25,A,2023-09-20_10h39.47.882,exp3,2022.2.2,
high_opac_v,0.01,1,0.01,3,0.82,3.5,0.01,0,0.01,4,5,Valid,1,24,71,start,lin,0.3803948709928724,0.3803948709928724,1,0.3803948709928724,1,True,,,,,,,,,,,,,25,A,2023-09-20_10h39.47.882,exp3,2022.2.2,
low_opac_i,0.4,1,0.01,3,0.82,3.5,0.01,0,0.01,4,5,Invalid,2,25,72,start,lin,1,0,0,1,0,True,,,,,,,,,,,,,25,A,2023-09-20_10h39.47.882,exp3,2022.2.2,
high_opac_v,0.01,1,0.01,3,0.82,3.5,0.01,0,0.01,4,5,Valid,1,25,73,start,lin,0.37630546521951735,0.37630546521951735,1,0.37630546521951735,1,True,,,,,,,,,,,,,25,A,2023-09-20_10h39.47.882,exp3,2022.2.2,
low_opac_v,0.4,1,0.01,3,0.82,3.5,0.01,0,0.01,4,5,Valid,0,25,74,start,lin,0.48885619244793715,0,0,0.48885619244793715,0,True,,,,,,,,,,,,,25,A,2023-09-20_10h39.47.882,exp3,2022.2.2,
high_opac_v,0.01,1,0.01,3,0.82,3.5,0.01,0,0.01,4,5,Valid,1,26,75,start,lin,0.3725901425161405,0.3725901425161405,1,0.3725901425161405,1,True,,,,,,,,,,,,,25,A,2023-09-20_10h39.47.882,exp3,2022.2.2,
low_opac_v,0.4,1,0.01,3,0.82,3.5,0.01,0,0.01,4,5,Valid,0,26,76,start,lin,0.5046158420891625,0.5046158420891625,1,0.5046158420891625,1,True,,,,,,,,,,,,,25,A,2023-09-20_10h39.47.882,exp3,2022.2.2,
low_opac_i,0.4,1,0.01,3,0.82,3.5,0.01,0,0.01,4,5,Invalid,2,26,77,start,lin,1,0,0,1,0,True,,,,,,,,,,,,,25,A,2023-09-20_10h39.47.882,exp3,2022.2.2,
low_opac_v,0.4,1,0.01,3,0.82,3.5,0.01,0,0.01,4,5,Valid,0,27,78,start,lin,0.5006543493234986,0.5006543493234986,1,0.5006543493234986,1,True,,,,,,,,,,,,,25,A,2023-09-20_10h39.47.882,exp3,2022.2.2,
low_opac_i,0.4,1,0.01,3,0.82,3.5,0.01,0,0.01,4,5,Invalid,2,27,79,start,lin,1,1,1,1,1,True,,,,,,,,,,,,,25,A,2023-09-20_10h39.47.882,exp3,2022.2.2,
high_opac_v,0.01,1,0.01,3,0.82,3.5,0.01,0,0.01,4,5,Valid,1,27,80,start,lin,0.3688315250270828,0.3688315250270828,1,0.3688315250270828,1,True,,,,,,,,,,,,,25,A,2023-09-20_10h39.47.882,exp3,2022.2.2,
low_opac_v,0.4,1,0.01,3,0.82,3.5,0.01,0,0.01,4,5,Valid,0,28,81,start,lin,0.4970127729826178,0.4970127729826178,1,0.4970127729826178,1,True,,,,,,,,,,,,,25,A,2023-09-20_10h39.47.882,exp3,2022.2.2,
high_opac_v,0.01,1,0.01,3,0.82,3.5,0.01,0,0.01,4,5,Valid,1,28,82,start,lin,0.3654055176078204,0.3654055176078204,1,0.3654055176078204,1,True,,,,,,,,,,,,,25,A,2023-09-20_10h39.47.882,exp3,2022.2.2,
low_opac_i,0.4,1,0.01,3,0.82,3.5,0.01,0,0.01,4,5,Invalid,2,28,83,start,lin,1,0,0,1,0,True,,,,,,,,,,,,,25,A,2023-09-20_10h39.47.882,exp3,2022.2.2,
low_opac_v,0.4,1,0.01,3,0.82,3.5,0.01,0,0.01,4,5,Valid,0,29,84,start,lin,0.4936846181801592,0,0,0.4936846181801592,0,True,,,,,,,,,,,,,25,A,2023-09-20_10h39.47.882,exp3,2022.2.2,
low_opac_i,0.4,1,0.01,3,0.82,3.5,0.01,0,0.01,4,5,Invalid,2,29,85,start,lin,1,0,0,1,0,True,,,,,,,,,,,,,25,A,2023-09-20_10h39.47.882,exp3,2022.2.2,
high_opac_v,0.01,1,0.01,3,0.82,3.5,0.01,0,0.01,4,5,Valid,1,29,86,start,lin,0.36222839905620197,0.36222839905620197,1,0.36222839905620197,1,True,,,,,,,,,,,,,25,A,2023-09-20_10h39.47.882,exp3,2022.2.2,
high_opac_v,0.01,1,0.01,3,0.82,3.5,0.01,0,0.01,4,5,Valid,1,30,87,start,lin,0.3589608940404751,0,0,0.3589608940404751,0,True,,,,,,,,,,,,,25,A,2023-09-20_10h39.47.882,exp3,2022.2.2,
low_opac_v,0.4,1,0.01,3,0.82,3.5,0.01,0,0.01,4,5,Valid,0,30,88,start,lin,0.5065135104973097,0,0,0.5065135104973097,0,True,,,,,,,,,,,,,25,A,2023-09-20_10h39.47.882,exp3,2022.2.2,
low_opac_i,0.4,1,0.01,3,0.82,3.5,0.01,0,0.01,4,5,Invalid,2,30,89,start,lin,1,0,0,1,0,True,,,,,,,,,,,,,25,A,2023-09-20_10h39.47.882,exp3,2022.2.2,
high_opac_v,0.01,1,0.01,3,0.82,3.5,0.01,0,0.01,4,5,Valid,1,31,90,start,lin,0.3713464340416218,0.3713464340416218,1,0.3713464340416218,1,True,,,,,,,,,,,,,25,A,2023-09-20_10h39.47.882,exp3,2022.2.2,
low_opac_v,0.4,1,0.01,3,0.82,3.5,0.01,0,0.01,4,5,Valid,0,31,91,start,lin,0.5196929660800412,0.5196929660800412,1,0.5196929660800412,1,True,,,,,,,,,,,,,25,A,2023-09-20_10h39.47.882,exp3,2022.2.2,
low_opac_i,0.4,1,0.01,3,0.82,3.5,0.01,0,0.01,4,5,Invalid,2,31,92,start,lin,1,0,0,1,0,True,,,,,,,,,,,,,25,A,2023-09-20_10h39.47.882,exp3,2022.2.2,
high_opac_v,0.01,1,0.01,3,0.82,3.5,0.01,0,0.01,4,5,Valid,1,32,93,start,lin,0.3683298733149428,0,0,0.3683298733149428,0,True,,,,,,,,,,,,,25,A,2023-09-20_10h39.47.882,exp3,2022.2.2,
low_opac_i,0.4,1,0.01,3,0.82,3.5,0.01,0,0.01,4,5,Invalid,2,32,94,start,lin,1,1,1,1,1,True,,,,,,,,,,,,,25,A,2023-09-20_10h39.47.882,exp3,2022.2.2,
low_opac_v,0.4,1,0.01,3,0.82,3.5,0.01,0,0.01,4,5,Valid,0,32,95,start,lin,0.5165731154547445,0.5165731154547445,1,0.5165731154547445,1,True,,,,,,,,,,,,,25,A,2023-09-20_10h39.47.882,exp3,2022.2.2,
low_opac_i,0.4,1,0.01,3,0.82,3.5,0.01,0,0.01,4,5,Invalid,2,33,96,start,lin,1,1,1,1,1,True,,,,,,,,,,,,,25,A,2023-09-20_10h39.47.882,exp3,2022.2.2,
low_opac_v,0.4,1,0.01,3,0.82,3.5,0.01,0,0.01,4,5,Valid,0,33,97,start,lin,0.5136846467978194,0,0,0.5136846467978194,0,True,,,,,,,,,,,,,25,A,2023-09-20_10h39.47.882,exp3,2022.2.2,
high_opac_v,0.01,1,0.01,3,0.82,3.5,0.01,0,0.01,4,5,Valid,1,33,98,start,lin,0.3799354447948967,0.3799354447948967,1,0.3799354447948967,1,True,,,,,,,,,,,,,25,A,2023-09-20_10h39.47.882,exp3,2022.2.2,
high_opac_v,0.01,1,0.01,3,0.82,3.5,0.01,0,0.01,4,5,Valid,1,34,99,start,lin,0.37716501273815767,0.37716501273815767,1,0.37716501273815767,1,True,,,,,,,,,,,,,25,A,2023-09-20_10h39.47.882,exp3,2022.2.2,
low_opac_i,0.4,1,0.01,3,0.82,3.5,0.01,0,0.01,4,5,Invalid,2,34,100,start,lin,1,1,1,1,1,True,,,,,,,,,,,,,25,A,2023-09-20_10h39.47.882,exp3,2022.2.2,
low_opac_v,0.4,1,0.01,3,0.82,3.5,0.01,0,0.01,4,5,Valid,0,34,101,start,lin,0.5249990190107348,0,0,0.5249990190107348,0,True,,,,,,,,,,,,,25,A,2023-09-20_10h39.47.882,exp3,2022.2.2,
low_opac_v,0.4,1,0.01,3,0.82,3.5,0.01,0,0.01,4,5,Valid,0,35,102,start,lin,0.5360040195313719,0,0,0.5360040195313719,0,True,,,,,,,,,,,,,25,A,2023-09-20_10h39.47.882,exp3,2022.2.2,
low_opac_i,0.4,1,0.01,3,0.82,3.5,0.01,0,0.01,4,5,Invalid,2,35,103,start,lin,1,1,1,1,1,True,,,,,,,,,,,,,25,A,2023-09-20_10h39.47.882,exp3,2022.2.2,
high_opac_v,0.01,1,0.01,3,0.82,3.5,0.01,0,0.01,4,5,Valid,1,35,104,start,lin,0.3745866679404725,0,0,0.3745866679404725,0,True,,,,,,,,,,,,,25,A,2023-09-20_10h39.47.882,exp3,2022.2.2,
low_opac_v,0.4,1,0.01,3,0.82,3.5,0.01,0,0.01,4,5,Valid,0,36,105,start,lin,0.5475502510488437,0,0,0.5475502510488437,0,True,,,,,,,,,,,,,25,A,2023-09-20_10h39.47.882,exp3,2022.2.2,
high_opac_v,0.01,1,0.01,3,0.82,3.5,0.01,0,0.01,4,5,Valid,1,36,106,start,lin,0.38467351754076967,0.38467351754076967,1,0.38467351754076967,1,True,,,,,,,,,,,,,25,A,2023-09-20_10h39.47.882,exp3,2022.2.2,
low_opac_i,0.4,1,0.01,3,0.82,3.5,0.01,0,0.01,4,5,Invalid,2,36,107,start,lin,1,0,0,1,0,True,,,,,,,,,,,,,25,A,2023-09-20_10h39.47.882,exp3,2022.2.2,
high_opac_v,0.01,1,0.01,3,0.82,3.5,0.01,0,0.01,4,5,Valid,1,37,108,start,lin,0.38207718532389057,0.38207718532389057,1,0.38207718532389057,1,True,,,,,,,,,,,,,25,A,2023-09-20_10h39.47.882,exp3,2022.2.2,
low_opac_i,0.4,1,0.01,3,0.82,3.5,0.01,0,0.01,4,5,Invalid,2,37,109,start,lin,1,0,0,1,0,True,,,,,,,,,,,,,25,A,2023-09-20_10h39.47.882,exp3,2022.2.2,
low_opac_v,0.4,1,0.01,3,0.82,3.5,0.01,0,0.01,4,5,Valid,0,37,110,start,lin,0.5588465305389899,0.5588465305389899,1,0.5588465305389899,1,True,,,,,,,,,,,,,25,A,2023-09-20_10h39.47.882,exp3,2022.2.2,
low_opac_v,0.4,1,0.01,3,0.82,3.5,0.01,0,0.01,4,5,Valid,0,38,111,start,lin,0.556174945381835,0.556174945381835,1,0.556174945381835,1,True,,,,,,,,,,,,,25,A,2023-09-20_10h39.47.882,exp3,2022.2.2,
low_opac_i,0.4,1,0.01,3,0.82,3.5,0.01,0,0.01,4,5,Invalid,2,38,112,start,lin,1,0,0,1,0,True,,,,,,,,,,,,,25,A,2023-09-20_10h39.47.882,exp3,2022.2.2,
high_opac_v,0.01,1,0.01,3,0.82,3.5,0.01,0,0.01,4,5,Valid,1,38,113,start,lin,0.37957559503793864,0.37957559503793864,1,0.37957559503793864,1,True,,,,,,,,,,,,,25,A,2023-09-20_10h39.47.882,exp3,2022.2.2,
low_opac_v,0.4,1,0.01,3,0.82,3.5,0.01,0,0.01,4,5,Valid,0,39,114,start,lin,0.5536762435329531,0.5536762435329531,1,0.5536762435329531,1,True,,,,,,,,,,,,,25,A,2023-09-20_10h39.47.882,exp3,2022.2.2,
low_opac_i,0.4,1,0.01,3,0.82,3.5,0.01,0,0.01,4,5,Invalid,2,39,115,start,lin,1,0,0,1,0,True,,,,,,,,,,,,,25,A,2023-09-20_10h39.47.882,exp3,2022.2.2,
high_opac_v,0.01,1,0.01,3,0.82,3.5,0.01,0,0.01,4,5,Valid,1,39,116,start,lin,0.3772294283890422,0,0,0.3772294283890422,0,True,,,,,,,,,,,,,25,A,2023-09-20_10h39.47.882,exp3,2022.2.2,
low_opac_i,0.4,1,0.01,3,0.82,3.5,0.01,0,0.01,4,5,Invalid,2,40,117,start,lin,1,0,0,1,0,True,,,,,,,,,,,,,25,A,2023-09-20_10h39.47.882,exp3,2022.2.2,
high_opac_v,0.01,1,0.01,3,0.82,3.5,0.01,0,0.01,4,5,Valid,1,40,118,start,lin,0.38666887846458176,0.38666887846458176,1,0.38666887846458176,1,True,,,,,,,,,,,,,25,A,2023-09-20_10h39.47.882,exp3,2022.2.2,
low_opac_v,0.4,1,0.01,3,0.82,3.5,0.01,0,0.01,4,5,Valid,0,40,119,start,lin,0.5510864505584223,0,0,0.5510864505584223,0,True,,,,,,,,,,,,,25,A,2023-09-20_10h39.47.882,exp3,2022.2.2,
high_opac_v,0.01,1,0.01,3,0.82,3.5,0.01,0,0.01,4,5,Valid,1,41,120,start,lin,0.3845280502408911,0,0,0.3845280502408911,0,True,,,,,,,,,,,,,25,A,2023-09-20_10h39.47.882,exp3,2022.2.2,
low_opac_v,0.4,1,0.01,3,0.82,3.5,0.01,0,0.01,4,5,Valid,0,41,121,start,lin,0.5608457921640462,0,0,0.5608457921640462,0,True,,,,,,,,,,,,,25,A,2023-09-20_10h39.47.882,exp3,2022.2.2,
low_opac_i,0.4,1,0.01,3,0.82,3.5,0.01,0,0.01,4,5,Invalid,2,41,122,start,lin,1,1,1,1,1,True,,,,,,,,,,,,,25,A,2023-09-20_10h39.47.882,exp3,2022.2.2,
high_opac_v,0.01,1,0.01,3,0.82,3.5,0.01,0,0.01,4,5,Valid,1,42,123,start,lin,0.3930662379200811,0.3930662379200811,1,0.3930662379200811,1,True,,,,,,,,,,,,,25,A,2023-09-20_10h39.47.882,exp3,2022.2.2,
low_opac_i,0.4,1,0.01,3,0.82,3.5,0.01,0,0.01,4,5,Invalid,2,42,124,start,lin,1,0,0,1,0,True,,,,,,,,,,,,,25,A,2023-09-20_10h39.47.882,exp3,2022.2.2,
low_opac_v,0.4,1,0.01,3,0.82,3.5,0.01,0,0.01,4,5,Valid,0,42,125,start,lin,0.5704991821549956,0,0,0.5704991821549956,0,True,,,,,,,,,,,,,25,A,2023-09-20_10h39.47.882,exp3,2022.2.2,
low_opac_v,0.4,1,0.01,3,0.82,3.5,0.01,0,0.01,4,5,Valid,0,43,126,start,lin,0.5800727016684998,0.5800727016684998,1,0.5800727016684998,1,True,,,,,,,,,,,,,25,A,2023-09-20_10h39.47.882,exp3,2022.2.2,
low_opac_i,0.4,1,0.01,3,0.82,3.5,0.01,0,0.01,4,5,Invalid,2,43,127,start,lin,1,1,1,1,1,True,,,,,,,,,,,,,25,A,2023-09-20_10h39.47.882,exp3,2022.2.2,
high_opac_v,0.01,1,0.01,3,0.82,3.5,0.01,0,0.01,4,5,Valid,1,43,128,start,lin,0.39088270442250467,0.39088270442250467,1,0.39088270442250467,1,True,,,,,,,,,,,,,25,A,2023-09-20_10h39.47.882,exp3,2022.2.2,
low_opac_v,0.4,1,0.01,3,0.82,3.5,0.01,0,0.01,4,5,Valid,0,44,129,start,lin,0.5777193154013136,0.5777193154013136,1,0.5777193154013136,1,True,,,,,,,,,,,,,25,A,2023-09-20_10h39.47.882,exp3,2022.2.2,
high_opac_v,0.01,1,0.01,3,0.82,3.5,0.01,0,0.01,4,5,Valid,1,44,130,start,lin,0.3887727727353896,0,0,0.3887727727353896,0,True,,,,,,,,,,,,,25,A,2023-09-20_10h39.47.882,exp3,2022.2.2,
low_opac_i,0.4,1,0.01,3,0.82,3.5,0.01,0,0.01,4,5,Invalid,2,44,131,start,lin,1,0,0,1,0,True,,,,,,,,,,,,,25,A,2023-09-20_10h39.47.882,exp3,2022.2.2,
low_opac_i,0.4,1,0.01,3,0.82,3.5,0.01,0,0.01,4,5,Invalid,2,45,132,start,lin,1,0,0,1,0,True,,,,,,,,,,,,,25,A,2023-09-20_10h39.47.882,exp3,2022.2.2,
low_opac_v,0.4,1,0.01,3,0.82,3.5,0.01,0,0.01,4,5,Valid,0,45,133,start,lin,0.5755221945841582,0,0,0.5755221945841582,0,True,,,,,,,,,,,,,25,A,2023-09-20_10h39.47.882,exp3,2022.2.2,
high_opac_v,0.01,1,0.01,3,0.82,3.5,0.01,0,0.01,4,5,Valid,1,45,134,start,lin,0.39701786953636103,0.39701786953636103,1,0.39701786953636103,1,True,,,,,,,,,,,,,25,A,2023-09-20_10h39.47.882,exp3,2022.2.2,
low_opac_v,0.4,1,0.01,3,0.82,3.5,0.01,0,0.01,4,5,Valid,0,46,135,start,lin,0.5847410534187489,0,0,0.5847410534187489,0,True,,,,,,,,,,,,,25,A,2023-09-20_10h39.47.882,exp3,2022.2.2,
high_opac_v,0.01,1,0.01,3,0.82,3.5,0.01,0,0.01,4,5,Valid,1,46,136,start,lin,0.39512212271418795,0.39512212271418795,1,0.39512212271418795,1,True,,,,,,,,,,,,,25,A,2023-09-20_10h39.47.882,exp3,2022.2.2,
low_opac_i,0.4,1,0.01,3,0.82,3.5,0.01,0,0.01,4,5,Invalid,2,46,137,start,lin,1,1,1,1,1,True,,,,,,,,,,,,,25,A,2023-09-20_10h39.47.882,exp3,2022.2.2,
high_opac_v,0.01,1,0.01,3,0.82,3.5,0.01,0,0.01,4,5,Valid,1,47,138,start,lin,0.3933067578912289,0,0,0.3933067578912289,0,True,,,,,,,,,,,,,25,A,2023-09-20_10h39.47.882,exp3,2022.2.2,
low_opac_v,0.4,1,0.01,3,0.82,3.5,0.01,0,0.01,4,5,Valid,0,47,139,start,lin,0.5933017242673999,0,0,0.5933017242673999,0,True,,,,,,,,,,,,,25,A,2023-09-20_10h39.47.882,exp3,2022.2.2,
low_opac_i,0.4,1,0.01,3,0.82,3.5,0.01,0,0.01,4,5,Invalid,2,47,140,start,lin,1,0,0,1,0,True,,,,,,,,,,,,,25,A,2023-09-20_10h39.47.882,exp3,2022.2.2,
low_opac_i,0.4,1,0.01,3,0.82,3.5,0.01,0,0.01,4,5,Invalid,2,48,141,start,lin,1,0,0,1,0,True,,,,,,,,,,,,,25,A,2023-09-20_10h39.47.882,exp3,2022.2.2,
high_opac_v,0.01,1,0.01,3,0.82,3.5,0.01,0,0.01,4,5,Valid,1,48,142,start,lin,0.4007518271470967,0.4007518271470967,1,0.4007518271470967,1,True,,,,,,,,,,,,,25,A,2023-09-20_10h39.47.882,exp3,2022.2.2,
low_opac_v,0.4,1,0.01,3,0.82,3.5,0.01,0,0.01,4,5,Valid,0,48,143,start,lin,0.6018663466009541,0,0,0.6018663466009541,0,True,,,,,,,,,,,,,25,A,2023-09-20_10h39.47.882,exp3,2022.2.2,
high_opac_v,0.01,1,0.01,3,0.82,3.5,0.01,0,0.01,4,5,Valid,1,49,144,start,lin,0.3988670185924641,0.3988670185924641,1,0.3988670185924641,1,True,,,,,,,,,,,,,25,A,2023-09-20_10h39.47.882,exp3,2022.2.2,
low_opac_i,0.4,1,0.01,3,0.82,3.5,0.01,0,0.01,4,5,Invalid,2,49,145,start,lin,1,0,0,1,0,True,,,,,,,,,,,,,25,A,2023-09-20_10h39.47.882,exp3,2022.2.2,
low_opac_v,0.4,1,0.01,3,0.82,3.5,0.01,0,0.01,4,5,Valid,0,49,146,start,lin,0.6104365531057031,0,0,0.6104365531057031,0,True,,,,,,,,,,,,,25,A,2023-09-20_10h39.47.882,exp3,2022.2.2,
low_opac_i,0.4,1,0.01,3,0.82,3.5,0.01,0,0.01,4,5,Invalid,2,50,147,start,lin,1,0,0,1,0,True,,,,,,,,,,,,,25,A,2023-09-20_10h39.47.882,exp3,2022.2.2,
low_opac_v,0.4,1,0.01,3,0.82,3.5,0.01,0,0.01,4,5,Valid,0,50,148,start,lin,0.619039254093111,0,0,0.619039254093111,0,True,,,,,,,,,,,,,25,A,2023-09-20_10h39.47.882,exp3,2022.2.2,
high_opac_v,0.01,1,0.01,3,0.82,3.5,0.01,0,0.01,4,5,Valid,1,50,149,start,lin,0.39709408986067474,0.39709408986067474,1,0.39709408986067474,1,True,,,,,,,,,,,,,25,A,2023-09-20_10h39.47.882,exp3,2022.2.2,
high_opac_v,0.01,1,0.01,3,0.82,3.5,0.01,0,0.01,4,5,Valid,1,51,150,start,lin,0.3954101005915741,0,0,0.3954101005915741,0,True,,,,,,,,,,,,,25,A,2023-09-20_10h39.47.882,exp3,2022.2.2,
low_opac_v,0.4,1,0.01,3,0.82,3.5,0.01,0,0.01,4,5,Valid,0,51,151,start,lin,0.6277051908412956,0,0,0.6277051908412956,0,True,,,,,,,,,,,,,25,A,2023-09-20_10h39.47.882,exp3,2022.2.2,
low_opac_i,0.4,1,0.01,3,0.82,3.5,0.01,0,0.01,4,5,Invalid,2,51,152,start,lin,1,1,1,1,1,True,,,,,,,,,,,,,25,A,2023-09-20_10h39.47.882,exp3,2022.2.2,
high_opac_v,0.01,1,0.01,3,0.82,3.5,0.01,0,0.01,4,5,Valid,1,52,153,start,lin,0.40266705030591593,0.40266705030591593,1,0.40266705030591593,1,True,,,,,,,,,,,,,25,A,2023-09-20_10h39.47.882,exp3,2022.2.2,
low_opac_v,0.4,1,0.01,3,0.82,3.5,0.01,0,0.01,4,5,Valid,0,52,154,start,lin,0.6364269641679408,0.6364269641679408,1,0.6364269641679408,1,True,,,,,,,,,,,,,25,A,2023-09-20_10h39.47.882,exp3,2022.2.2,
low_opac_i,0.4,1,0.01,3,0.82,3.5,0.01,0,0.01,4,5,Invalid,2,52,155,start,lin,1,1,1,1,1,True,,,,,,,,,,,,,25,A,2023-09-20_10h39.47.882,exp3,2022.2.2,
low_opac_v,0.4,1,0.01,3,0.82,3.5,0.01,0,0.01,4,5,Valid,0,53,156,start,lin,0.6344260268522297,0.6344260268522297,1,0.6344260268522297,1,True,,,,,,,,,,,,,25,A,2023-09-20_10h39.47.882,exp3,2022.2.2,
low_opac_i,0.4,1,0.01,3,0.82,3.5,0.01,0,0.01,4,5,Invalid,2,53,157,start,lin,1,1,1,1,1,True,,,,,,,,,,,,,25,A,2023-09-20_10h39.47.882,exp3,2022.2.2,
high_opac_v,0.01,1,0.01,3,0.82,3.5,0.01,0,0.01,4,5,Valid,1,53,158,start,lin,0.4009387176718808,0.4009387176718808,1,0.4009387176718808,1,True,,,,,,,,,,,,,25,A,2023-09-20_10h39.47.882,exp3,2022.2.2,
high_opac_v,0.01,1,0.01,3,0.82,3.5,0.01,0,0.01,4,5,Valid,1,54,159,start,lin,0.399243400580688,0,0,0.399243400580688,0,True,,,,,,,,,,,,,25,A,2023-09-20_10h39.47.882,exp3,2022.2.2,
low_opac_v,0.4,1,0.01,3,0.82,3.5,0.01,0,0.01,4,5,Valid,0,54,160,start,lin,0.632341490153304,0.632341490153304,1,0.632341490153304,1,True,,,,,,,,,,,,,25,A,2023-09-20_10h39.47.882,exp3,2022.2.2,
low_opac_i,0.4,1,0.01,3,0.82,3.5,0.01,0,0.01,4,5,Invalid,2,54,161,start,lin,1,0,0,1,0,True,,,,,,,,,,,,,25,A,2023-09-20_10h39.47.882,exp3,2022.2.2,
high_opac_v,0.01,1,0.01,3,0.82,3.5,0.01,0,0.01,4,5,Valid,1,55,162,start,lin,0.4058765571089343,0,0,0.4058765571089343,0,True,,,,,,,,,,,,,25,A,2023-09-20_10h39.47.882,exp3,2022.2.2,
low_opac_i,0.4,1,0.01,3,0.82,3.5,0.01,0,0.01,4,5,Invalid,2,55,163,start,lin,1,1,1,1,1,True,,,,,,,,,,,,,25,A,2023-09-20_10h39.47.882,exp3,2022.2.2,
low_opac_v,0.4,1,0.01,3,0.82,3.5,0.01,0,0.01,4,5,Valid,0,55,164,start,lin,0.6303156073323934,0.6303156073323934,1,0.6303156073323934,1,True,,,,,,,,,,,,,25,A,2023-09-20_10h39.47.882,exp3,2022.2.2,
low_opac_i,0.4,1,0.01,3,0.82,3.5,0.01,0,0.01,4,5,Invalid,2,56,165,start,lin,1,0,0,1,0,True,,,,,,,,,,,,,25,A,2023-09-20_10h39.47.882,exp3,2022.2.2,
high_opac_v,0.01,1,0.01,3,0.82,3.5,0.01,0,0.01,4,5,Valid,1,56,166,start,lin,0.4126068198063801,0.4126068198063801,1,0.4126068198063801,1,True,,,,,,,,,,,,,25,A,2023-09-20_10h39.47.882,exp3,2022.2.2,
low_opac_v,0.4,1,0.01,3,0.82,3.5,0.01,0,0.01,4,5,Valid,0,56,167,start,lin,0.6283801765785253,0,0,0.6283801765785253,0,True,,,,,,,,,,,,,25,A,2023-09-20_10h39.47.882,exp3,2022.2.2,
low_opac_i,0.4,1,0.01,3,0.82,3.5,0.01,0,0.01,4,5,Invalid,2,57,168,start,lin,1,0,0,1,0,True,,,,,,,,,,,,,25,A,2023-09-20_10h39.47.882,exp3,2022.2.2,
low_opac_v,0.4,1,0.01,3,0.82,3.5,0.01,0,0.01,4,5,Valid,0,57,169,start,lin,0.6360681100979314,0,0,0.6360681100979314,0,True,,,,,,,,,,,,,25,A,2023-09-20_10h39.47.882,exp3,2022.2.2,
high_opac_v,0.01,1,0.01,3,0.82,3.5,0.01,0,0.01,4,5,Valid,1,57,170,start,lin,0.41100054816634257,0.41100054816634257,1,0.41100054816634257,1,True,,,,,,,,,,,,,25,A,2023-09-20_10h39.47.882,exp3,2022.2.2,
low_opac_v,0.4,1,0.01,3,0.82,3.5,0.01,0,0.01,4,5,Valid,0,58,171,start,lin,0.6438444387614553,0.6438444387614553,1,0.6438444387614553,1,True,,,,,,,,,,,,,25,A,2023-09-20_10h39.47.882,exp3,2022.2.2,
low_opac_i,0.4,1,0.01,3,0.82,3.5,0.01,0,0.01,4,5,Invalid,2,58,172,start,lin,1,0,0,1,0,True,,,,,,,,,,,,,25,A,2023-09-20_10h39.47.882,exp3,2022.2.2,
high_opac_v,0.01,1,0.01,3,0.82,3.5,0.01,0,0.01,4,5,Valid,1,58,173,start,lin,0.4094183217213123,0.4094183217213123,1,0.4094183217213123,1,True,,,,,,,,,,,,,25,A,2023-09-20_10h39.47.882,exp3,2022.2.2,
high_opac_v,0.01,1,0.01,3,0.82,3.5,0.01,0,0.01,4,5,Valid,1,59,174,start,lin,0.40791571029285395,0.40791571029285395,1,0.40791571029285395,1,True,,,,,,,,,,,,,25,A,2023-09-20_10h39.47.882,exp3,2022.2.2,
low_opac_i,0.4,1,0.01,3,0.82,3.5,0.01,0,0.01,4,5,Invalid,2,59,175,start,lin,1,0,0,1,0,True,,,,,,,,,,,,,25,A,2023-09-20_10h39.47.882,exp3,2022.2.2,
low_opac_v,0.4,1,0.01,3,0.82,3.5,0.01,0,0.01,4,5,Valid,0,59,176,start,lin,0.6419661797218695,0.6419661797218695,1,0.6419661797218695,1,True,,,,,,,,,,,,,25,A,2023-09-20_10h39.47.882,exp3,2022.2.2,
high_opac_v,0.01,1,0.01,3,0.82,3.5,0.01,0,0.01,4,5,Valid,1,60,177,start,lin,0.4064868459467651,0.4064868459467651,1,0.4064868459467651,1,True,,,,,,,,,,,,,25,A,2023-09-20_10h39.47.882,exp3,2022.2.2,
low_opac_i,0.4,1,0.01,3,0.82,3.5,0.01,0,0.01,4,5,Invalid,2,60,178,start,lin,1,0,0,1,0,True,,,,,,,,,,,,,25,A,2023-09-20_10h39.47.882,exp3,2022.2.2,
low_opac_v,0.4,1,0.01,3,0.82,3.5,0.01,0,0.01,4,5,Valid,0,60,179,start,lin,0.6401280061543784,0.6401280061543784,1,0.6401280061543784,1,True,,,,,,,,,,,,,25,A,2023-09-20_10h39.47.882,exp3,2022.2.2,
low_opac_i,0.4,1,0.01,3,0.82,3.5,0.01,0,0.01,4,5,Invalid,2,61,180,start,lin,1,1,1,1,1,True,,,,,,,,,,,,,25,A,2023-09-20_10h39.47.882,exp3,2022.2.2,
high_opac_v,0.01,1,0.01,3,0.82,3.5,0.01,0,0.01,4,5,Valid,1,61,181,start,lin,0.40511547126196257,0.40511547126196257,1,0.40511547126196257,1,True,,,,,,,,,,,,,25,A,2023-09-20_10h39.47.882,exp3,2022.2.2,
low_opac_v,0.4,1,0.01,3,0.82,3.5,0.01,0,0.01,4,5,Valid,0,61,182,start,lin,0.6383710850655681,0,0,0.6383710850655681,0,True,,,,,,,,,,,,,25,A,2023-09-20_10h39.47.882,exp3,2022.2.2,
high_opac_v,0.01,1,0.01,3,0.82,3.5,0.01,0,0.01,4,5,Valid,1,62,183,start,lin,0.4037872912665505,0.4037872912665505,1,0.4037872912665505,1,True,,,,,,,,,,,,,25,A,2023-09-20_10h39.47.882,exp3,2022.2.2,
low_opac_v,0.4,1,0.01,3,0.82,3.5,0.01,0,0.01,4,5,Valid,0,62,184,start,lin,0.6454034408439482,0.6454034408439482,1,0.6454034408439482,1,True,,,,,,,,,,,,,25,A,2023-09-20_10h39.47.882,exp3,2022.2.2,
low_opac_i,0.4,1,0.01,3,0.82,3.5,0.01,0,0.01,4,5,Invalid,2,62,185,start,lin,1,0,0,1,0,True,,,,,,,,,,,,,25,A,2023-09-20_10h39.47.882,exp3,2022.2.2,
low_opac_v,0.4,1,0.01,3,0.82,3.5,0.01,0,0.01,4,5,Valid,0,63,186,start,lin,0.6438172130123595,0,0,0.6438172130123595,0,True,,,,,,,,,,,,,25,A,2023-09-20_10h39.47.882,exp3,2022.2.2,
low_opac_i,0.4,1,0.01,3,0.82,3.5,0.01,0,0.01,4,5,Invalid,2,63,187,start,lin,1,1,1,1,1,True,,,,,,,,,,,,,25,A,2023-09-20_10h39.47.882,exp3,2022.2.2,
high_opac_v,0.01,1,0.01,3,0.82,3.5,0.01,0,0.01,4,5,Valid,1,63,188,start,lin,0.40237247327779735,0,0,0.40237247327779735,0,True,,,,,,,,,,,,,25,A,2023-09-20_10h39.47.882,exp3,2022.2.2,
low_opac_v,0.4,1,0.01,3,0.82,3.5,0.01,0,0.01,4,5,Valid,0,64,189,start,lin,0.6503280657208239,0.6503280657208239,1,0.6503280657208239,1,True,,,,,,,,,,,,,25,A,2023-09-20_10h39.47.882,exp3,2022.2.2,
high_opac_v,0.01,1,0.01,3,0.82,3.5,0.01,0,0.01,4,5,Valid,1,64,190,start,lin,0.4077951219509673,0,0,0.4077951219509673,0,True,,,,,,,,,,,,,25,A,2023-09-20_10h39.47.882,exp3,2022.2.2,
low_opac_i,0.4,1,0.01,3,0.82,3.5,0.01,0,0.01,4,5,Invalid,2,64,191,start,lin,1,1,1,1,1,True,,,,,,,,,,,,,25,A,2023-09-20_10h39.47.882,exp3,2022.2.2,
high_opac_v,0.01,1,0.01,3,0.82,3.5,0.01,0,0.01,4,5,Valid,1,65,192,start,lin,0.413462648822997,0.413462648822997,1,0.413462648822997,1,True,,,,,,,,,,,,,25,A,2023-09-20_10h39.47.882,exp3,2022.2.2,
low_opac_i,0.4,1,0.01,3,0.82,3.5,0.01,0,0.01,4,5,Invalid,2,65,193,start,lin,1,0,0,1,0,True,,,,,,,,,,,,,25,A,2023-09-20_10h39.47.882,exp3,2022.2.2,
low_opac_v,0.4,1,0.01,3,0.82,3.5,0.01,0,0.01,4,5,Valid,0,65,194,start,lin,0.6486697253434067,0,0,0.6486697253434067,0,True,,,,,,,,,,,,,25,A,2023-09-20_10h39.47.882,exp3,2022.2.2,
low_opac_v,0.4,1,0.01,3,0.82,3.5,0.01,0,0.01,4,5,Valid,0,66,195,start,lin,0.655269896182475,0,0,0.655269896182475,0,True,,,,,,,,,,,,,25,A,2023-09-20_10h39.47.882,exp3,2022.2.2,
low_opac_i,0.4,1,0.01,3,0.82,3.5,0.01,0,0.01,4,5,Invalid,2,66,196,start,lin,1,1,1,1,1,True,,,,,,,,,,,,,25,A,2023-09-20_10h39.47.882,exp3,2022.2.2,
high_opac_v,0.01,1,0.01,3,0.82,3.5,0.01,0,0.01,4,5,Valid,1,66,197,start,lin,0.412110325856362,0.412110325856362,1,0.412110325856362,1,True,,,,,,,,,,,,,25,A,2023-09-20_10h39.47.882,exp3,2022.2.2,
low_opac_v,0.4,1,0.01,3,0.82,3.5,0.01,0,0.01,4,5,Valid,0,67,198,start,lin,0.6619876797992779,0,0,0.6619876797992779,0,True,,,,,,,,,,,,,25,A,2023-09-20_10h39.47.882,exp3,2022.2.2,
high_opac_v,0.01,1,0.01,3,0.82,3.5,0.01,0,0.01,4,5,Valid,1,67,199,start,lin,0.41077167720574,0.41077167720574,1,0.41077167720574,1,True,,,,,,,,,,,,,25,A,2023-09-20_10h39.47.882,exp3,2022.2.2,
low_opac_i,0.4,1,0.01,3,0.82,3.5,0.01,0,0.01,4,5,Invalid,2,67,200,start,lin,1,0,0,1,0,True,,,,,,,,,,,,,25,A,2023-09-20_10h39.47.882,exp3,2022.2.2,
low_opac_v,0.4,1,0.01,3,0.82,3.5,0.01,0,0.01,4,5,Valid,0,68,201,start,lin,0.6682619846950446,0,0,0.6682619846950446,0,True,,,,,,,,,,,,,25,A,2023-09-20_10h39.47.882,exp3,2022.2.2,
low_opac_i,0.4,1,0.01,3,0.82,3.5,0.01,0,0.01,4,5,Invalid,2,68,202,start,lin,1,0,0,1,0,True,,,,,,,,,,,,,25,A,2023-09-20_10h39.47.882,exp3,2022.2.2,
high_opac_v,0.01,1,0.01,3,0.82,3.5,0.01,0,0.01,4,5,Valid,1,68,203,start,lin,0.4094442295333603,0,0,0.4094442295333603,0,True,,,,,,,,,,,,,25,A,2023-09-20_10h39.47.882,exp3,2022.2.2,
low_opac_v,0.4,1,0.01,3,0.82,3.5,0.01,0,0.01,4,5,Valid,0,69,204,start,lin,0.6747748856007878,0,0,0.6747748856007878,0,True,,,,,,,,,,,,,25,A,2023-09-20_10h39.47.882,exp3,2022.2.2,
high_opac_v,0.01,1,0.01,3,0.82,3.5,0.01,0,0.01,4,5,Valid,1,69,205,start,lin,0.4146649737044896,0.4146649737044896,1,0.4146649737044896,1,True,,,,,,,,,,,,,25,A,2023-09-20_10h39.47.882,exp3,2022.2.2,
low_opac_i,0.4,1,0.01,3,0.82,3.5,0.01,0,0.01,4,5,Invalid,2,69,206,start,lin,1,1,1,1,1,True,,,,,,,,,,,,,25,A,2023-09-20_10h39.47.882,exp3,2022.2.2,
low_opac_v,0.4,1,0.01,3,0.82,3.5,0.01,0,0.01,4,5,Valid,0,70,207,start,lin,0.6809304252940407,0.6809304252940407,1,0.6809304252940407,1,True,,,,,,,,,,,,,25,A,2023-09-20_10h39.47.882,exp3,2022.2.2,
high_opac_v,0.01,1,0.01,3,0.82,3.5,0.01,0,0.01,4,5,Valid,1,70,208,start,lin,0.41340004171518213,0.41340004171518213,1,0.41340004171518213,1,True,,,,,,,,,,,,,25,A,2023-09-20_10h39.47.882,exp3,2022.2.2,
low_opac_i,0.4,1,0.01,3,0.82,3.5,0.01,0,0.01,4,5,Invalid,2,70,209,start,lin,1,0,0,1,0,True,,,,,,,,,,,,,25,A,2023-09-20_10h39.47.882,exp3,2022.2.2,
low_opac_i,0.4,1,0.01,3,0.82,3.5,0.01,0,0.01,4,5,Invalid,2,71,210,start,lin,1,0,0,1,0,True,,,,,,,,,,,,,25,A,2023-09-20_10h39.47.882,exp3,2022.2.2,
low_opac_v,0.4,1,0.01,3,0.82,3.5,0.01,0,0.01,4,5,Valid,0,71,211,start,lin,0.6793375193814988,0.6793375193814988,1,0.6793375193814988,1,True,,,,,,,,,,,,,25,A,2023-09-20_10h39.47.882,exp3,2022.2.2,
high_opac_v,0.01,1,0.01,3,0.82,3.5,0.01,0,0.01,4,5,Valid,1,71,212,start,lin,0.41215617817303657,0.41215617817303657,1,0.41215617817303657,1,True,,,,,,,,,,,,,25,A,2023-09-20_10h39.47.882,exp3,2022.2.2,
high_opac_v,0.01,1,0.01,3,0.82,3.5,0.01,0,0.01,4,5,Valid,1,72,213,start,lin,0.4109223506531069,0.4109223506531069,1,0.4109223506531069,1,True,,,,,,,,,,,,,25,A,2023-09-20_10h39.47.882,exp3,2022.2.2,
low_opac_v,0.4,1,0.01,3,0.82,3.5,0.01,0,0.01,4,5,Valid,0,72,214,start,lin,0.6778327453998958,0,0,0.6778327453998958,0,True,,,,,,,,,,,,,25,A,2023-09-20_10h39.47.882,exp3,2022.2.2,
low_opac_i,0.4,1,0.01,3,0.82,3.5,0.01,0,0.01,4,5,Invalid,2,72,215,start,lin,1,1,1,1,1,True,,,,,,,,,,,,,25,A,2023-09-20_10h39.47.882,exp3,2022.2.2,
high_opac_v,0.01,1,0.01,3,0.82,3.5,0.01,0,0.01,4,5,Valid,1,73,216,start,lin,0.4096916921580428,0.4096916921580428,1,0.4096916921580428,1,True,,,,,,,,,,,,,25,A,2023-09-20_10h39.47.882,exp3,2022.2.2,
low_opac_v,0.4,1,0.01,3,0.82,3.5,0.01,0,0.01,4,5,Valid,0,73,217,start,lin,0.6840335759093847,0.6840335759093847,1,0.6840335759093847,1,True,,,,,,,,,,,,,25,A,2023-09-20_10h39.47.882,exp3,2022.2.2,
low_opac_i,0.4,1,0.01,3,0.82,3.5,0.01,0,0.01,4,5,Invalid,2,73,218,start,lin,1,1,1,1,1,True,,,,,,,,,,,,,25,A,2023-09-20_10h39.47.882,exp3,2022.2.2,
low_opac_i,0.4,1,0.01,3,0.82,3.5,0.01,0,0.01,4,5,Invalid,2,74,219,start,lin,1,0,1,1,1,True,,,,,,,,,,,,,25,A,2023-09-20_10h39.47.882,exp3,2022.2.2,
low_opac_v,0.4,1,0.01,3,0.82,3.5,0.01,0,0.01,4,5,Valid,0,74,220,start,lin,0.6825353307027495,0.6825353307027495,1,0.6825353307027495,1,True,,,,,,,,,,,,,25,A,2023-09-20_10h39.47.882,exp3,2022.2.2,
high_opac_v,0.01,1,0.01,3,0.82,3.5,0.01,0,0.01,4,5,Valid,1,74,221,start,lin,0.40850788389563797,0.40850788389563797,1,0.40850788389563797,1,True,,,,,,,,,,,,,25,A,2023-09-20_10h39.47.882,exp3,2022.2.2,
high_opac_v,0.01,1,0.01,3,0.82,3.5,0.01,0,0.01,4,5,Valid,1,75,222,start,lin,0.4073778571044447,0,0,0.4073778571044447,0,True,,,,,,,,,,,,,25,A,2023-09-20_10h39.47.882,exp3,2022.2.2,
low_opac_v,0.4,1,0.01,3,0.82,3.5,0.01,0,0.01,4,5,Valid,0,75,223,start,lin,0.6810627444373262,0,0,0.6810627444373262,0,True,,,,,,,,,,,,,25,A,2023-09-20_10h39.47.882,exp3,2022.2.2,
low_opac_i,0.4,1,0.01,3,0.82,3.5,0.01,0,0.01,4,5,Invalid,2,75,224,start,lin,1,1,1,1,1,True,,,,,,,,,,,,,25,A,2023-09-20_10h39.47.882,exp3,2022.2.2,
,,,,,,,,,,,,,,,,,,,,,,,,0,-1158,Valid,signal,-45,1,12.917360300023574,1,4.0,14.224953799974173,True,1,25,A,2023-09-20_10h39.47.882,exp3,2022.2.2,
,,,,,,,,,,,,,,,,,,,,,,,,0,-1716,Valid,signal,-45,1,8.973928400024306,1,2.0,10.282206700008828,True,1,25,A,2023-09-20_10h39.47.882,exp3,2022.2.2,
,,,,,,,,,,,,,,,,,,,,,,,,0,557,Valid,noise,45,1,1.972101199964527,0,4.0,3.2797563999774866,True,1,25,A,2023-09-20_10h39.47.882,exp3,2022.2.2,
,,,,,,,,,,,,,,,,,,,,,,,,0,1716,Valid,signal,-45,1,5.089896899997257,1,3.0,6.397668299963698,True,1,25,A,2023-09-20_10h39.47.882,exp3,2022.2.2,
,,,,,,,,,,,,,,,,,,,,,,,,0,-2274,Valid,signal,45,1,2.9715364999719895,1,3.0,4.279545800003689,True,1,25,A,2023-09-20_10h39.47.882,exp3,2022.2.2,
,,,,,,,,,,,,,,,,,,,,,,,,0,-2274,Valid,signal,-45,1,5.373741400020663,1,4.0,6.681489800044801,True,1,25,A,2023-09-20_10h39.47.882,exp3,2022.2.2,
,,,,,,,,,,,,,,,,,,,,,,,,0,557,Valid,noise,45,1,2.1547424999880604,0,4.0,3.462575100013055,True,1,25,A,2023-09-20_10h39.47.882,exp3,2022.2.2,
,,,,,,,,,,,,,,,,,,,,,,,,0,-1158,Valid,signal,-45,1,3.6553204000229016,1,2.0,4.963397899991833,True,1,25,A,2023-09-20_10h39.47.882,exp3,2022.2.2,
,,,,,,,,,,,,,,,,,,,,,,,,0,-1158,Valid,signal,-45,1,9.44223799998872,1,2.0,10.749835999973584,True,1,25,A,2023-09-20_10h39.47.882,exp3,2022.2.2,
,,,,,,,,,,,,,,,,,,,,,,,,0,-1716,Invalid,noise,-45,1,1.8707141000195406,0,4.0,3.1787050999701023,True,1,25,A,2023-09-20_10h39.47.882,exp3,2022.2.2,
,,,,,,,,,,,,,,,,,,,,,,,,0,-1716,Valid,noise,-45,1,1.6886418999638408,0,4.0,2.9964384000049904,True,1,25,A,2023-09-20_10h39.47.882,exp3,2022.2.2,
,,,,,,,,,,,,,,,,,,,,,,,,0,-557,Valid,signal,-45,1,3.8556485999724828,1,3.0,5.1636918999720365,True,1,25,A,2023-09-20_10h39.47.882,exp3,2022.2.2,
,,,,,,,,,,,,,,,,,,,,,,,,0,1158,Valid,signal,45,1,4.539445300004445,1,2.0,5.847234999993816,True,1,25,A,2023-09-20_10h39.47.882,exp3,2022.2.2,
,,,,,,,,,,,,,,,,,,,,,,,,0,2274,Valid,signal,-45,1,3.6734892000094987,1,4.0,4.981165100005455,True,1,25,A,2023-09-20_10h39.47.882,exp3,2022.2.2,
,,,,,,,,,,,,,,,,,,,,,,,,0,-2274,Valid,signal,45,1,2.12141210003756,1,4.0,3.4293359000002965,True,1,25,A,2023-09-20_10h39.47.882,exp3,2022.2.2,
,,,,,,,,,,,,,,,,,,,,,,,,0,2274,Valid,noise,-45,1,1.238488500006497,0,4.0,2.5461237999843433,True,1,25,A,2023-09-20_10h39.47.882,exp3,2022.2.2,
,,,,,,,,,,,,,,,,,,,,,,,,0,1716,Valid,signal,-45,1,2.422323899983894,1,3.0,3.7301149999839254,True,1,25,A,2023-09-20_10h39.47.882,exp3,2022.2.2,
,,,,,,,,,,,,,,,,,,,,,,,,0,2274,Invalid,noise,45,1,1.737940399965737,0,4.0,3.045725899981335,True,1,25,A,2023-09-20_10h39.47.882,exp3,2022.2.2,
,,,,,,,,,,,,,,,,,,,,,,,,0,1716,Valid,noise,45,1,2.32178549998207,0,4.0,3.629623699991498,True,1,25,A,2023-09-20_10h39.47.882,exp3,2022.2.2,
,,,,,,,,,,,,,,,,,,,,,,,,0,1158,Valid,signal,45,1,3.0389646000112407,1,2.0,4.3467127999756485,True,1,25,A,2023-09-20_10h39.47.882,exp3,2022.2.2,
,,,,,,,,,,,,,,,,,,,,,,,,0,-2274,Invalid,signal,-45,1,1.3718032999895513,1,4.0,2.679846200044267,True,1,25,A,2023-09-20_10h39.47.882,exp3,2022.2.2,
,,,,,,,,,,,,,,,,,,,,,,,,0,557,Valid,signal,45,2,14.943792700010817,0,2.0,16.2515710000298,True,1,25,A,2023-09-20_10h39.47.882,exp3,2022.2.2,
,,,,,,,,,,,,,,,,,,,,,,,,0,1158,Valid,signal,-45,1,14.275867499993183,1,2.0,15.583824199973606,True,1,25,A,2023-09-20_10h39.47.882,exp3,2022.2.2,
,,,,,,,,,,,,,,,,,,,,,,,,0,-1716,Valid,noise,45,1,1.4715085999923758,0,4.0,2.7794032000238076,True,1,25,A,2023-09-20_10h39.47.882,exp3,2022.2.2,
,,,,,,,,,,,,,,,,,,,,,,,,0,2274,Invalid,signal,-45,1,1.1884217000333592,1,4.0,2.496198699984234,True,1,25,A,2023-09-20_10h39.47.882,exp3,2022.2.2,
,,,,,,,,,,,,,,,,,,,,,,,,0,-557,Valid,signal,45,2,5.623390000022482,0,3.0,6.931414199993014,True,1,25,A,2023-09-20_10h39.47.882,exp3,2022.2.2,
,,,,,,,,,,,,,,,,,,,,,,,,0,-1716,Valid,noise,45,1,1.4048642999841832,0,4.0,2.7127293999656104,True,1,25,A,2023-09-20_10h39.47.882,exp3,2022.2.2,
,,,,,,,,,,,,,,,,,,,,,,,,0,-1716,Valid,noise,-45,1,5.207097899983637,0,4.0,6.514815700007603,True,1,25,A,2023-09-20_10h39.47.882,exp3,2022.2.2,
,,,,,,,,,,,,,,,,,,,,,,,,0,-2274,Valid,signal,45,1,1.138599300000351,1,4.0,2.4461486999643967,True,1,25,A,2023-09-20_10h39.47.882,exp3,2022.2.2,
,,,,,,,,,,,,,,,,,,,,,,,,0,-1716,Valid,signal,-45,2,2.3549243000452407,0,3.0,3.662720199965406,True,1,25,A,2023-09-20_10h39.47.882,exp3,2022.2.2,
,,,,,,,,,,,,,,,,,,,,,,,,0,1158,Valid,signal,-45,2,3.6721980000147596,0,2.0,4.980032299994491,True,1,25,A,2023-09-20_10h39.47.882,exp3,2022.2.2,
,,,,,,,,,,,,,,,,,,,,,,,,0,-2274,Valid,noise,-45,1,2.088766200002283,0,4.0,3.396678699995391,True,1,25,A,2023-09-20_10h39.47.882,exp3,2022.2.2,
,,,,,,,,,,,,,,,,,,,,,,,,0,557,Valid,noise,-45,1,2.2055394999915734,0,4.0,3.513083200028632,True,1,25,A,2023-09-20_10h39.47.882,exp3,2022.2.2,
,,,,,,,,,,,,,,,,,,,,,,,,0,-1158,Valid,signal,45,2,2.8892066000262275,0,2.0,4.196863799996208,True,1,25,A,2023-09-20_10h39.47.882,exp3,2022.2.2,
,,,,,,,,,,,,,,,,,,,,,,,,0,557,Valid,noise,45,1,3.2213365000206977,0,4.0,4.529400100000203,True,1,25,A,2023-09-20_10h39.47.882,exp3,2022.2.2,
,,,,,,,,,,,,,,,,,,,,,,,,0,-1158,Valid,signal,-45,2,4.072372599970549,0,3.0,5.380438300024252,True,1,25,A,2023-09-20_10h39.47.882,exp3,2022.2.2,
,,,,,,,,,,,,,,,,,,,,,,,,0,1716,Valid,noise,45,1,2.289275799994357,0,4.0,3.597080100036692,True,1,25,A,2023-09-20_10h39.47.882,exp3,2022.2.2,
,,,,,,,,,,,,,,,,,,,,,,,,0,-1158,Valid,noise,-45,1,1.871454400010407,0,4.0,3.1793315000250004,True,1,25,A,2023-09-20_10h39.47.882,exp3,2022.2.2,
,,,,,,,,,,,,,,,,,,,,,,,,0,-1158,Valid,signal,-45,2,9.208241200016346,0,2.0,10.515931600006297,True,1,25,A,2023-09-20_10h39.47.882,exp3,2022.2.2,
,,,,,,,,,,,,,,,,,,,,,,,,0,-557,Valid,signal,-45,2,3.5054361000075005,0,4.0,4.813125499989837,True,1,25,A,2023-09-20_10h39.47.882,exp3,2022.2.2,
,,,,,,,,,,,,,,,,,,,,,,,,0,2274,Valid,noise,45,1,1.088848199986387,0,4.0,2.3965319999842905,True,1,25,A,2023-09-20_10h39.47.882,exp3,2022.2.2,
,,,,,,,,,,,,,,,,,,,,,,,,0,-1158,Valid,noise,-45,1,1.338405899994541,0,4.0,2.645979300024919,True,1,25,A,2023-09-20_10h39.47.882,exp3,2022.2.2,
,,,,,,,,,,,,,,,,,,,,,,,,0,-557,Valid,signal,45,2,2.5877502000075765,0,3.0,3.895652700040955,True,1,25,A,2023-09-20_10h39.47.882,exp3,2022.2.2,
,,,,,,,,,,,,,,,,,,,,,,,,0,2274,Valid,signal,45,1,1.0221048999810591,1,4.0,2.3300052999984473,True,1,25,A,2023-09-20_10h39.47.882,exp3,2022.2.2,
,,,,,,,,,,,,,,,,,,,,,,,,0,-2274,Valid,noise,45,1,2.53881460003322,0,4.0,3.8464698999887332,True,1,25,A,2023-09-20_10h39.47.882,exp3,2022.2.2,
,,,,,,,,,,,,,,,,,,,,,,,,0,-2274,Valid,noise,45,1,2.454906899947673,0,3.0,3.762899200024549,True,1,25,A,2023-09-20_10h39.47.882,exp3,2022.2.2,
,,,,,,,,,,,,,,,,,,,,,,,,0,2274,Invalid,noise,-45,1,1.0386983000207692,0,4.0,2.346378799993545,True,1,25,A,2023-09-20_10h39.47.882,exp3,2022.2.2,
,,,,,,,,,,,,,,,,,,,,,,,,0,557,Valid,noise,-45,1,1.6378517000121064,0,4.0,2.9458105000085197,True,1,25,A,2023-09-20_10h39.47.882,exp3,2022.2.2,
,,,,,,,,,,,,,,,,,,,,,,,,0,-557,Valid,signal,45,2,3.9558549000066705,0,2.0,5.263737000001129,True,1,25,A,2023-09-20_10h39.47.882,exp3,2022.2.2,
,,,,,,,,,,,,,,,,,,,,,,,,0,557,Valid,signal,45,2,2.2885663000051863,0,3.0,3.596324799989816,True,1,25,A,2023-09-20_10h39.47.882,exp3,2022.2.2,
,,,,,,,,,,,,,,,,,,,,,,,,0,-557,Invalid,noise,-45,2,4.939984800003003,1,1.0,6.24779390002368,True,1,25,A,2023-09-20_10h39.47.882,exp3,2022.2.2,
,,,,,,,,,,,,,,,,,,,,,,,,0,-2274,Valid,noise,-45,1,1.455663700005971,0,4.0,2.7633121999679133,True,1,25,A,2023-09-20_10h39.47.882,exp3,2022.2.2,
,,,,,,,,,,,,,,,,,,,,,,,,0,-1716,Invalid,noise,-45,1,1.2040781000396237,0,4.0,2.5121970000327565,True,1,25,A,2023-09-20_10h39.47.882,exp3,2022.2.2,
,,,,,,,,,,,,,,,,,,,,,,,,0,2274,Valid,signal,45,1,2.2556780999875627,1,3.0,3.5632675000233576,True,1,25,A,2023-09-20_10h39.47.882,exp3,2022.2.2,
,,,,,,,,,,,,,,,,,,,,,,,,0,1716,Valid,noise,-45,1,1.4051765999756753,0,4.0,2.7126598000177182,True,1,25,A,2023-09-20_10h39.47.882,exp3,2022.2.2,
,,,,,,,,,,,,,,,,,,,,,,,,0,-557,Valid,noise,45,1,3.0892471999977715,0,2.0,4.397037899994757,True,1,25,A,2023-09-20_10h39.47.882,exp3,2022.2.2,
,,,,,,,,,,,,,,,,,,,,,,,,0,557,Valid,signal,-45,2,3.455536400026176,0,3.0,4.7632218999788165,True,1,25,A,2023-09-20_10h39.47.882,exp3,2022.2.2,
,,,,,,,,,,,,,,,,,,,,,,,,0,-557,Valid,noise,-45,2,3.406081199995242,1,1.0,4.713843600009568,True,1,25,A,2023-09-20_10h39.47.882,exp3,2022.2.2,
,,,,,,,,,,,,,,,,,,,,,,,,0,2274,Valid,signal,45,1,3.1387739999918267,1,2.0,4.4467160000349395,True,1,25,A,2023-09-20_10h39.47.882,exp3,2022.2.2,
,,,,,,,,,,,,,,,,,,,,,,,,0,-1716,Valid,noise,45,1,3.5893331000115722,0,2.0,4.896903100016061,True,1,25,A,2023-09-20_10h39.47.882,exp3,2022.2.2,
,,,,,,,,,,,,,,,,,,,,,,,,0,-1716,Valid,signal,-45,2,3.6050831000320613,0,2.0,4.9128702999441884,True,1,25,A,2023-09-20_10h39.47.882,exp3,2022.2.2,
,,,,,,,,,,,,,,,,,,,,,,,,0,557,Valid,noise,45,2,4.2560170000069775,1,1.0,5.563920699991286,True,1,25,A,2023-09-20_10h39.47.882,exp3,2022.2.2,
,,,,,,,,,,,,,,,,,,,,,,,,0,1158,Valid,signal,-45,2,3.1892405999824405,0,3.0,4.497099400032312,True,1,25,A,2023-09-20_10h39.47.882,exp3,2022.2.2,
,,,,,,,,,,,,,,,,,,,,,,,,0,1716,Valid,signal,-45,2,4.305897900019772,0,3.0,5.613895299960859,True,1,25,A,2023-09-20_10h39.47.882,exp3,2022.2.2,
,,,,,,,,,,,,,,,,,,,,,,,,0,2274,Valid,noise,-45,1,2.32245849998435,0,3.0,3.630224199965596,True,1,25,A,2023-09-20_10h39.47.882,exp3,2022.2.2,
,,,,,,,,,,,,,,,,,,,,,,,,0,2274,Valid,noise,45,1,7.05672950000735,0,1.0,8.364622300025076,True,1,25,A,2023-09-20_10h39.47.882,exp3,2022.2.2,
,,,,,,,,,,,,,,,,,,,,,,,,0,2274,Valid,signal,45,1,4.48931650002487,1,2.0,5.797427999961656,True,1,25,A,2023-09-20_10h39.47.882,exp3,2022.2.2,
,,,,,,,,,,,,,,,,,,,,,,,,0,-557,Valid,noise,45,2,2.1552605000324547,1,4.0,3.4631121999700554,True,1,25,A,2023-09-20_10h39.47.882,exp3,2022.2.2,
,,,,,,,,,,,,,,,,,,,,,,,,0,-1158,Invalid,noise,-45,1,2.055028000031598,0,4.0,3.363033000030555,True,1,25,A,2023-09-20_10h39.47.882,exp3,2022.2.2,
,,,,,,,,,,,,,,,,,,,,,,,,0,-1158,Invalid,signal,-45,2,3.622243299963884,0,2.0,4.930166900041513,True,1,25,A,2023-09-20_10h39.47.882,exp3,2022.2.2,
,,,,,,,,,,,,,,,,,,,,,,,,0,1716,Valid,noise,-45,1,1.93843989999732,0,4.0,3.2462361000361852,True,1,25,A,2023-09-20_10h39.47.882,exp3,2022.2.2,
,,,,,,,,,,,,,,,,,,,,,,,,0,1716,Valid,signal,45,2,2.205733100010548,0,3.0,3.513591199996881,True,1,25,A,2023-09-20_10h39.47.882,exp3,2022.2.2,
,,,,,,,,,,,,,,,,,,,,,,,,0,557,Invalid,signal,-45,2,4.839354600000661,0,3.0,6.147298199997749,True,1,25,A,2023-09-20_10h39.47.882,exp3,2022.2.2,
,,,,,,,,,,,,,,,,,,,,,,,,0,-2274,Valid,signal,45,1,2.372635999985505,1,3.0,3.6801227999967523,True,1,25,A,2023-09-20_10h39.47.882,exp3,2022.2.2,
,,,,,,,,,,,,,,,,,,,,,,,,0,-1158,Invalid,noise,-45,1,1.0546983999665827,0,4.0,2.3624502000166103,True,1,25,A,2023-09-20_10h39.47.882,exp3,2022.2.2,
,,,,,,,,,,,,,,,,,,,,,,,,0,1716,Valid,noise,-45,1,1.4876887000282295,0,4.0,2.7956296000047587,True,1,25,A,2023-09-20_10h39.47.882,exp3,2022.2.2,
,,,,,,,,,,,,,,,,,,,,,,,,0,-2274,Invalid,noise,45,1,1.8056890000007115,0,4.0,3.1133695000316948,True,1,25,A,2023-09-20_10h39.47.882,exp3,2022.2.2,
,,,,,,,,,,,,,,,,,,,,,,,,0,-2274,Invalid,noise,45,1,1.2051500999950804,0,4.0,2.5128346999990754,True,1,25,A,2023-09-20_10h39.47.882,exp3,2022.2.2,
,,,,,,,,,,,,,,,,,,,,,,,,0,557,Valid,signal,45,2,2.4553777999826707,0,4.0,3.7633675999823026,True,1,25,A,2023-09-20_10h39.47.882,exp3,2022.2.2,
,,,,,,,,,,,,,,,,,,,,,,,,0,1158,Valid,signal,45,2,4.122725099965464,0,3.0,5.430382699996699,True,1,25,A,2023-09-20_10h39.47.882,exp3,2022.2.2,
,,,,,,,,,,,,,,,,,,,,,,,,0,-1716,Valid,noise,45,1,1.9049681999604218,0,4.0,3.2127724000019953,True,1,25,A,2023-09-20_10h39.47.882,exp3,2022.2.2,
,,,,,,,,,,,,,,,,,,,,,,,,0,-557,Valid,noise,-45,2,7.640377299976535,1,1.0,8.94797069998458,True,1,25,A,2023-09-20_10h39.47.882,exp3,2022.2.2,
,,,,,,,,,,,,,,,,,,,,,,,,0,1158,Invalid,signal,45,2,6.139994400029536,0,2.0,7.447893699980341,True,1,25,A,2023-09-20_10h39.47.882,exp3,2022.2.2,
,,,,,,,,,,,,,,,,,,,,,,,,0,1158,Invalid,noise,45,1,20.512545000005048,0,4.0,21.82034570001997,True,1,25,A,2023-09-20_10h39.47.882,exp3,2022.2.2,
,,,,,,,,,,,,,,,,,,,,,,,,0,-557,Valid,signal,-45,2,7.723148400022183,0,3.0,9.03109589999076,True,1,25,A,2023-09-20_10h39.47.882,exp3,2022.2.2,
,,,,,,,,,,,,,,,,,,,,,,,,0,1158,Invalid,signal,-45,2,8.174611400056165,0,3.0,9.48258829995757,True,1,25,A,2023-09-20_10h39.47.882,exp3,2022.2.2,
,,,,,,,,,,,,,,,,,,,,,,,,0,-1158,Valid,signal,-45,2,3.806189299968537,0,2.0,5.114023800007999,True,1,25,A,2023-09-20_10h39.47.882,exp3,2022.2.2,
,,,,,,,,,,,,,,,,,,,,,,,,0,-2274,Valid,noise,45,1,6.340482700034045,0,4.0,7.64812810003059,True,1,25,A,2023-09-20_10h39.47.882,exp3,2022.2.2,
,,,,,,,,,,,,,,,,,,,,,,,,0,1716,Valid,noise,45,1,5.739262200018857,0,4.0,7.0470491999876685,True,1,25,A,2023-09-20_10h39.47.882,exp3,2022.2.2,
,,,,,,,,,,,,,,,,,,,,,,,,0,-1716,Valid,signal,45,2,3.7892460000002757,0,2.0,5.097339500032831,True,1,25,A,2023-09-20_10h39.47.882,exp3,2022.2.2,
,,,,,,,,,,,,,,,,,,,,,,,,0,2274,Valid,signal,-45,1,2.572063400002662,1,3.0,3.8801694000139832,True,1,25,A,2023-09-20_10h39.47.882,exp3,2022.2.2,
,,,,,,,,,,,,,,,,,,,,,,,,0,2274,Valid,noise,45,1,3.6890170999686234,0,3.0,4.997120299958624,True,1,25,A,2023-09-20_10h39.47.882,exp3,2022.2.2,
,,,,,,,,,,,,,,,,,,,,,,,,0,-1158,Valid,signal,-45,2,4.506032600009348,0,2.0,5.813990199996624,True,1,25,A,2023-09-20_10h39.47.882,exp3,2022.2.2,
,,,,,,,,,,,,,,,,,,,,,,,,0,1716,Valid,noise,45,1,5.089776800014079,0,3.0,6.397681700007524,True,1,25,A,2023-09-20_10h39.47.882,exp3,2022.2.2,
,,,,,,,,,,,,,,,,,,,,,,,,0,1716,Valid,signal,-45,1,5.490091200044844,1,2.0,6.798102100030519,True,1,25,A,2023-09-20_10h39.47.882,exp3,2022.2.2,
,,,,,,,,,,,,,,,,,,,,,,,,0,-557,Valid,noise,-45,1,11.675813100009691,0,1.0,12.983536700019613,True,1,25,A,2023-09-20_10h39.47.882,exp3,2022.2.2,
,,,,,,,,,,,,,,,,,,,,,,,,0,1716,Valid,noise,45,1,1.7549366999883205,0,4.0,3.062709800025914,True,1,25,A,2023-09-20_10h39.47.882,exp3,2022.2.2,
,,,,,,,,,,,,,,,,,,,,,,,,0,1158,Valid,noise,45,1,1.6049074999755248,0,3.0,2.9128009999985807,True,1,25,A,2023-09-20_10h39.47.882,exp3,2022.2.2,
,,,,,,,,,,,,,,,,,,,,,,,,0,1716,Valid,signal,-45,2,4.656110200041439,0,2.0,5.964000199979637,True,1,25,A,2023-09-20_10h39.47.882,exp3,2022.2.2,
,,,,,,,,,,,,,,,,,,,,,,,,0,557,Valid,signal,45,2,3.038920999970287,0,4.0,4.346762400004081,True,1,25,A,2023-09-20_10h39.47.882,exp3,2022.2.2,
,,,,,,,,,,,,,,,,,,,,,,,,0,1716,Valid,noise,45,1,2.2390051999827847,0,3.0,3.5467185000306927,True,1,25,A,2023-09-20_10h39.47.882,exp3,2022.2.2,
,,,,,,,,,,,,,,,,,,,,,,,,0,1158,Valid,noise,-45,1,1.571959999972023,0,4.0,2.879680600017309,True,1,25,A,2023-09-20_10h39.47.882,exp3,2022.2.2,
,,,,,,,,,,,,,,,,,,,,,,,,0,-1158,Valid,noise,45,1,4.42240669997409,0,4.0,5.730306499986909,True,1,25,A,2023-09-20_10h39.47.882,exp3,2022.2.2,
,,,,,,,,,,,,,,,,,,,,,,,,0,-2274,Valid,signal,-45,1,1.3713083999464288,1,4.0,2.6794777999748476,True,1,25,A,2023-09-20_10h39.47.882,exp3,2022.2.2,
,,,,,,,,,,,,,,,,,,,,,,,,0,-2274,Valid,signal,-45,1,1.0549099000054412,1,4.0,2.3629029000294395,True,1,25,A,2023-09-20_10h39.47.882,exp3,2022.2.2,
,,,,,,,,,,,,,,,,,,,,,,,,0,557,Invalid,noise,-45,1,1.054638299974613,0,4.0,2.362599099986255,True,1,25,A,2023-09-20_10h39.47.882,exp3,2022.2.2,
,,,,,,,,,,,,,,,,,,,,,,,,0,-557,Invalid,noise,-45,1,1.0551087000058033,0,4.0,2.3630413999781013,True,1,25,A,2023-09-20_10h39.47.882,exp3,2022.2.2,
,,,,,,,,,,,,,,,,,,,,,,,,0,1716,Invalid,signal,45,2,5.956371899985243,0,2.0,7.264166000008117,True,1,25,A,2023-09-20_10h39.47.882,exp3,2022.2.2,
,,,,,,,,,,,,,,,,,,,,,,,,0,557,Invalid,noise,-45,1,1.272250099980738,0,4.0,2.5798657999839634,True,1,25,A,2023-09-20_10h39.47.882,exp3,2022.2.2,
,,,,,,,,,,,,,,,,,,,,,,,,0,557,Valid,signal,-45,2,2.8554669999866746,0,3.0,4.162962200003676,True,1,25,A,2023-09-20_10h39.47.882,exp3,2022.2.2,
,,,,,,,,,,,,,,,,,,,,,,,,0,-557,Invalid,signal,45,2,3.989425400039181,0,3.0,5.296939499967266,True,1,25,A,2023-09-20_10h39.47.882,exp3,2022.2.2,
,,,,,,,,,,,,,,,,,,,,,,,,0,1716,Valid,signal,45,2,5.939379299990833,0,2.0,7.24716820003232,True,1,25,A,2023-09-20_10h39.47.882,exp3,2022.2.2,
,,,,,,,,,,,,,,,,,,,,,,,,0,-1716,Valid,signal,45,2,6.273785500030499,0,2.0,7.581847399997059,True,1,25,A,2023-09-20_10h39.47.882,exp3,2022.2.2,
,,,,,,,,,,,,,,,,,,,,,,,,0,-557,Valid,noise,-45,1,1.4544821999734268,0,4.0,2.7624106999719515,True,1,25,A,2023-09-20_10h39.47.882,exp3,2022.2.2,
,,,,,,,,,,,,,,,,,,,,,,,,0,557,Valid,signal,-45,2,2.6055186999728903,0,2.0,3.913331800024025,True,1,25,A,2023-09-20_10h39.47.882,exp3,2022.2.2,
,,,,,,,,,,,,,,,,,,,,,,,,0,1716,Valid,signal,-45,2,2.955695399956312,0,1.0,4.263391300046351,True,1,25,A,2023-09-20_10h39.47.882,exp3,2022.2.2,
,,,,,,,,,,,,,,,,,,,,,,,,0,-1716,Valid,noise,-45,1,1.804874200024642,0,4.0,3.1129638999700546,True,1,25,A,2023-09-20_10h39.47.882,exp3,2022.2.2,
,,,,,,,,,,,,,,,,,,,,,,,,0,1716,Valid,signal,-45,2,2.7227397999959067,0,1.0,4.03050480003003,True,1,25,A,2023-09-20_10h39.47.882,exp3,2022.2.2,
,,,,,,,,,,,,,,,,,,,,,,,,0,-557,Valid,signal,-45,2,1.804766799963545,0,4.0,3.1125658999662846,True,1,25,A,2023-09-20_10h39.47.882,exp3,2022.2.2,
,,,,,,,,,,,,,,,,,,,,,,,,0,557,Valid,noise,-45,1,1.2389977000420913,0,4.0,2.5464536999934353,True,1,25,A,2023-09-20_10h39.47.882,exp3,2022.2.2,
,,,,,,,,,,,,,,,,,,,,,,,,0,-2274,Valid,noise,-45,1,1.3546008999692276,0,4.0,2.6623262999928556,True,1,25,A,2023-09-20_10h39.47.882,exp3,2022.2.2,
,,,,,,,,,,,,,,,,,,,,,,,,0,1158,Valid,signal,45,2,7.257444699993357,0,2.0,8.56524610001361,True,1,25,A,2023-09-20_10h39.47.882,exp3,2022.2.2,
,,,,,,,,,,,,,,,,,,,,,,,,0,1158,Valid,noise,-45,1,1.7887722000014037,0,4.0,3.0963893000152893,True,1,25,A,2023-09-20_10h39.47.882,exp3,2022.2.2,
,,,,,,,,,,,,,,,,,,,,,,,,0,1158,Valid,noise,45,1,1.1882598999654874,0,4.0,2.4959554000524804,True,1,25,A,2023-09-20_10h39.47.882,exp3,2022.2.2,
,,,,,,,,,,,,,,,,,,,,,,,,0,2274,Valid,noise,45,1,1.104733300046064,0,4.0,2.4126267000101507,True,1,25,A,2023-09-20_10h39.47.882,exp3,2022.2.2,
,,,,,,,,,,,,,,,,,,,,,,,,0,1158,Valid,noise,-45,1,2.4218681000056677,0,4.0,3.729970999993384,True,1,25,A,2023-09-20_10h39.47.882,exp3,2022.2.2,
,,,,,,,,,,,,,,,,,,,,,,,,0,1158,Valid,noise,-45,1,1.0555455000139773,0,4.0,2.363415600033477,True,1,25,A,2023-09-20_10h39.47.882,exp3,2022.2.2,
,,,,,,,,,,,,,,,,,,,,,,,,0,-1716,Valid,signal,-45,2,2.8880728000076488,0,2.0,4.195842900022399,True,1,25,A,2023-09-20_10h39.47.882,exp3,2022.2.2,
,,,,,,,,,,,,,,,,,,,,,,,,0,2274,Valid,signal,45,1,1.0218074999866076,1,4.0,2.329680700029712,True,1,25,A,2023-09-20_10h39.47.882,exp3,2022.2.2,
,,,,,,,,,,,,,,,,,,,,,,,,0,-2274,Valid,noise,-45,1,1.7885434000054374,0,4.0,3.0965127000235952,True,1,25,A,2023-09-20_10h39.47.882,exp3,2022.2.2,
,,,,,,,,,,,,,,,,,,,,,,,,0,2274,Valid,noise,45,1,1.4218403999693692,0,4.0,2.7295990999555215,True,1,25,A,2023-09-20_10h39.47.882,exp3,2022.2.2,
,,,,,,,,,,,,,,,,,,,,,,,,0,-2274,Valid,noise,45,1,1.2880831000511535,0,4.0,2.595926000038162,True,1,25,A,2023-09-20_10h39.47.882,exp3,2022.2.2,
,,,,,,,,,,,,,,,,,,,,,,,,0,-557,Valid,noise,45,1,1.221733900019899,0,4.0,2.5294597999891266,True,1,25,A,2023-09-20_10h39.47.882,exp3,2022.2.2,
,,,,,,,,,,,,,,,,,,,,,,,,0,-557,Valid,noise,45,1,1.421361499989871,0,4.0,2.729082499979995,True,1,25,A,2023-09-20_10h39.47.882,exp3,2022.2.2,
,,,,,,,,,,,,,,,,,,,,,,,,0,-1158,Valid,noise,45,1,3.539570899971295,0,4.0,4.847225199977402,True,1,25,A,2023-09-20_10h39.47.882,exp3,2022.2.2,
,,,,,,,,,,,,,,,,,,,,,,,,0,-2274,Valid,signal,-45,1,2.005778699996881,1,3.0,3.313529999984894,True,1,25,A,2023-09-20_10h39.47.882,exp3,2022.2.2,
,,,,,,,,,,,,,,,,,,,,,,,,0,1158,Valid,noise,45,1,1.2546031000092626,0,3.0,2.5623367999796756,True,1,25,A,2023-09-20_10h39.47.882,exp3,2022.2.2,
,,,,,,,,,,,,,,,,,,,,,,,,0,557,Valid,signal,45,2,1.654645700007677,0,2.0,2.962413800007198,True,1,25,A,2023-09-20_10h39.47.882,exp3,2022.2.2,
,,,,,,,,,,,,,,,,,,,,,,,,0,-1716,Valid,signal,-45,1,1.3716355999931693,1,4.0,2.6795215000165626,True,1,25,A,2023-09-20_10h39.47.882,exp3,2022.2.2,
,,,,,,,,,,,,,,,,,,,,,,,,0,-2274,Valid,signal,-45,1,1.8718686000211164,1,4.0,3.1797819000203162,True,1,25,A,2023-09-20_10h39.47.882,exp3,2022.2.2,
,,,,,,,,,,,,,,,,,,,,,,,,0,2274,Valid,noise,-45,1,5.04000930004986,0,3.0,6.347886200004723,True,1,25,A,2023-09-20_10h39.47.882,exp3,2022.2.2,
,,,,,,,,,,,,,,,,,,,,,,,,0,-557,Valid,noise,-45,1,4.4392217000131495,0,3.0,5.747246300044935,True,1,25,A,2023-09-20_10h39.47.882,exp3,2022.2.2,
,,,,,,,,,,,,,,,,,,,,,,,,0,2274,Invalid,signal,45,1,7.2071040000300854,1,2.0,8.514936299994588,True,1,25,A,2023-09-20_10h39.47.882,exp3,2022.2.2,
,,,,,,,,,,,,,,,,,,,,,,,,0,557,Valid,noise,-45,2,2.6556950000231154,1,2.0,3.963570299965795,True,1,25,A,2023-09-20_10h39.47.882,exp3,2022.2.2,
,,,,,,,,,,,,,,,,,,,,,,,,0,1158,Valid,noise,-45,1,2.5387716999975964,0,3.0,3.8467515999800526,True,1,25,A,2023-09-20_10h39.47.882,exp3,2022.2.2,
,,,,,,,,,,,,,,,,,,,,,,,,0,2274,Valid,signal,-45,1,3.273032700002659,1,2.0,4.580599699984305,True,1,25,A,2023-09-20_10h39.47.882,exp3,2022.2.2,
,,,,,,,,,,,,,,,,,,,,,,,,0,-2274,Invalid,signal,45,1,1.5381814000429586,1,4.0,2.8457994000054896,True,1,25,A,2023-09-20_10h39.47.882,exp3,2022.2.2,
,,,,,,,,,,,,,,,,,,,,,,,,0,557,Invalid,signal,-45,2,2.7889053000253625,0,4.0,4.0967345999670215,True,1,25,A,2023-09-20_10h39.47.882,exp3,2022.2.2,
,,,,,,,,,,,,,,,,,,,,,,,,0,-1716,Valid,noise,-45,1,2.972322300018277,0,3.0,4.280007200024556,True,1,25,A,2023-09-20_10h39.47.882,exp3,2022.2.2,
,,,,,,,,,,,,,,,,,,,,,,,,0,-1716,Valid,signal,45,2,1.8548515999573283,0,3.0,3.162733200006187,True,1,25,A,2023-09-20_10h39.47.882,exp3,2022.2.2,
,,,,,,,,,,,,,,,,,,,,,,,,0,-1158,Valid,noise,45,1,1.0882756999926642,0,4.0,2.3961346999858506,True,1,25,A,2023-09-20_10h39.47.882,exp3,2022.2.2,
,,,,,,,,,,,,,,,,,,,,,,,,0,2274,Valid,noise,-45,1,2.055509300029371,0,4.0,3.363302899990231,True,1,25,A,2023-09-20_10h39.47.882,exp3,2022.2.2,
,,,,,,,,,,,,,,,,,,,,,,,,0,-2274,Valid,noise,45,1,1.0708737000240944,0,4.0,2.378699199995026,True,1,25,A,2023-09-20_10h39.47.882,exp3,2022.2.2,
,,,,,,,,,,,,,,,,,,,,,,,,0,-1158,Valid,noise,45,1,1.421978999977,0,4.0,2.729776799969841,True,1,25,A,2023-09-20_10h39.47.882,exp3,2022.2.2,
,,,,,,,,,,,,,,,,,,,,,,,,0,-557,Invalid,signal,-45,2,1.8888563999789767,0,3.0,3.1965893000015058,True,1,25,A,2023-09-20_10h39.47.882,exp3,2022.2.2,
,,,,,,,,,,,,,,,,,,,,,,,,0,-1158,Valid,signal,-45,2,1.9051372000249103,0,3.0,3.2130812000250444,True,1,25,A,2023-09-20_10h39.47.882,exp3,2022.2.2,
,,,,,,,,,,,,,,,,,,,,,,,,0,1158,Invalid,noise,-45,1,1.5715331999817863,0,4.0,2.87928799999645,True,1,25,A,2023-09-20_10h39.47.882,exp3,2022.2.2,
,,,,,,,,,,,,,,,,,,,,,,,,0,-1158,Valid,noise,-45,1,1.1711304999771528,0,4.0,2.4789861000026576,True,1,25,A,2023-09-20_10h39.47.882,exp3,2022.2.2,
,,,,,,,,,,,,,,,,,,,,,,,,0,-1158,Valid,noise,-45,1,1.43833849998191,0,4.0,2.746090200031176,True,1,25,A,2023-09-20_10h39.47.882,exp3,2022.2.2,
,,,,,,,,,,,,,,,,,,,,,,,,0,557,Valid,noise,-45,1,2.8392625999986194,0,2.0,4.147328799997922,True,1,25,A,2023-09-20_10h39.47.882,exp3,2022.2.2,
,,,,,,,,,,,,,,,,,,,,,,,,0,-1716,Invalid,signal,45,2,1.6386599999968894,0,4.0,2.9464611999574117,True,1,25,A,2023-09-20_10h39.47.882,exp3,2022.2.2,
,,,,,,,,,,,,,,,,,,,,,,,,0,1716,Invalid,noise,45,1,1.9708515999955125,0,4.0,3.278946399979759,True,1,25,A,2023-09-20_10h39.47.882,exp3,2022.2.2,
,,,,,,,,,,,,,,,,,,,,,,,,0,1158,Valid,noise,45,1,1.0215179999941029,0,4.0,2.3293732999591157,True,1,25,A,2023-09-20_10h39.47.882,exp3,2022.2.2,
,,,,,,,,,,,,,,,,,,,,,,,,0,1716,Invalid,signal,45,2,4.740033699956257,0,3.0,6.0479447999969125,True,1,25,A,2023-09-20_10h39.47.882,exp3,2022.2.2,
,,,,,,,,,,,,,,,,,,,,,,,,0,1716,Invalid,noise,-45,1,6.156809100008104,0,1.0,7.464677300013136,True,1,25,A,2023-09-20_10h39.47.882,exp3,2022.2.2,
,,,,,,,,,,,,,,,,,,,,,,,,0,-1158,Invalid,signal,45,2,4.960356199997477,0,2.0,11.648659400001634,True,2,25,A,2023-09-20_10h39.47.882,exp3,2022.2.2,
,,,,,,,,,,,,,,,,,,,,,,,,0,1158,Valid,signal,-45,2,2.3392560000065714,0,2.0,3.6471580999786966,True,1,25,A,2023-09-20_10h39.47.882,exp3,2022.2.2,
,,,,,,,,,,,,,,,,,,,,,,,,0,-557,Valid,signal,45,2,3.2053777999826707,0,3.0,4.513199700042605,True,1,25,A,2023-09-20_10h39.47.882,exp3,2022.2.2,
,,,,,,,,,,,,,,,,,,,,,,,,0,-1158,Valid,noise,45,1,1.7217980999848805,0,4.0,3.0297675000038,True,1,25,A,2023-09-20_10h39.47.882,exp3,2022.2.2,
,,,,,,,,,,,,,,,,,,,,,,,,0,-557,Valid,signal,45,2,2.889143000007607,0,3.0,4.1968293999671005,True,1,25,A,2023-09-20_10h39.47.882,exp3,2022.2.2,
,,,,,,,,,,,,,,,,,,,,,,,,0,-1716,Valid,noise,-45,1,3.472473200003151,0,4.0,4.780286099994555,True,1,25,A,2023-09-20_10h39.47.882,exp3,2022.2.2,
,,,,,,,,,,,,,,,,,,,,,,,,0,2274,Valid,signal,-45,1,7.190401300031226,1,2.0,8.498172399995383,True,1,25,A,2023-09-20_10h39.47.882,exp3,2022.2.2,
,,,,,,,,,,,,,,,,,,,,,,,,0,-1716,Valid,signal,-45,2,2.1895781999919564,0,2.0,3.4972078999853693,True,1,25,A,2023-09-20_10h39.47.882,exp3,2022.2.2,
,,,,,,,,,,,,,,,,,,,,,,,,0,-1716,Invalid,signal,45,2,2.838537000003271,0,2.0,4.146302799985278,True,1,25,A,2023-09-20_10h39.47.882,exp3,2022.2.2,
,,,,,,,,,,,,,,,,,,,,,,,,0,557,Valid,signal,45,2,3.0885698000201955,0,3.0,4.396282600006089,True,1,25,A,2023-09-20_10h39.47.882,exp3,2022.2.2,
,,,,,,,,,,,,,,,,,,,,,,,,0,1158,Valid,signal,-45,2,1.5044740000157617,0,3.0,2.81231360003585,True,1,25,A,2023-09-20_10h39.47.882,exp3,2022.2.2,
,,,,,,,,,,,,,,,,,,,,,,,,1,2274,Valid,noise,-45,1,5.973534799995832,0,4.0,7.281931700010318,True,1,25,A,2023-09-20_10h39.47.882,exp3,2022.2.2,
,,,,,,,,,,,,,,,,,,,,,,,,2,-1158,Valid,signal,45,2,2.3550241999910213,0,4.0,3.663047500012908,True,1,25,A,2023-09-20_10h39.47.882,exp3,2022.2.2,
,,,,,,,,,,,,,,,,,,,,,,,,3,557,Invalid,noise,45,2,5.722555999993347,1,1.0,7.030612299975473,True,1,25,A,2023-09-20_10h39.47.882,exp3,2022.2.2,
,,,,,,,,,,,,,,,,,,,,,,,,4,-1716,Valid,signal,45,2,2.7059565000236034,0,3.0,4.014086299983319,True,1,25,A,2023-09-20_10h39.47.882,exp3,2022.2.2,
,,,,,,,,,,,,,,,,,,,,,,,,5,557,Valid,signal,45,2,2.855322499992326,0,3.0,4.163041800027713,True,1,25,A,2023-09-20_10h39.47.882,exp3,2022.2.2,
,,,,,,,,,,,,,,,,,,,,,,,,6,-2274,Valid,noise,45,1,1.3217286000144668,0,4.0,2.62967789999675,True,1,25,A,2023-09-20_10h39.47.882,exp3,2022.2.2,
,,,,,,,,,,,,,,,,,,,,,,,,7,-1716,Invalid,noise,-45,1,1.2876671999692917,0,4.0,2.595866199990269,True,1,25,A,2023-09-20_10h39.47.882,exp3,2022.2.2,
,,,,,,,,,,,,,,,,,,,,,,,,8,-557,Valid,signal,45,2,7.439830599993002,0,4.0,8.747883399948478,True,1,25,A,2023-09-20_10h39.47.882,exp3,2022.2.2,
,,,,,,,,,,,,,,,,,,,,,,,,9,-2274,Valid,noise,45,1,1.3378252999973483,0,4.0,2.645750700030476,True,1,25,A,2023-09-20_10h39.47.882,exp3,2022.2.2,
,,,,,,,,,,,,,,,,,,,,,,,,10,-1716,Valid,noise,-45,1,1.1549520999542437,0,4.0,2.463023999996949,True,1,25,A,2023-09-20_10h39.47.882,exp3,2022.2.2,
,,,,,,,,,,,,,,,,,,,,,,,,11,2274,Valid,signal,-45,1,2.6549777000327595,1,4.0,3.963007199985441,True,1,25,A,2023-09-20_10h39.47.882,exp3,2022.2.2,
,,,,,,,,,,,,,,,,,,,,,,,,12,-1158,Valid,noise,45,1,1.2206802000291646,0,4.0,2.5288511000107974,True,1,25,A,2023-09-20_10h39.47.882,exp3,2022.2.2,
,,,,,,,,,,,,,,,,,,,,,,,,13,1158,Valid,noise,45,1,1.5717829000204802,0,4.0,2.8799747999873944,True,1,25,A,2023-09-20_10h39.47.882,exp3,2022.2.2,
,,,,,,,,,,,,,,,,,,,,,,,,14,-1716,Valid,noise,-45,1,0.987586300005205,0,4.0,2.2956320999655873,True,1,25,A,2023-09-20_10h39.47.882,exp3,2022.2.2,
,,,,,,,,,,,,,,,,,,,,,,,,15,-1716,Valid,signal,45,2,2.2719629000057466,0,2.0,3.5799955000402406,True,1,25,A,2023-09-20_10h39.47.882,exp3,2022.2.2,
,,,,,,,,,,,,,,,,,,,,,,,,16,-1716,Valid,noise,-45,1,1.971829499991145,0,4.0,3.279778499971144,True,1,25,A,2023-09-20_10h39.47.882,exp3,2022.2.2,
,,,,,,,,,,,,,,,,,,,,,,,,17,-2274,Valid,noise,45,1,0.9869764000177383,0,4.0,2.295335100032389,True,1,25,A,2023-09-20_10h39.47.882,exp3,2022.2.2,
,,,,,,,,,,,,,,,,,,,,,,,,18,2274,Valid,signal,45,1,2.2050217000069097,1,4.0,3.5132740000262856,True,1,25,A,2023-09-20_10h39.47.882,exp3,2022.2.2,
,,,,,,,,,,,,,,,,,,,,,,,,19,-557,Invalid,noise,45,1,3.255602799996268,0,2.0,4.563892600010149,True,1,25,A,2023-09-20_10h39.47.882,exp3,2022.2.2,
,,,,,,,,,,,,,,,,,,,,,,,,20,-1716,Valid,signal,45,2,2.4548924999544397,0,3.0,3.7629338999977335,True,1,25,A,2023-09-20_10h39.47.882,exp3,2022.2.2,
,,,,,,,,,,,,,,,,,,,,,,,,21,1158,Valid,noise,-45,1,2.238205899950117,0,3.0,3.546418000012636,True,1,25,A,2023-09-20_10h39.47.882,exp3,2022.2.2,
,,,,,,,,,,,,,,,,,,,,,,,,22,1716,Valid,signal,45,2,2.071848099993076,0,3.0,3.380046400008723,True,1,25,A,2023-09-20_10h39.47.882,exp3,2022.2.2,
,,,,,,,,,,,,,,,,,,,,,,,,23,-2274,Invalid,noise,45,1,1.9548539000097662,0,4.0,3.2629560999921523,True,1,25,A,2023-09-20_10h39.47.882,exp3,2022.2.2,
,,,,,,,,,,,,,,,,,,,,,,,,24,1158,Invalid,signal,45,2,4.42162850004388,0,2.0,5.729983199969865,True,1,25,A,2023-09-20_10h39.47.882,exp3,2022.2.2,
,,,,,,,,,,,,,,,,,,,,,,,,25,-2274,Valid,signal,-45,1,5.606425800011493,1,4.0,6.9145658000488766,True,1,25,A,2023-09-20_10h39.47.882,exp3,2022.2.2,
,,,,,,,,,,,,,,,,,,,,,,,,26,-1158,Valid,signal,45,2,3.4219318000250496,0,3.0,4.73011669999687,True,1,25,A,2023-09-20_10h39.47.882,exp3,2022.2.2,
,,,,,,,,,,,,,,,,,,,,,,,,27,1716,Valid,noise,-45,1,1.5214337999932468,0,4.0,2.8296522999880835,True,1,25,A,2023-09-20_10h39.47.882,exp3,2022.2.2,
,,,,,,,,,,,,,,,,,,,,,,,,28,-557,Valid,noise,45,2,4.956569200032391,1,2.0,6.264776500000153,True,1,25,A,2023-09-20_10h39.47.882,exp3,2022.2.2,
,,,,,,,,,,,,,,,,,,,,,,,,29,1716,Valid,noise,45,1,1.3374880999908783,0,4.0,2.645624600001611,True,1,25,A,2023-09-20_10h39.47.882,exp3,2022.2.2,
,,,,,,,,,,,,,,,,,,,,,,,,30,557,Valid,noise,45,1,1.0880444999784231,0,4.0,2.396251199999824,True,1,25,A,2023-09-20_10h39.47.882,exp3,2022.2.2,
,,,,,,,,,,,,,,,,,,,,,,,,31,1716,Invalid,noise,-45,1,1.1044707999681123,0,4.0,2.4126173999975435,True,1,25,A,2023-09-20_10h39.47.882,exp3,2022.2.2,
,,,,,,,,,,,,,,,,,,,,,,,,32,-1716,Valid,signal,-45,2,2.80532129999483,0,3.0,4.113358899950981,True,1,25,A,2023-09-20_10h39.47.882,exp3,2022.2.2,
,,,,,,,,,,,,,,,,,,,,,,,,33,2274,Valid,signal,-45,1,1.3209420999628492,1,4.0,2.6292415999923833,True,1,25,A,2023-09-20_10h39.47.882,exp3,2022.2.2,
,,,,,,,,,,,,,,,,,,,,,,,,34,2274,Valid,noise,-45,1,3.455828799982555,0,3.0,4.763925599982031,True,1,25,A,2023-09-20_10h39.47.882,exp3,2022.2.2,
,,,,,,,,,,,,,,,,,,,,,,,,35,-1158,Invalid,noise,45,1,1.3042452999507077,0,4.0,2.6125358999706805,True,1,25,A,2023-09-20_10h39.47.882,exp3,2022.2.2,
,,,,,,,,,,,,,,,,,,,,,,,,36,557,Valid,noise,45,1,1.0043355000088923,0,4.0,2.31264389998978,True,1,25,A,2023-09-20_10h39.47.882,exp3,2022.2.2,
,,,,,,,,,,,,,,,,,,,,,,,,37,-1158,Invalid,signal,-45,2,2.0713600000017323,0,2.0,3.379602800006978,True,1,25,A,2023-09-20_10h39.47.882,exp3,2022.2.2,
,,,,,,,,,,,,,,,,,,,,,,,,38,-1158,Valid,noise,-45,1,1.237750300031621,0,4.0,2.5458779000327922,True,1,25,A,2023-09-20_10h39.47.882,exp3,2022.2.2,
,,,,,,,,,,,,,,,,,,,,,,,,39,557,Valid,noise,45,1,2.2054627999896184,0,3.0,3.513357999967411,True,1,25,A,2023-09-20_10h39.47.882,exp3,2022.2.2,
,,,,,,,,,,,,,,,,,,,,,,,,40,1158,Valid,noise,-45,1,1.5382080000126734,0,3.0,2.8462196000036784,True,1,25,A,2023-09-20_10h39.47.882,exp3,2022.2.2,
,,,,,,,,,,,,,,,,,,,,,,,,41,-2274,Valid,noise,-45,1,1.1215949000325054,0,4.0,2.429575499962084,True,1,25,A,2023-09-20_10h39.47.882,exp3,2022.2.2,
,,,,,,,,,,,,,,,,,,,,,,,,42,557,Valid,noise,-45,1,1.4045672999927774,0,4.0,2.712636800017208,True,1,25,A,2023-09-20_10h39.47.882,exp3,2022.2.2,
,,,,,,,,,,,,,,,,,,,,,,,,43,-1158,Valid,signal,45,2,2.4054858000017703,0,3.0,3.7136009999667294,True,1,25,A,2023-09-20_10h39.47.882,exp3,2022.2.2,
,,,,,,,,,,,,,,,,,,,,,,,,44,-557,Invalid,signal,-45,2,3.0212678000098094,0,2.0,4.329521400039084,True,1,25,A,2023-09-20_10h39.47.882,exp3,2022.2.2,
,,,,,,,,,,,,,,,,,,,,,,,,45,557,Valid,signal,-45,2,1.370943600020837,0,3.0,2.6791230000089854,True,1,25,A,2023-09-20_10h39.47.882,exp3,2022.2.2,
,,,,,,,,,,,,,,,,,,,,,,,,46,-2274,Valid,signal,45,2,2.855416099948343,0,1.0,4.163591000018641,True,1,25,A,2023-09-20_10h39.47.882,exp3,2022.2.2,
,,,,,,,,,,,,,,,,,,,,,,,,47,557,Invalid,signal,45,2,2.372318300011102,0,3.0,3.6804359999950975,True,1,25,A,2023-09-20_10h39.47.882,exp3,2022.2.2,
,,,,,,,,,,,,,,,,,,,,,,,,48,-557,Valid,noise,-45,1,6.1061522999661975,0,3.0,7.414329199993517,True,1,25,A,2023-09-20_10h39.47.882,exp3,2022.2.2,
,,,,,,,,,,,,,,,,,,,,,,,,49,1716,Valid,noise,45,1,1.4880561999743804,0,4.0,2.7964622000581585,True,1,25,A,2023-09-20_10h39.47.882,exp3,2022.2.2,
,,,,,,,,,,,,,,,,,,,,,,,,50,557,Valid,noise,45,2,2.47092709998833,1,2.0,3.7789752999669872,True,1,25,A,2023-09-20_10h39.47.882,exp3,2022.2.2,
,,,,,,,,,,,,,,,,,,,,,,,,51,-2274,Valid,signal,-45,1,1.38825270003872,1,4.0,2.6965726999915205,True,1,25,A,2023-09-20_10h39.47.882,exp3,2022.2.2,
,,,,,,,,,,,,,,,,,,,,,,,,52,557,Valid,noise,-45,2,5.122824999969453,1,1.0,6.430808000033721,True,1,25,A,2023-09-20_10h39.47.882,exp3,2022.2.2,
,,,,,,,,,,,,,,,,,,,,,,,,53,-1716,Valid,signal,45,2,2.671545499993954,0,2.0,3.9797784000402316,True,1,25,A,2023-09-20_10h39.47.882,exp3,2022.2.2,
,,,,,,,,,,,,,,,,,,,,,,,,54,-1158,Valid,signal,45,2,1.6879496999899857,0,2.0,2.996143900032621,True,1,25,A,2023-09-20_10h39.47.882,exp3,2022.2.2,
,,,,,,,,,,,,,,,,,,,,,,,,55,2274,Valid,noise,45,2,3.2548103999579325,1,3.0,4.562967900012154,True,1,25,A,2023-09-20_10h39.47.882,exp3,2022.2.2,
,,,,,,,,,,,,,,,,,,,,,,,,56,1716,Valid,noise,-45,1,6.306485700013582,0,1.0,7.614679200050887,True,1,25,A,2023-09-20_10h39.47.882,exp3,2022.2.2,
,,,,,,,,,,,,,,,,,,,,,,,,57,1716,Valid,signal,-45,2,5.056963599985465,0,1.0,6.364830200036522,True,1,25,A,2023-09-20_10h39.47.882,exp3,2022.2.2,
,,,,,,,,,,,,,,,,,,,,,,,,58,-557,Valid,signal,-45,2,1.3041018000221811,0,4.0,2.6122349000070244,True,1,25,A,2023-09-20_10h39.47.882,exp3,2022.2.2,
,,,,,,,,,,,,,,,,,,,,,,,,59,1716,Valid,signal,45,2,2.2886178999906406,0,3.0,3.596690199978184,True,1,25,A,2023-09-20_10h39.47.882,exp3,2022.2.2,
,,,,,,,,,,,,,,,,,,,,,,,,60,557,Valid,signal,-45,2,1.6706017999676988,0,4.0,2.978735799959395,True,1,25,A,2023-09-20_10h39.47.882,exp3,2022.2.2,
,,,,,,,,,,,,,,,,,,,,,,,,61,-557,Valid,signal,45,2,1.3218901000218466,0,4.0,2.62991990003502,True,1,25,A,2023-09-20_10h39.47.882,exp3,2022.2.2,
,,,,,,,,,,,,,,,,,,,,,,,,62,1158,Valid,noise,45,2,1.5878816999611445,1,3.0,2.8959426000365056,True,1,25,A,2023-09-20_10h39.47.882,exp3,2022.2.2,
,,,,,,,,,,,,,,,,,,,,,,,,63,557,Valid,signal,-45,2,3.0894564000191167,0,4.0,4.397415300016291,True,1,25,A,2023-09-20_10h39.47.882,exp3,2022.2.2,
,,,,,,,,,,,,,,,,,,,,,,,,64,-1158,Valid,noise,45,1,1.720657299971208,0,2.0,3.0291060999734327,True,1,25,A,2023-09-20_10h39.47.882,exp3,2022.2.2,
,,,,,,,,,,,,,,,,,,,,,,,,65,-557,Valid,signal,-45,2,3.121639300021343,0,3.0,4.429647600045428,True,1,25,A,2023-09-20_10h39.47.882,exp3,2022.2.2,
,,,,,,,,,,,,,,,,,,,,,,,,66,2274,Valid,signal,45,1,1.8552223999868147,1,3.0,3.16337999998359,True,1,25,A,2023-09-20_10h39.47.882,exp3,2022.2.2,
,,,,,,,,,,,,,,,,,,,,,,,,67,-1158,Valid,noise,45,1,1.0541832000017166,0,4.0,2.362128499953542,True,1,25,A,2023-09-20_10h39.47.882,exp3,2022.2.2,
,,,,,,,,,,,,,,,,,,,,,,,,68,-1716,Valid,noise,45,1,2.9389864000258967,0,4.0,4.246888099994976,True,1,25,A,2023-09-20_10h39.47.882,exp3,2022.2.2,
,,,,,,,,,,,,,,,,,,,,,,,,69,-557,Valid,noise,-45,2,2.105244299978949,1,2.0,3.4134006000240333,True,1,25,A,2023-09-20_10h39.47.882,exp3,2022.2.2,
,,,,,,,,,,,,,,,,,,,,,,,,70,1158,Valid,noise,45,1,1.2041537000332028,0,4.0,2.5123703999561258,True,1,25,A,2023-09-20_10h39.47.882,exp3,2022.2.2,
,,,,,,,,,,,,,,,,,,,,,,,,71,-1716,Valid,noise,-45,1,1.0044015000457875,0,4.0,2.31245059997309,True,1,25,A,2023-09-20_10h39.47.882,exp3,2022.2.2,
,,,,,,,,,,,,,,,,,,,,,,,,72,1158,Valid,noise,45,1,1.1040623000008054,0,4.0,2.4122658999986015,True,1,25,A,2023-09-20_10h39.47.882,exp3,2022.2.2,
,,,,,,,,,,,,,,,,,,,,,,,,73,-2274,Valid,signal,45,1,2.305658900004346,1,4.0,3.613620300020557,True,1,25,A,2023-09-20_10h39.47.882,exp3,2022.2.2,
,,,,,,,,,,,,,,,,,,,,,,,,74,-2274,Valid,signal,45,1,1.1205076000187546,1,4.0,2.4287454000441357,True,1,25,A,2023-09-20_10h39.47.882,exp3,2022.2.2,
,,,,,,,,,,,,,,,,,,,,,,,,75,557,Valid,signal,45,2,4.27219290001085,0,3.0,5.58055220003007,True,1,25,A,2023-09-20_10h39.47.882,exp3,2022.2.2,
,,,,,,,,,,,,,,,,,,,,,,,,76,2274,Valid,noise,45,1,1.1711537000373937,0,4.0,2.479398499999661,True,1,25,A,2023-09-20_10h39.47.882,exp3,2022.2.2,
,,,,,,,,,,,,,,,,,,,,,,,,77,1158,Invalid,noise,-45,1,1.587964899954386,0,4.0,2.8961369000026025,True,1,25,A,2023-09-20_10h39.47.882,exp3,2022.2.2,
,,,,,,,,,,,,,,,,,,,,,,,,78,1158,Valid,signal,-45,2,1.437923800025601,0,3.0,2.7460426000179723,True,1,25,A,2023-09-20_10h39.47.882,exp3,2022.2.2,
,,,,,,,,,,,,,,,,,,,,,,,,79,-557,Invalid,noise,-45,1,1.1379584000096656,0,4.0,2.4462190000340343,True,1,25,A,2023-09-20_10h39.47.882,exp3,2022.2.2,
,,,,,,,,,,,,,,,,,,,,,,,,80,1158,Valid,signal,45,2,2.9395505000138655,0,2.0,4.247505700041074,True,1,25,A,2023-09-20_10h39.47.882,exp3,2022.2.2,
,,,,,,,,,,,,,,,,,,,,,,,,81,557,Valid,signal,45,2,3.738346400030423,0,3.0,5.046432799950708,True,1,25,A,2023-09-20_10h39.47.882,exp3,2022.2.2,
,,,,,,,,,,,,,,,,,,,,,,,,82,-1716,Valid,noise,45,1,1.070519900007639,0,4.0,2.3787276999792084,True,1,25,A,2023-09-20_10h39.47.882,exp3,2022.2.2,
,,,,,,,,,,,,,,,,,,,,,,,,83,-1716,Valid,signal,45,2,9.074856799968984,0,1.0,10.382853300019633,True,1,25,A,2023-09-20_10h39.47.882,exp3,2022.2.2,
,,,,,,,,,,,,,,,,,,,,,,,,84,1716,Valid,noise,-45,1,1.6547698000213131,0,4.0,2.9628835000330582,True,1,25,A,2023-09-20_10h39.47.882,exp3,2022.2.2,
,,,,,,,,,,,,,,,,,,,,,,,,85,-1716,Valid,signal,-45,2,2.0715057000052184,0,3.0,3.3796597000327893,True,1,25,A,2023-09-20_10h39.47.882,exp3,2022.2.2,
,,,,,,,,,,,,,,,,,,,,,,,,86,1716,Valid,signal,45,2,3.7393056000000797,0,2.0,5.04729459999362,True,1,25,A,2023-09-20_10h39.47.882,exp3,2022.2.2,
,,,,,,,,,,,,,,,,,,,,,,,,87,1158,Valid,noise,45,1,1.1046600000117905,0,4.0,2.412622799980454,True,1,25,A,2023-09-20_10h39.47.882,exp3,2022.2.2,
,,,,,,,,,,,,,,,,,,,,,,,,88,1716,Valid,noise,45,1,1.671520000032615,0,4.0,2.9796777999727055,True,1,25,A,2023-09-20_10h39.47.882,exp3,2022.2.2,
,,,,,,,,,,,,,,,,,,,,,,,,89,-2274,Invalid,signal,45,1,1.8045031999936327,1,4.0,3.1126767999958247,True,1,25,A,2023-09-20_10h39.47.882,exp3,2022.2.2,
,,,,,,,,,,,,,,,,,,,,,,,,90,-1716,Valid,noise,-45,1,1.6043674999964423,0,4.0,2.9125851999851875,True,1,25,A,2023-09-20_10h39.47.882,exp3,2022.2.2,
,,,,,,,,,,,,,,,,,,,,,,,,91,1716,Valid,signal,-45,2,1.7047071999986656,0,2.0,3.013295000011567,True,1,25,A,2023-09-20_10h39.47.882,exp3,2022.2.2,
,,,,,,,,,,,,,,,,,,,,,,,,92,-2274,Valid,signal,45,1,1.3879844999755733,1,4.0,2.696069700003136,True,1,25,A,2023-09-20_10h39.47.882,exp3,2022.2.2,
,,,,,,,,,,,,,,,,,,,,,,,,93,-2274,Valid,noise,-45,1,1.2209242000244558,0,4.0,2.5290301999775693,True,1,25,A,2023-09-20_10h39.47.882,exp3,2022.2.2,
,,,,,,,,,,,,,,,,,,,,,,,,94,-2274,Valid,noise,45,1,0.9716535999905318,0,4.0,2.2797234000172466,True,1,25,A,2023-09-20_10h39.47.882,exp3,2022.2.2,
,,,,,,,,,,,,,,,,,,,,,,,,95,1716,Valid,signal,-45,1,2.7050012999679893,1,2.0,4.012933799996972,True,1,25,A,2023-09-20_10h39.47.882,exp3,2022.2.2,
,,,,,,,,,,,,,,,,,,,,,,,,96,-557,Valid,signal,-45,2,1.8707469999790192,0,3.0,3.1791380000067875,True,1,25,A,2023-09-20_10h39.47.882,exp3,2022.2.2,
,,,,,,,,,,,,,,,,,,,,,,,,97,1158,Invalid,signal,-45,2,2.355068300035782,0,3.0,3.6631871999707073,True,1,25,A,2023-09-20_10h39.47.882,exp3,2022.2.2,
,,,,,,,,,,,,,,,,,,,,,,,,98,1716,Valid,signal,45,2,3.055001800006721,0,3.0,4.36348940001335,True,1,25,A,2023-09-20_10h39.47.882,exp3,2022.2.2,
,,,,,,,,,,,,,,,,,,,,,,,,99,-2274,Valid,noise,45,1,1.555608500028029,0,4.0,2.863525799999479,True,1,25,A,2023-09-20_10h39.47.882,exp3,2022.2.2,
,,,,,,,,,,,,,,,,,,,,,,,,100,-557,Valid,noise,-45,1,2.054077700013295,0,4.0,3.362428300024476,True,1,25,A,2023-09-20_10h39.47.882,exp3,2022.2.2,
,,,,,,,,,,,,,,,,,,,,,,,,101,1158,Valid,signal,45,2,4.2720207999809645,0,2.0,5.580381400010083,True,1,25,A,2023-09-20_10h39.47.882,exp3,2022.2.2,
,,,,,,,,,,,,,,,,,,,,,,,,102,-1158,Valid,signal,45,2,1.4380950999911875,0,2.0,2.7462291999836452,True,1,25,A,2023-09-20_10h39.47.882,exp3,2022.2.2,
,,,,,,,,,,,,,,,,,,,,,,,,103,-1716,Valid,signal,-45,2,3.0555308000184596,0,3.0,4.3637695999932475,True,1,25,A,2023-09-20_10h39.47.882,exp3,2022.2.2,
,,,,,,,,,,,,,,,,,,,,,,,,104,-1716,Valid,noise,45,1,2.1711065000272356,0,4.0,3.4796625000308268,True,1,25,A,2023-09-20_10h39.47.882,exp3,2022.2.2,
,,,,,,,,,,,,,,,,,,,,,,,,105,-1716,Invalid,signal,45,2,4.189644700032659,0,1.0,5.497639799956232,True,1,25,A,2023-09-20_10h39.47.882,exp3,2022.2.2,
,,,,,,,,,,,,,,,,,,,,,,,,106,557,Invalid,noise,-45,2,2.537735599966254,1,2.0,3.8462026999914087,True,1,25,A,2023-09-20_10h39.47.882,exp3,2022.2.2,
,,,,,,,,,,,,,,,,,,,,,,,,107,1158,Valid,noise,45,1,1.2707017000066116,0,4.0,2.579020200006198,True,1,25,A,2023-09-20_10h39.47.882,exp3,2022.2.2,
,,,,,,,,,,,,,,,,,,,,,,,,108,2274,Valid,noise,45,1,3.0391290000407025,0,2.0,4.347350099997129,True,1,25,A,2023-09-20_10h39.47.882,exp3,2022.2.2,
,,,,,,,,,,,,,,,,,,,,,,,,109,-1158,Invalid,noise,-45,1,4.788505400007125,0,2.0,6.096975199994631,True,1,25,A,2023-09-20_10h39.47.882,exp3,2022.2.2,
,,,,,,,,,,,,,,,,,,,,,,,,110,-557,Valid,signal,45,2,1.8048239999916404,0,3.0,3.113015400012955,True,1,25,A,2023-09-20_10h39.47.882,exp3,2022.2.2,
,,,,,,,,,,,,,,,,,,,,,,,,111,557,Valid,signal,45,2,1.6382654000190087,0,4.0,2.9463303000084125,True,1,25,A,2023-09-20_10h39.47.882,exp3,2022.2.2,
,,,,,,,,,,,,,,,,,,,,,,,,112,2274,Invalid,noise,45,2,3.9051763999741524,1,1.0,5.2133624000125565,True,1,25,A,2023-09-20_10h39.47.882,exp3,2022.2.2,
,,,,,,,,,,,,,,,,,,,,,,,,113,1158,Invalid,noise,45,1,1.2047743999864906,0,4.0,2.512843700009398,True,1,25,A,2023-09-20_10h39.47.882,exp3,2022.2.2,
,,,,,,,,,,,,,,,,,,,,,,,,114,1716,Invalid,signal,45,2,1.4874911000370048,0,3.0,2.795909499982372,True,1,25,A,2023-09-20_10h39.47.882,exp3,2022.2.2,
,,,,,,,,,,,,,,,,,,,,,,,,115,-557,Valid,signal,45,2,1.9379771000239998,0,4.0,3.246104000019841,True,1,25,A,2023-09-20_10h39.47.882,exp3,2022.2.2,
,,,,,,,,,,,,,,,,,,,,,,,,116,-557,Valid,noise,-45,1,1.1380676999688148,0,4.0,2.4463050000485964,True,1,25,A,2023-09-20_10h39.47.882,exp3,2022.2.2,
,,,,,,,,,,,,,,,,,,,,,,,,117,-1158,Valid,noise,-45,1,0.9878523999941535,0,4.0,2.296132299990859,True,1,25,A,2023-09-20_10h39.47.882,exp3,2022.2.2,
,,,,,,,,,,,,,,,,,,,,,,,,118,2274,Valid,noise,-45,1,2.805849299998954,0,3.0,4.113772100012284,True,1,25,A,2023-09-20_10h39.47.882,exp3,2022.2.2,
,,,,,,,,,,,,,,,,,,,,,,,,119,2274,Valid,signal,-45,1,3.038124600017909,1,4.0,4.346315900038462,True,1,25,A,2023-09-20_10h39.47.882,exp3,2022.2.2,
,,,,,,,,,,,,,,,,,,,,,,,,120,-557,Valid,noise,-45,2,3.038859100022819,1,1.0,4.346903300029226,True,1,25,A,2023-09-20_10h39.47.882,exp3,2022.2.2,
,,,,,,,,,,,,,,,,,,,,,,,,121,-1158,Valid,signal,-45,2,5.939315599971451,0,3.0,7.247586599958595,True,1,25,A,2023-09-20_10h39.47.882,exp3,2022.2.2,
,,,,,,,,,,,,,,,,,,,,,,,,122,557,Valid,noise,-45,2,2.037792100047227,1,2.0,3.3460487999836914,True,1,25,A,2023-09-20_10h39.47.882,exp3,2022.2.2,
,,,,,,,,,,,,,,,,,,,,,,,,123,-557,Valid,noise,45,1,2.4052104000002146,0,1.0,3.713424999965355,True,1,25,A,2023-09-20_10h39.47.882,exp3,2022.2.2,
,,,,,,,,,,,,,,,,,,,,,,,,124,2274,Invalid,noise,45,1,2.3549627999891527,0,1.0,3.6631966999848373,True,1,25,A,2023-09-20_10h39.47.882,exp3,2022.2.2,
,,,,,,,,,,,,,,,,,,,,,,,,125,2274,Valid,signal,-45,1,3.2380986000061966,1,2.0,4.546744999999646,True,1,25,A,2023-09-20_10h39.47.882,exp3,2022.2.2,
,,,,,,,,,,,,,,,,,,,,,,,,126,-2274,Invalid,noise,-45,1,8.640874499978963,0,1.0,9.949055699980818,True,1,25,A,2023-09-20_10h39.47.882,exp3,2022.2.2,
,,,,,,,,,,,,,,,,,,,,,,,,127,557,Valid,signal,-45,2,1.3042088000220247,0,4.0,2.6126969000324607,True,1,25,A,2023-09-20_10h39.47.882,exp3,2022.2.2,
,,,,,,,,,,,,,,,,,,,,,,,,128,-1158,Valid,noise,-45,1,1.6884009000496008,0,4.0,2.9965923999552615,True,1,25,A,2023-09-20_10h39.47.882,exp3,2022.2.2,
,,,,,,,,,,,,,,,,,,,,,,,,129,-2274,Valid,noise,-45,1,1.0712377000018023,0,4.0,2.378977299958933,True,1,25,A,2023-09-20_10h39.47.882,exp3,2022.2.2,
,,,,,,,,,,,,,,,,,,,,,,,,130,1716,Valid,noise,-45,1,2.3549536999780685,0,3.0,3.6632710000267252,True,1,25,A,2023-09-20_10h39.47.882,exp3,2022.2.2,
,,,,,,,,,,,,,,,,,,,,,,,,131,-1716,Valid,noise,45,1,0.9703649000148289,0,4.0,2.2787537000258453,True,1,25,A,2023-09-20_10h39.47.882,exp3,2022.2.2,
,,,,,,,,,,,,,,,,,,,,,,,,132,-2274,Valid,signal,45,1,0.9876881999662146,1,4.0,2.2958388999686576,True,1,25,A,2023-09-20_10h39.47.882,exp3,2022.2.2,
,,,,,,,,,,,,,,,,,,,,,,,,133,2274,Valid,noise,-45,1,1.7218643000232987,0,3.0,3.029979299986735,True,1,25,A,2023-09-20_10h39.47.882,exp3,2022.2.2,
,,,,,,,,,,,,,,,,,,,,,,,,134,-557,Valid,noise,-45,1,1.521164400037378,0,3.0,2.829265200009104,True,1,25,A,2023-09-20_10h39.47.882,exp3,2022.2.2,
,,,,,,,,,,,,,,,,,,,,,,,,135,-1158,Valid,noise,45,1,1.2877739000250585,0,4.0,2.5958896999945864,True,1,25,A,2023-09-20_10h39.47.882,exp3,2022.2.2,
,,,,,,,,,,,,,,,,,,,,,,,,136,1716,Valid,signal,45,2,1.9717554999515414,0,2.0,3.279739100020379,True,1,25,A,2023-09-20_10h39.47.882,exp3,2022.2.2,
,,,,,,,,,,,,,,,,,,,,,,,,137,-1158,Valid,noise,-45,1,1.5211841999553144,0,4.0,2.8293602999765426,True,1,25,A,2023-09-20_10h39.47.882,exp3,2022.2.2,
,,,,,,,,,,,,,,,,,,,,,,,,138,-2274,Valid,noise,-45,1,1.7388706000056118,0,4.0,3.046704300038982,True,1,25,A,2023-09-20_10h39.47.882,exp3,2022.2.2,
,,,,,,,,,,,,,,,,,,,,,,,,139,-557,Valid,noise,45,1,1.4869177000364289,0,2.0,2.795274200034328,True,1,25,A,2023-09-20_10h39.47.882,exp3,2022.2.2,
,,,,,,,,,,,,,,,,,,,,,,,,140,-557,Invalid,signal,45,2,1.5554960999870673,0,3.0,2.8633366000140086,True,1,25,A,2023-09-20_10h39.47.882,exp3,2022.2.2,
,,,,,,,,,,,,,,,,,,,,,,,,141,-1158,Invalid,signal,-45,2,3.188454300048761,0,3.0,4.496551999996882,True,1,25,A,2023-09-20_10h39.47.882,exp3,2022.2.2,
,,,,,,,,,,,,,,,,,,,,,,,,142,1716,Valid,noise,45,1,1.02142330002971,0,4.0,2.3297017999575473,True,1,25,A,2023-09-20_10h39.47.882,exp3,2022.2.2,
,,,,,,,,,,,,,,,,,,,,,,,,143,1158,Valid,signal,-45,2,2.054228900000453,0,2.0,3.3625975999748334,True,1,25,A,2023-09-20_10h39.47.882,exp3,2022.2.2,
,,,,,,,,,,,,,,,,,,,,,,,,144,-2274,Valid,signal,-45,1,2.304763699998148,1,4.0,3.613136800006032,True,1,25,A,2023-09-20_10h39.47.882,exp3,2022.2.2,
,,,,,,,,,,,,,,,,,,,,,,,,145,1158,Valid,signal,45,2,3.388503900030628,0,3.0,4.696702999994159,True,1,25,A,2023-09-20_10h39.47.882,exp3,2022.2.2,
,,,,,,,,,,,,,,,,,,,,,,,,146,2274,Valid,signal,-45,2,6.49102389998734,0,1.0,7.798902299953625,True,1,25,A,2023-09-20_10h39.47.882,exp3,2022.2.2,
,,,,,,,,,,,,,,,,,,,,,,,,147,1716,Valid,noise,45,1,1.4870948999887332,0,4.0,2.7955844000098296,True,1,25,A,2023-09-20_10h39.47.882,exp3,2022.2.2,
,,,,,,,,,,,,,,,,,,,,,,,,148,-1158,Valid,signal,45,2,7.506903600005899,0,2.0,8.81526559998747,True,1,25,A,2023-09-20_10h39.47.882,exp3,2022.2.2,
,,,,,,,,,,,,,,,,,,,,,,,,149,557,Invalid,signal,-45,2,10.874921300041024,0,3.0,12.183052700012922,True,1,25,A,2023-09-20_10h39.47.882,exp3,2022.2.2,
,,,,,,,,,,,,,,,,,,,,,,,,150,-1716,Invalid,noise,45,1,1.472005599993281,0,4.0,2.7801141999661922,True,1,25,A,2023-09-20_10h39.47.882,exp3,2022.2.2,
,,,,,,,,,,,,,,,,,,,,,,,,151,1716,Invalid,noise,-45,1,1.4206572999828495,0,4.0,2.728820300020743,True,1,25,A,2023-09-20_10h39.47.882,exp3,2022.2.2,
,,,,,,,,,,,,,,,,,,,,,,,,152,1158,Valid,signal,45,2,1.8052405000198632,0,2.0,3.113344099954702,True,1,25,A,2023-09-20_10h39.47.882,exp3,2022.2.2,
,,,,,,,,,,,,,,,,,,,,,,,,153,-1158,Valid,signal,45,2,2.0879609000403434,0,3.0,3.396182399999816,True,1,25,A,2023-09-20_10h39.47.882,exp3,2022.2.2,
,,,,,,,,,,,,,,,,,,,,,,,,154,-1716,Valid,signal,-45,2,2.6215108000324108,0,2.0,3.92950699996436,True,1,25,A,2023-09-20_10h39.47.882,exp3,2022.2.2,
,,,,,,,,,,,,,,,,,,,,,,,,155,2274,Invalid,signal,45,2,3.52247740002349,0,1.0,4.830652199976612,True,1,25,A,2023-09-20_10h39.47.882,exp3,2022.2.2,
,,,,,,,,,,,,,,,,,,,,,,,,156,-557,Valid,signal,45,2,1.6375522000016645,0,3.0,2.946003799967002,True,1,25,A,2023-09-20_10h39.47.882,exp3,2022.2.2,
,,,,,,,,,,,,,,,,,,,,,,,,157,1158,Valid,signal,-45,2,2.188244500022847,0,3.0,3.4964213999919593,True,1,25,A,2023-09-20_10h39.47.882,exp3,2022.2.2,
,,,,,,,,,,,,,,,,,,,,,,,,158,557,Valid,noise,45,2,2.0216209999634884,1,3.0,3.3298712999676354,True,1,25,A,2023-09-20_10h39.47.882,exp3,2022.2.2,
,,,,,,,,,,,,,,,,,,,,,,,,159,2274,Valid,signal,-45,1,2.1882968000136316,1,1.0,3.4964922000071965,True,1,25,A,2023-09-20_10h39.47.882,exp3,2022.2.2,
,,,,,,,,,,,,,,,,,,,,,,,,160,1716,Invalid,signal,-45,2,2.3214510999969207,0,3.0,3.6298222999903373,True,1,25,A,2023-09-20_10h39.47.882,exp3,2022.2.2,
,,,,,,,,,,,,,,,,,,,,,,,,161,2274,Valid,noise,45,1,1.3382930000079796,0,4.0,2.6465508999535814,True,1,25,A,2023-09-20_10h39.47.882,exp3,2022.2.2,
,,,,,,,,,,,,,,,,,,,,,,,,162,557,Valid,noise,45,1,2.1876974999904633,0,3.0,3.495951300021261,True,1,25,A,2023-09-20_10h39.47.882,exp3,2022.2.2,
,,,,,,,,,,,,,,,,,,,,,,,,163,557,Valid,signal,45,2,2.3050914999912493,0,4.0,3.613250099995639,True,1,25,A,2023-09-20_10h39.47.882,exp3,2022.2.2,
,,,,,,,,,,,,,,,,,,,,,,,,164,2274,Valid,signal,-45,1,2.7052293999586254,1,2.0,4.013503799971659,True,1,25,A,2023-09-20_10h39.47.882,exp3,2022.2.2,
,,,,,,,,,,,,,,,,,,,,,,,,165,-1158,Valid,noise,45,1,1.3878758999635465,0,4.0,2.695882599975448,True,1,25,A,2023-09-20_10h39.47.882,exp3,2022.2.2,
,,,,,,,,,,,,,,,,,,,,,,,,166,-557,Valid,signal,45,2,3.822494700027164,0,2.0,5.130564699997194,True,1,25,A,2023-09-20_10h39.47.882,exp3,2022.2.2,
,,,,,,,,,,,,,,,,,,,,,,,,167,-2274,Valid,signal,-45,2,2.9050928999786265,0,1.0,4.213420499989297,True,1,25,A,2023-09-20_10h39.47.882,exp3,2022.2.2,
,,,,,,,,,,,,,,,,,,,,,,,,168,-1158,Valid,signal,-45,2,2.355691200005822,0,3.0,3.6637548999860883,True,1,25,A,2023-09-20_10h39.47.882,exp3,2022.2.2,
,,,,,,,,,,,,,,,,,,,,,,,,169,1158,Valid,noise,45,1,1.420808099966962,0,4.0,2.729029399983119,True,1,25,A,2023-09-20_10h39.47.882,exp3,2022.2.2,
,,,,,,,,,,,,,,,,,,,,,,,,170,1716,Valid,signal,45,2,5.255941000010353,0,2.0,6.564352700021118,True,1,25,A,2023-09-20_10h39.47.882,exp3,2022.2.2,
,,,,,,,,,,,,,,,,,,,,,,,,171,-1716,Invalid,signal,45,2,4.67228040000191,0,2.0,5.980461800005287,True,1,25,A,2023-09-20_10h39.47.882,exp3,2022.2.2,
,,,,,,,,,,,,,,,,,,,,,,,,172,-2274,Invalid,signal,-45,2,3.888790400000289,0,3.0,5.197153199987952,True,1,25,A,2023-09-20_10h39.47.882,exp3,2022.2.2,
,,,,,,,,,,,,,,,,,,,,,,,,173,2274,Invalid,signal,-45,2,3.355726899986621,0,3.0,4.664108600001782,True,1,25,A,2023-09-20_10h39.47.882,exp3,2022.2.2,
,,,,,,,,,,,,,,,,,,,,,,,,174,2274,Valid,noise,45,1,2.155131400038954,0,1.0,3.4631890000309795,True,1,25,A,2023-09-20_10h39.47.882,exp3,2022.2.2,
,,,,,,,,,,,,,,,,,,,,,,,,175,1158,Valid,signal,45,2,1.3707525000208989,0,3.0,2.6787445999798365,True,1,25,A,2023-09-20_10h39.47.882,exp3,2022.2.2,
,,,,,,,,,,,,,,,,,,,,,,,,176,1158,Valid,signal,-45,2,1.6045445999479853,0,4.0,2.9127860000007786,True,1,25,A,2023-09-20_10h39.47.882,exp3,2022.2.2,
,,,,,,,,,,,,,,,,,,,,,,,,2,1158,Valid,signal,-45,2,6.962198399996851,0,4.0,8.271045000001322,True,1,25,A,2023-09-20_10h39.47.882,exp3,2022.2.2,
,,,,,,,,,,,,,,,,,,,,,,,,4,1716,Valid,signal,-45,2,2.4539372000144795,0,3.0,3.7626708999741822,True,1,25,A,2023-09-20_10h39.47.882,exp3,2022.2.2,
,,,,,,,,,,,,,,,,,,,,,,,,6,557,Invalid,signal,45,2,2.771296599996276,0,3.0,4.079826799978036,True,1,25,A,2023-09-20_10h39.47.882,exp3,2022.2.2,
,,,,,,,,,,,,,,,,,,,,,,,,8,-2274,Valid,noise,45,1,1.4205968999885954,0,4.0,2.729407499951776,True,1,25,A,2023-09-20_10h39.47.882,exp3,2022.2.2,
,,,,,,,,,,,,,,,,,,,,,,,,10,1158,Valid,noise,45,1,1.8878502000006847,0,4.0,3.1964547999668866,True,1,25,A,2023-09-20_10h39.47.882,exp3,2022.2.2,
,,,,,,,,,,,,,,,,,,,,,,,,12,-557,Valid,noise,-45,1,1.3547161999740638,0,4.0,2.663062000006903,True,1,25,A,2023-09-20_10h39.47.882,exp3,2022.2.2,
,,,,,,,,,,,,,,,,,,,,,,,,14,-557,Invalid,noise,-45,1,1.437320000026375,0,4.0,2.7459900000249036,True,1,25,A,2023-09-20_10h39.47.882,exp3,2022.2.2,
,,,,,,,,,,,,,,,,,,,,,,,,16,1716,Valid,signal,-45,2,3.1716041000327095,0,2.0,4.480275099980645,True,1,25,A,2023-09-20_10h39.47.882,exp3,2022.2.2,
,,,,,,,,,,,,,,,,,,,,,,,,18,1716,Valid,signal,-45,2,4.2551138999988325,0,1.0,5.563689399976283,True,1,25,A,2023-09-20_10h39.47.882,exp3,2022.2.2,
,,,,,,,,,,,,,,,,,,,,,,,,20,-557,Valid,signal,45,2,1.5878405999974348,0,4.0,2.8964759999653324,True,1,25,A,2023-09-20_10h39.47.882,exp3,2022.2.2,
,,,,,,,,,,,,,,,,,,,,,,,,22,-2274,Valid,signal,45,1,1.4542728000087664,1,4.0,2.7629027999937534,True,1,25,A,2023-09-20_10h39.47.882,exp3,2022.2.2,
,,,,,,,,,,,,,,,,,,,,,,,,24,1716,Invalid,signal,-45,2,2.9553353000083007,0,3.0,4.263635399984196,True,1,25,A,2023-09-20_10h39.47.882,exp3,2022.2.2,
,,,,,,,,,,,,,,,,,,,,,,,,26,-1158,Invalid,signal,45,1,2.7876701000495814,1,1.0,4.096412500017323,True,1,25,A,2023-09-20_10h39.47.882,exp3,2022.2.2,
,,,,,,,,,,,,,,,,,,,,,,,,28,2274,Valid,signal,-45,1,2.4044286999851465,1,2.0,3.7131038999650627,True,1,25,A,2023-09-20_10h39.47.882,exp3,2022.2.2,
,,,,,,,,,,,,,,,,,,,,,,,,30,1158,Valid,noise,45,1,1.7880359999835491,0,4.0,3.096538200043142,True,1,25,A,2023-09-20_10h39.47.882,exp3,2022.2.2,
,,,,,,,,,,,,,,,,,,,,,,,,32,1716,Valid,noise,45,1,3.0549331000074744,0,4.0,4.363513600022998,True,1,25,A,2023-09-20_10h39.47.882,exp3,2022.2.2,
,,,,,,,,,,,,,,,,,,,,,,,,34,557,Valid,signal,-45,2,1.637904700008221,0,4.0,2.9464961999910884,True,1,25,A,2023-09-20_10h39.47.882,exp3,2022.2.2,
,,,,,,,,,,,,,,,,,,,,,,,,36,-2274,Valid,noise,45,1,3.421317599946633,0,2.0,4.730005899968091,True,1,25,A,2023-09-20_10h39.47.882,exp3,2022.2.2,
,,,,,,,,,,,,,,,,,,,,,,,,38,2274,Valid,signal,-45,1,2.5545650999993086,1,2.0,3.863028599997051,True,1,25,A,2023-09-20_10h39.47.882,exp3,2022.2.2,
,,,,,,,,,,,,,,,,,,,,,,,,40,1716,Valid,signal,45,2,1.4212090999935754,0,3.0,2.729467700002715,True,1,25,A,2023-09-20_10h39.47.882,exp3,2022.2.2,
,,,,,,,,,,,,,,,,,,,,,,,,42,-2274,Valid,noise,-45,1,1.1876654999796301,0,4.0,2.496068100037519,True,1,25,A,2023-09-20_10h39.47.882,exp3,2022.2.2,
,,,,,,,,,,,,,,,,,,,,,,,,44,1158,Valid,signal,-45,2,1.2549259000224993,0,3.0,2.5631828000186943,True,1,25,A,2023-09-20_10h39.47.882,exp3,2022.2.2,
,,,,,,,,,,,,,,,,,,,,,,,,46,1716,Invalid,noise,-45,1,0.9368038999964483,0,4.0,2.2453689000103623,True,1,25,A,2023-09-20_10h39.47.882,exp3,2022.2.2,
,,,,,,,,,,,,,,,,,,,,,,,,48,1158,Valid,signal,-45,2,1.5710276000318117,0,3.0,2.879641899955459,True,1,25,A,2023-09-20_10h39.47.882,exp3,2022.2.2,
,,,,,,,,,,,,,,,,,,,,,,,,50,-1158,Valid,signal,-45,2,1.4875092000002041,0,3.0,2.796352499979548,True,1,25,A,2023-09-20_10h39.47.882,exp3,2022.2.2,
,,,,,,,,,,,,,,,,,,,,,,,,52,-557,Valid,signal,-45,2,1.8042988000088371,0,4.0,3.112837099994067,True,1,25,A,2023-09-20_10h39.47.882,exp3,2022.2.2,
,,,,,,,,,,,,,,,,,,,,,,,,54,1158,Valid,noise,45,1,1.0539789000176825,0,4.0,2.3625714000081643,True,1,25,A,2023-09-20_10h39.47.882,exp3,2022.2.2,
,,,,,,,,,,,,,,,,,,,,,,,,56,557,Valid,noise,45,1,1.0378461999935098,0,4.0,2.346473299956415,True,1,25,A,2023-09-20_10h39.47.882,exp3,2022.2.2,
,,,,,,,,,,,,,,,,,,,,,,,,58,557,Valid,noise,-45,1,1.220069999981206,0,4.0,2.5288794999942183,True,1,25,A,2023-09-20_10h39.47.882,exp3,2022.2.2,
,,,,,,,,,,,,,,,,,,,,,,,,60,-557,Valid,signal,-45,2,1.30476109997835,0,3.0,2.613020500051789,True,1,25,A,2023-09-20_10h39.47.882,exp3,2022.2.2,
,,,,,,,,,,,,,,,,,,,,,,,,62,1158,Valid,noise,45,2,2.1539716999977827,1,1.0,3.4625546000315808,True,1,25,A,2023-09-20_10h39.47.882,exp3,2022.2.2,
,,,,,,,,,,,,,,,,,,,,,,,,64,2274,Valid,signal,45,1,4.956679999944754,1,1.0,6.26496479997877,True,1,25,A,2023-09-20_10h39.47.882,exp3,2022.2.2,
,,,,,,,,,,,,,,,,,,,,,,,,66,-2274,Invalid,signal,-45,1,2.104428499995265,1,3.0,3.4128515000338666,True,1,25,A,2023-09-20_10h39.47.882,exp3,2022.2.2,
,,,,,,,,,,,,,,,,,,,,,,,,68,-1158,Valid,noise,45,1,1.5204971000202931,0,4.0,2.8290105999913067,True,1,25,A,2023-09-20_10h39.47.882,exp3,2022.2.2,
,,,,,,,,,,,,,,,,,,,,,,,,70,1158,Valid,noise,-45,1,1.2373073000344448,0,4.0,2.5457799999858253,True,1,25,A,2023-09-20_10h39.47.882,exp3,2022.2.2,
,,,,,,,,,,,,,,,,,,,,,,,,72,-557,Valid,signal,45,2,1.7044988000416197,0,3.0,3.0130865999963135,True,1,25,A,2023-09-20_10h39.47.882,exp3,2022.2.2,
,,,,,,,,,,,,,,,,,,,,,,,,74,-1158,Valid,noise,45,1,1.2041274999501184,0,4.0,2.512502899975516,True,1,25,A,2023-09-20_10h39.47.882,exp3,2022.2.2,
,,,,,,,,,,,,,,,,,,,,,,,,76,557,Invalid,signal,-45,2,2.604939499986358,0,4.0,3.913409899978433,True,1,25,A,2023-09-20_10h39.47.882,exp3,2022.2.2,
,,,,,,,,,,,,,,,,,,,,,,,,78,-1716,Valid,noise,-45,1,0.9205805999808945,0,4.0,2.2290146999876015,True,1,25,A,2023-09-20_10h39.47.882,exp3,2022.2.2,
,,,,,,,,,,,,,,,,,,,,,,,,80,-2274,Valid,noise,45,1,0.7707618999993429,0,4.0,2.0793407000019215,True,1,25,A,2023-09-20_10h39.47.882,exp3,2022.2.2,
,,,,,,,,,,,,,,,,,,,,,,,,82,557,Valid,noise,45,1,2.5377682000398636,0,3.0,3.8462878999998793,True,1,25,A,2023-09-20_10h39.47.882,exp3,2022.2.2,
,,,,,,,,,,,,,,,,,,,,,,,,84,-2274,Valid,signal,45,1,1.154246799997054,1,4.0,2.4628512999624945,True,1,25,A,2023-09-20_10h39.47.882,exp3,2022.2.2,
,,,,,,,,,,,,,,,,,,,,,,,,86,-2274,Valid,signal,45,1,1.5378511000308208,1,4.0,2.8462689999723807,True,1,25,A,2023-09-20_10h39.47.882,exp3,2022.2.2,
,,,,,,,,,,,,,,,,,,,,,,,,88,-2274,Valid,noise,-45,1,2.804479199985508,0,3.0,4.113395099993795,True,1,25,A,2023-09-20_10h39.47.882,exp3,2022.2.2,
,,,,,,,,,,,,,,,,,,,,,,,,90,-1716,Valid,noise,-45,1,2.0710135000408627,0,4.0,3.379858299973421,True,1,25,A,2023-09-20_10h39.47.882,exp3,2022.2.2,
,,,,,,,,,,,,,,,,,,,,,,,,92,-2274,Valid,signal,-45,1,1.3037791999522597,1,4.0,2.612717200012412,True,1,25,A,2023-09-20_10h39.47.882,exp3,2022.2.2,
,,,,,,,,,,,,,,,,,,,,,,,,94,1716,Valid,signal,45,2,5.772595499991439,0,1.0,7.081093500019051,True,1,25,A,2023-09-20_10h39.47.882,exp3,2022.2.2,
,,,,,,,,,,,,,,,,,,,,,,,,96,-1158,Valid,signal,45,2,4.5721762999892235,0,2.0,5.88067460001912,True,1,25,A,2023-09-20_10h39.47.882,exp3,2022.2.2,
,,,,,,,,,,,,,,,,,,,,,,,,98,-1158,Valid,noise,45,1,5.305742199998349,0,4.0,6.614654100034386,True,1,25,A,2023-09-20_10h39.47.882,exp3,2022.2.2,
,,,,,,,,,,,,,,,,,,,,,,,,100,-1716,Valid,signal,-45,1,3.1247439999715425,1,3.0,6.580829199985601,True,2,25,A,2023-09-20_10h39.47.882,exp3,2022.2.2,
,,,,,,,,,,,,,,,,,,,,,,,,102,557,Valid,signal,-45,2,2.4876078000525013,0,3.0,3.7963701999979094,True,1,25,A,2023-09-20_10h39.47.882,exp3,2022.2.2,
,,,,,,,,,,,,,,,,,,,,,,,,104,1716,Valid,noise,45,1,3.9054392999969423,0,3.0,5.213900200033095,True,1,25,A,2023-09-20_10h39.47.882,exp3,2022.2.2,
,,,,,,,,,,,,,,,,,,,,,,,,106,1716,Valid,signal,-45,1,5.6888207999872975,1,2.0,6.997432400006801,True,1,25,A,2023-09-20_10h39.47.882,exp3,2022.2.2,
,,,,,,,,,,,,,,,,,,,,,,,,108,-557,Valid,signal,45,2,4.8229051000089385,0,3.0,6.131097899982706,True,1,25,A,2023-09-20_10h39.47.882,exp3,2022.2.2,
,,,,,,,,,,,,,,,,,,,,,,,,110,557,Invalid,noise,45,1,9.923767899977975,0,1.0,11.232425900001545,True,1,25,A,2023-09-20_10h39.47.882,exp3,2022.2.2,
,,,,,,,,,,,,,,,,,,,,,,,,112,-1158,Valid,noise,-45,1,1.5706836000317708,0,4.0,2.879124100029003,True,1,25,A,2023-09-20_10h39.47.882,exp3,2022.2.2,
,,,,,,,,,,,,,,,,,,,,,,,,114,-1716,Invalid,noise,45,1,1.3043508999980986,0,4.0,2.6130718999775127,True,1,25,A,2023-09-20_10h39.47.882,exp3,2022.2.2,
,,,,,,,,,,,,,,,,,,,,,,,,116,-2274,Valid,noise,45,1,1.1374442999949679,0,4.0,2.446234699978959,True,1,25,A,2023-09-20_10h39.47.882,exp3,2022.2.2,
,,,,,,,,,,,,,,,,,,,,,,,,118,-1716,Valid,noise,45,1,3.9718817000393756,0,3.0,5.2805302000488155,True,1,25,A,2023-09-20_10h39.47.882,exp3,2022.2.2,
,,,,,,,,,,,,,,,,,,,,,,,,120,-2274,Invalid,noise,45,1,2.221246400033124,0,4.0,3.530098300019745,True,1,25,A,2023-09-20_10h39.47.882,exp3,2022.2.2,
,,,,,,,,,,,,,,,,,,,,,,,,122,1158,Invalid,signal,45,2,1.6202333000255749,0,4.0,2.9286505000200123,True,1,25,A,2023-09-20_10h39.47.882,exp3,2022.2.2,
,,,,,,,,,,,,,,,,,,,,,,,,124,-1716,Invalid,noise,45,1,2.1718234000145458,0,4.0,3.4802970999735408,True,1,25,A,2023-09-20_10h39.47.882,exp3,2022.2.2,
,,,,,,,,,,,,,,,,,,,,,,,,126,-1716,Valid,noise,45,1,1.004084900021553,0,4.0,2.312572300026659,True,1,25,A,2023-09-20_10h39.47.882,exp3,2022.2.2,
