trials.label,trials.startVal,trials.maxVal,trials.minVal,trials.startValSd,trials.pthreshold,trials.beta,trials.delta,trials.gamma,trials.grain,trials.stepSize,trials.range,trials.cue,trials.thisIndex,trials.thisRepN,trials.thisN,trials.direction,trials.stepType,trials.intensity,signalOpacity,level,trials.response,stair_eye_ok,nTrial,position,validity,Stimulus,orientation,response_key,response_rt,response_correct,confidence,confidence_rt,eye_ok,participant,session,date,expName,psychopyVersion,
high_opac_v,0.01,1,0.01,3,0.82,3.5,0.01,0,0.01,4,5,Valid,1,1,0,start,lin,0.01,0,0.01,1,True,,,,,,,,,,,,4,A,2023-08-28_14h39.19.932,exp3,2022.2.2,
low_opac_v,0.4,1,0.01,3,0.82,3.5,0.01,0,0.01,4,5,Valid,0,1,1,start,lin,0.4,0,0.4,1,True,,,,,,,,,,,,4,A,2023-08-28_14h39.19.932,exp3,2022.2.2,
low_opac_i,0.4,1,0.01,3,0.82,3.5,0.01,0,0.01,4,5,Invalid,2,1,2,start,lin,0.4,0,0.4,0,True,,,,,,,,,,,,4,A,2023-08-28_14h39.19.932,exp3,2022.2.2,
low_opac_i,0.4,1,0.01,3,0.82,3.5,0.01,0,0.01,4,5,Invalid,2,2,3,start,lin,1,0,1,0,True,,,,,,,,,,,,4,A,2023-08-28_14h39.19.932,exp3,2022.2.2,
low_opac_v,0.4,1,0.01,3,0.82,3.5,0.01,0,0.01,4,5,Valid,0,2,4,start,lin,0.01,0.01,0.01,1,True,,,,,,,,,,,,4,A,2023-08-28_14h39.19.932,exp3,2022.2.2,
high_opac_v,0.01,1,0.01,3,0.82,3.5,0.01,0,0.01,4,5,Valid,1,2,5,start,lin,0.01,0,0.01,1,True,,,,,,,,,,,,4,A,2023-08-28_14h39.19.932,exp3,2022.2.2,
low_opac_v,0.4,1,0.01,3,0.82,3.5,0.01,0,0.01,4,5,Valid,0,3,6,start,lin,0.01,0.01,0.01,1,True,,,,,,,,,,,,4,A,2023-08-28_14h39.19.932,exp3,2022.2.2,
low_opac_i,0.4,1,0.01,3,0.82,3.5,0.01,0,0.01,4,5,Invalid,2,3,7,start,lin,1,0,1,0,True,,,,,,,,,,,,4,A,2023-08-28_14h39.19.932,exp3,2022.2.2,
high_opac_v,0.01,1,0.01,3,0.82,3.5,0.01,0,0.01,4,5,Valid,1,3,8,start,lin,0.01,0.01,0.01,1,True,,,,,,,,,,,,4,A,2023-08-28_14h39.19.932,exp3,2022.2.2,
high_opac_v,0.01,1,0.01,3,0.82,3.5,0.01,0,0.01,4,5,Valid,1,4,9,start,lin,0.01,0,0.01,1,True,,,,,,,,,,,,4,A,2023-08-28_14h39.19.932,exp3,2022.2.2,
low_opac_v,0.4,1,0.01,3,0.82,3.5,0.01,0,0.01,4,5,Valid,0,4,10,start,lin,0.01,0.01,0.01,0,True,,,,,,,,,,,,4,A,2023-08-28_14h39.19.932,exp3,2022.2.2,
low_opac_i,0.4,1,0.01,3,0.82,3.5,0.01,0,0.01,4,5,Invalid,2,4,11,start,lin,1,0,1,0,True,,,,,,,,,,,,4,A,2023-08-28_14h39.19.932,exp3,2022.2.2,
low_opac_i,0.4,1,0.01,3,0.82,3.5,0.01,0,0.01,4,5,Invalid,2,5,12,start,lin,1,0,1,1,True,,,,,,,,,,,,4,A,2023-08-28_14h39.19.932,exp3,2022.2.2,
high_opac_v,0.01,1,0.01,3,0.82,3.5,0.01,0,0.01,4,5,Valid,1,5,13,start,lin,0.01,0,0.01,1,True,,,,,,,,,,,,4,A,2023-08-28_14h39.19.932,exp3,2022.2.2,
low_opac_v,0.4,1,0.01,3,0.82,3.5,0.01,0,0.01,4,5,Valid,0,5,14,start,lin,0.0158587974367983,0.0158587974367983,0.0158587974367983,1,True,,,,,,,,,,,,4,A,2023-08-28_14h39.19.932,exp3,2022.2.2,
low_opac_v,0.4,1,0.01,3,0.82,3.5,0.01,0,0.01,4,5,Valid,0,6,15,start,lin,0.01,0.01,0.01,1,True,,,,,,,,,,,,4,A,2023-08-28_14h39.19.932,exp3,2022.2.2,
low_opac_i,0.4,1,0.01,3,0.82,3.5,0.01,0,0.01,4,5,Invalid,2,6,16,start,lin,1,1,1,1,True,,,,,,,,,,,,4,A,2023-08-28_14h39.19.932,exp3,2022.2.2,
high_opac_v,0.01,1,0.01,3,0.82,3.5,0.01,0,0.01,4,5,Valid,1,6,17,start,lin,0.01,0,0.01,1,True,,,,,,,,,,,,4,A,2023-08-28_14h39.19.932,exp3,2022.2.2,
low_opac_i,0.4,1,0.01,3,0.82,3.5,0.01,0,0.01,4,5,Invalid,2,7,18,start,lin,1,0,1,0,True,,,,,,,,,,,,4,A,2023-08-28_14h39.19.932,exp3,2022.2.2,
high_opac_v,0.01,1,0.01,3,0.82,3.5,0.01,0,0.01,4,5,Valid,1,7,19,start,lin,0.01,0.01,0.01,0,True,,,,,,,,,,,,4,A,2023-08-28_14h39.19.932,exp3,2022.2.2,
low_opac_v,0.4,1,0.01,3,0.82,3.5,0.01,0,0.01,4,5,Valid,0,7,20,start,lin,0.01,0.01,0.01,1,True,,,,,,,,,,,,4,A,2023-08-28_14h39.19.932,exp3,2022.2.2,
low_opac_v,0.4,1,0.01,3,0.82,3.5,0.01,0,0.01,4,5,Valid,0,8,21,start,lin,0.01,0,0.01,0,True,,,,,,,,,,,,4,A,2023-08-28_14h39.19.932,exp3,2022.2.2,
low_opac_i,0.4,1,0.01,3,0.82,3.5,0.01,0,0.01,4,5,Invalid,2,8,22,start,lin,1,0,1,0,True,,,,,,,,,,,,4,A,2023-08-28_14h39.19.932,exp3,2022.2.2,
high_opac_v,0.01,1,0.01,3,0.82,3.5,0.01,0,0.01,4,5,Valid,1,8,23,start,lin,0.01,0,0.01,1,True,,,,,,,,,,,,4,A,2023-08-28_14h39.19.932,exp3,2022.2.2,
low_opac_i,0.4,1,0.01,3,0.82,3.5,0.01,0,0.01,4,5,Invalid,2,9,24,start,lin,1,0,1,0,True,,,,,,,,,,,,4,A,2023-08-28_14h39.19.932,exp3,2022.2.2,
high_opac_v,0.01,1,0.01,3,0.82,3.5,0.01,0,0.01,4,5,Valid,1,9,25,start,lin,0.01,0.01,0.01,0,True,,,,,,,,,,,,4,A,2023-08-28_14h39.19.932,exp3,2022.2.2,
low_opac_v,0.4,1,0.01,3,0.82,3.5,0.01,0,0.01,4,5,Valid,0,9,26,start,lin,0.0450394438628437,0.0450394438628437,0.0450394438628437,0,True,,,,,,,,,,,,4,A,2023-08-28_14h39.19.932,exp3,2022.2.2,
low_opac_i,0.4,1,0.01,3,0.82,3.5,0.01,0,0.01,4,5,Invalid,2,10,27,start,lin,1,0,1,1,True,,,,,,,,,,,,4,A,2023-08-28_14h39.19.932,exp3,2022.2.2,
high_opac_v,0.01,1,0.01,3,0.82,3.5,0.01,0,0.01,4,5,Valid,1,10,28,start,lin,0.011666663859978832,0.011666663859978832,0.011666663859978832,0,True,,,,,,,,,,,,4,A,2023-08-28_14h39.19.932,exp3,2022.2.2,
low_opac_v,0.4,1,0.01,3,0.82,3.5,0.01,0,0.01,4,5,Valid,0,10,29,start,lin,0.09123501945192652,0.09123501945192652,0.09123501945192652,1,True,,,,,,,,,,,,4,A,2023-08-28_14h39.19.932,exp3,2022.2.2,
low_opac_v,0.4,1,0.01,3,0.82,3.5,0.01,0,0.01,4,5,Valid,0,11,30,start,lin,0.08068765622827456,0.08068765622827456,0.08068765622827456,1,True,,,,,,,,,,,,4,A,2023-08-28_14h39.19.932,exp3,2022.2.2,
low_opac_i,0.4,1,0.01,3,0.82,3.5,0.01,0,0.01,4,5,Invalid,2,11,31,start,lin,1,0,1,1,True,,,,,,,,,,,,4,A,2023-08-28_14h39.19.932,exp3,2022.2.2,
high_opac_v,0.01,1,0.01,3,0.82,3.5,0.01,0,0.01,4,5,Valid,1,11,32,start,lin,0.052677497657970154,0.052677497657970154,0.052677497657970154,1,True,,,,,,,,,,,,4,A,2023-08-28_14h39.19.932,exp3,2022.2.2,
low_opac_i,0.4,1,0.01,3,0.82,3.5,0.01,0,0.01,4,5,Invalid,2,12,33,start,lin,1,1,1,1,True,,,,,,,,,,,,4,A,2023-08-28_14h39.19.932,exp3,2022.2.2,
high_opac_v,0.01,1,0.01,3,0.82,3.5,0.01,0,0.01,4,5,Valid,1,12,34,start,lin,0.04455518933785707,0,0.04455518933785707,1,True,,,,,,,,,,,,4,A,2023-08-28_14h39.19.932,exp3,2022.2.2,
low_opac_v,0.4,1,0.01,3,0.82,3.5,0.01,0,0.01,4,5,Valid,0,12,35,start,lin,0.07154345566485015,0.07154345566485015,0.07154345566485015,1,True,,,,,,,,,,,,4,A,2023-08-28_14h39.19.932,exp3,2022.2.2,
low_opac_v,0.4,1,0.01,3,0.82,3.5,0.01,0,0.01,4,5,Valid,0,13,36,start,lin,0.06333120287698357,0,0.06333120287698357,0,True,,,,,,,,,,,,4,A,2023-08-28_14h39.19.932,exp3,2022.2.2,
high_opac_v,0.01,1,0.01,3,0.82,3.5,0.01,0,0.01,4,5,Valid,1,13,37,start,lin,0.03706110947221483,0,0.03706110947221483,1,True,,,,,,,,,,,,4,A,2023-08-28_14h39.19.932,exp3,2022.2.2,
low_opac_i,0.4,1,0.01,3,0.82,3.5,0.01,0,0.01,4,5,Invalid,2,13,38,start,lin,1,0,1,0,True,,,,,,,,,,,,4,A,2023-08-28_14h39.19.932,exp3,2022.2.2,
high_opac_v,0.01,1,0.01,3,0.82,3.5,0.01,0,0.01,4,5,Valid,1,14,39,start,lin,0.030575603209664973,0,0.030575603209664973,1,True,,,,,,,,,,,,4,A,2023-08-28_14h39.19.932,exp3,2022.2.2,
low_opac_v,0.4,1,0.01,3,0.82,3.5,0.01,0,0.01,4,5,Valid,0,14,40,start,lin,0.09085170524504227,0.09085170524504227,0.09085170524504227,0,True,,,,,,,,,,,,4,A,2023-08-28_14h39.19.932,exp3,2022.2.2,
low_opac_i,0.4,1,0.01,3,0.82,3.5,0.01,0,0.01,4,5,Invalid,2,14,41,start,lin,1,1,1,1,True,,,,,,,,,,,,4,A,2023-08-28_14h39.19.932,exp3,2022.2.2,
high_opac_v,0.01,1,0.01,3,0.82,3.5,0.01,0,0.01,4,5,Valid,1,15,42,start,lin,0.024341250847027786,0,0.024341250847027786,1,True,,,,,,,,,,,,4,A,2023-08-28_14h39.19.932,exp3,2022.2.2,
low_opac_v,0.4,1,0.01,3,0.82,3.5,0.01,0,0.01,4,5,Valid,0,15,43,start,lin,0.11705624362949463,0,0.11705624362949463,1,True,,,,,,,,,,,,4,A,2023-08-28_14h39.19.932,exp3,2022.2.2,
low_opac_i,0.4,1,0.01,3,0.82,3.5,0.01,0,0.01,4,5,Invalid,2,15,44,start,lin,1,0,1,0,True,,,,,,,,,,,,4,A,2023-08-28_14h39.19.932,exp3,2022.2.2,
low_opac_v,0.4,1,0.01,3,0.82,3.5,0.01,0,0.01,4,5,Valid,0,16,45,start,lin,0.11066077742396996,0.11066077742396996,0.11066077742396996,1,True,,,,,,,,,,,,4,A,2023-08-28_14h39.19.932,exp3,2022.2.2,
low_opac_i,0.4,1,0.01,3,0.82,3.5,0.01,0,0.01,4,5,Invalid,2,16,46,start,lin,1,0,1,1,True,,,,,,,,,,,,4,A,2023-08-28_14h39.19.932,exp3,2022.2.2,
high_opac_v,0.01,1,0.01,3,0.82,3.5,0.01,0,0.01,4,5,Valid,1,16,47,start,lin,0.01826788293149466,0.01826788293149466,0.01826788293149466,1,True,,,,,,,,,,,,4,A,2023-08-28_14h39.19.932,exp3,2022.2.2,
low_opac_v,0.4,1,0.01,3,0.82,3.5,0.01,0,0.01,4,5,Valid,0,17,48,start,lin,0.10465688656908007,0.10465688656908007,0.10465688656908007,1,True,,,,,,,,,,,,4,A,2023-08-28_14h39.19.932,exp3,2022.2.2,
low_opac_i,0.4,1,0.01,3,0.82,3.5,0.01,0,0.01,4,5,Invalid,2,17,49,start,lin,1,1,1,1,True,,,,,,,,,,,,4,A,2023-08-28_14h39.19.932,exp3,2022.2.2,
high_opac_v,0.01,1,0.01,3,0.82,3.5,0.01,0,0.01,4,5,Valid,1,17,50,start,lin,0.012795243707676315,0.012795243707676315,0.012795243707676315,0,True,,,,,,,,,,,,4,A,2023-08-28_14h39.19.932,exp3,2022.2.2,
low_opac_v,0.4,1,0.01,3,0.82,3.5,0.01,0,0.01,4,5,Valid,0,18,51,start,lin,0.09891849126080599,0,0.09891849126080599,1,True,,,,,,,,,,,,4,A,2023-08-28_14h39.19.932,exp3,2022.2.2,
low_opac_i,0.4,1,0.01,3,0.82,3.5,0.01,0,0.01,4,5,Invalid,2,18,52,start,lin,1,1,1,1,True,,,,,,,,,,,,4,A,2023-08-28_14h39.19.932,exp3,2022.2.2,
high_opac_v,0.01,1,0.01,3,0.82,3.5,0.01,0,0.01,4,5,Valid,1,18,53,start,lin,0.033035711755419396,0,0.033035711755419396,1,True,,,,,,,,,,,,4,A,2023-08-28_14h39.19.932,exp3,2022.2.2,
low_opac_i,0.4,1,0.01,3,0.82,3.5,0.01,0,0.01,4,5,Invalid,2,19,54,start,lin,1,1,1,1,True,,,,,,,,,,,,4,A,2023-08-28_14h39.19.932,exp3,2022.2.2,
low_opac_v,0.4,1,0.01,3,0.82,3.5,0.01,0,0.01,4,5,Valid,0,19,55,start,lin,0.09385882986306565,0.09385882986306565,0.09385882986306565,0,True,,,,,,,,,,,,4,A,2023-08-28_14h39.19.932,exp3,2022.2.2,
high_opac_v,0.01,1,0.01,3,0.82,3.5,0.01,0,0.01,4,5,Valid,1,19,56,start,lin,0.028305650834445868,0.028305650834445868,0.028305650834445868,0,True,,,,,,,,,,,,4,A,2023-08-28_14h39.19.932,exp3,2022.2.2,
high_opac_v,0.01,1,0.01,3,0.82,3.5,0.01,0,0.01,4,5,Valid,1,20,57,start,lin,0.0456859649251512,0,0.0456859649251512,1,True,,,,,,,,,,,,4,A,2023-08-28_14h39.19.932,exp3,2022.2.2,
low_opac_i,0.4,1,0.01,3,0.82,3.5,0.01,0,0.01,4,5,Invalid,2,20,58,start,lin,1,0,1,1,True,,,,,,,,,,,,4,A,2023-08-28_14h39.19.932,exp3,2022.2.2,
low_opac_v,0.4,1,0.01,3,0.82,3.5,0.01,0,0.01,4,5,Valid,0,20,59,start,lin,0.11227952798440521,0.11227952798440521,0.11227952798440521,0,True,,,,,,,,,,,,4,A,2023-08-28_14h39.19.932,exp3,2022.2.2,
low_opac_i,0.4,1,0.01,3,0.82,3.5,0.01,0,0.01,4,5,Invalid,2,21,60,start,lin,1,1,1,1,True,,,,,,,,,,,,4,A,2023-08-28_14h39.19.932,exp3,2022.2.2,
low_opac_v,0.4,1,0.01,3,0.82,3.5,0.01,0,0.01,4,5,Valid,0,21,61,start,lin,0.13016000449496196,0.13016000449496196,0.13016000449496196,1,True,,,,,,,,,,,,4,A,2023-08-28_14h39.19.932,exp3,2022.2.2,
high_opac_v,0.01,1,0.01,3,0.82,3.5,0.01,0,0.01,4,5,Valid,1,21,62,start,lin,0.04174503531771621,0.04174503531771621,0.04174503531771621,0,True,,,,,,,,,,,,4,A,2023-08-28_14h39.19.932,exp3,2022.2.2,
high_opac_v,0.01,1,0.01,3,0.82,3.5,0.01,0,0.01,4,5,Valid,1,22,63,start,lin,0.05703063061024722,0,0.05703063061024722,0,True,,,,,,,,,,,,4,A,2023-08-28_14h39.19.932,exp3,2022.2.2,
low_opac_v,0.4,1,0.01,3,0.82,3.5,0.01,0,0.01,4,5,Valid,0,22,64,start,lin,0.12571413052604719,0,0.12571413052604719,1,True,,,,,,,,,,,,4,A,2023-08-28_14h39.19.932,exp3,2022.2.2,
low_opac_i,0.4,1,0.01,3,0.82,3.5,0.01,0,0.01,4,5,Invalid,2,22,65,start,lin,1,1,1,1,True,,,,,,,,,,,,4,A,2023-08-28_14h39.19.932,exp3,2022.2.2,
low_opac_i,0.4,1,0.01,3,0.82,3.5,0.01,0,0.01,4,5,Invalid,2,23,66,start,lin,1,1,1,1,True,,,,,,,,,,,,4,A,2023-08-28_14h39.19.932,exp3,2022.2.2,
high_opac_v,0.01,1,0.01,3,0.82,3.5,0.01,0,0.01,4,5,Valid,1,23,67,start,lin,0.0722781307455448,0,0.0722781307455448,1,True,,,,,,,,,,,,4,A,2023-08-28_14h39.19.932,exp3,2022.2.2,
low_opac_v,0.4,1,0.01,3,0.82,3.5,0.01,0,0.01,4,5,Valid,0,23,68,start,lin,0.12168753705726337,0,0.12168753705726337,1,True,,,,,,,,,,,,4,A,2023-08-28_14h39.19.932,exp3,2022.2.2,
high_opac_v,0.01,1,0.01,3,0.82,3.5,0.01,0,0.01,4,5,Valid,1,24,69,start,lin,0.06856007908919567,0.06856007908919567,0.06856007908919567,1,True,,,,,,,,,,,,4,A,2023-08-28_14h39.19.932,exp3,2022.2.2,
low_opac_v,0.4,1,0.01,3,0.82,3.5,0.01,0,0.01,4,5,Valid,0,24,70,start,lin,0.11765775385225369,0,0.11765775385225369,0,True,,,,,,,,,,,,4,A,2023-08-28_14h39.19.932,exp3,2022.2.2,
low_opac_i,0.4,1,0.01,3,0.82,3.5,0.01,0,0.01,4,5,Invalid,2,24,71,start,lin,1,0,1,0,True,,,,,,,,,,,,4,A,2023-08-28_14h39.19.932,exp3,2022.2.2,
low_opac_i,0.4,1,0.01,3,0.82,3.5,0.01,0,0.01,4,5,Invalid,2,25,72,start,lin,1,0,1,0,True,,,,,,,,,,,,4,A,2023-08-28_14h39.19.932,exp3,2022.2.2,
low_opac_v,0.4,1,0.01,3,0.82,3.5,0.01,0,0.01,4,5,Valid,0,25,73,start,lin,0.1328990452511727,0.1328990452511727,0.1328990452511727,0,True,,,,,,,,,,,,4,A,2023-08-28_14h39.19.932,exp3,2022.2.2,
high_opac_v,0.01,1,0.01,3,0.82,3.5,0.01,0,0.01,4,5,Valid,1,25,74,start,lin,0.06517332168740028,0.06517332168740028,0.06517332168740028,1,True,,,,,,,,,,,,4,A,2023-08-28_14h39.19.932,exp3,2022.2.2,
low_opac_i,0.4,1,0.01,3,0.82,3.5,0.01,0,0.01,4,5,Invalid,2,26,75,start,lin,1,1,1,1,True,,,,,,,,,,,,4,A,2023-08-28_14h39.19.932,exp3,2022.2.2,
low_opac_v,0.4,1,0.01,3,0.82,3.5,0.01,0,0.01,4,5,Valid,0,26,76,start,lin,0.14714446513605545,0.14714446513605545,0.14714446513605545,1,True,,,,,,,,,,,,4,A,2023-08-28_14h39.19.932,exp3,2022.2.2,
high_opac_v,0.01,1,0.01,3,0.82,3.5,0.01,0,0.01,4,5,Valid,1,26,77,start,lin,0.06202725869394027,0,0.06202725869394027,1,True,,,,,,,,,,,,4,A,2023-08-28_14h39.19.932,exp3,2022.2.2,
low_opac_v,0.4,1,0.01,3,0.82,3.5,0.01,0,0.01,4,5,Valid,0,27,78,start,lin,0.14370168683630563,0.14370168683630563,0.14370168683630563,0,True,,,,,,,,,,,,4,A,2023-08-28_14h39.19.932,exp3,2022.2.2,
high_opac_v,0.01,1,0.01,3,0.82,3.5,0.01,0,0.01,4,5,Valid,1,27,79,start,lin,0.058792096610311595,0,0.058792096610311595,0,True,,,,,,,,,,,,4,A,2023-08-28_14h39.19.932,exp3,2022.2.2,
low_opac_i,0.4,1,0.01,3,0.82,3.5,0.01,0,0.01,4,5,Invalid,2,27,80,start,lin,1,1,1,1,True,,,,,,,,,,,,4,A,2023-08-28_14h39.19.932,exp3,2022.2.2,
low_opac_v,0.4,1,0.01,3,0.82,3.5,0.01,0,0.01,4,5,Valid,0,28,81,start,lin,0.15691005004174344,0,0.15691005004174344,1,True,,,,,,,,,,,,4,A,2023-08-28_14h39.19.932,exp3,2022.2.2,
low_opac_i,0.4,1,0.01,3,0.82,3.5,0.01,0,0.01,4,5,Invalid,2,28,82,start,lin,1,1,1,0,True,,,,,,,,,,,,4,A,2023-08-28_14h39.19.932,exp3,2022.2.2,
high_opac_v,0.01,1,0.01,3,0.82,3.5,0.01,0,0.01,4,5,Valid,1,28,83,start,lin,0.07109201038190074,0.07109201038190074,0.07109201038190074,0,True,,,,,,,,,,,,4,A,2023-08-28_14h39.19.932,exp3,2022.2.2,
low_opac_i,0.4,1,0.01,3,0.82,3.5,0.01,0,0.01,4,5,Invalid,2,29,84,start,lin,1,0,1,0,True,,,,,,,,,,,,4,A,2023-08-28_14h39.19.932,exp3,2022.2.2,
low_opac_v,0.4,1,0.01,3,0.82,3.5,0.01,0,0.01,4,5,Valid,0,29,85,start,lin,0.15370858912452776,0.15370858912452776,0.15370858912452776,1,True,,,,,,,,,,,,4,A,2023-08-28_14h39.19.932,exp3,2022.2.2,
high_opac_v,0.01,1,0.01,3,0.82,3.5,0.01,0,0.01,4,5,Valid,1,29,86,start,lin,0.08284688886142144,0.08284688886142144,0.08284688886142144,0,True,,,,,,,,,,,,4,A,2023-08-28_14h39.19.932,exp3,2022.2.2,
low_opac_v,0.4,1,0.01,3,0.82,3.5,0.01,0,0.01,4,5,Valid,0,30,87,start,lin,0.1504397800303003,0,0.1504397800303003,0,True,,,,,,,,,,,,4,A,2023-08-28_14h39.19.932,exp3,2022.2.2,
low_opac_i,0.4,1,0.01,3,0.82,3.5,0.01,0,0.01,4,5,Invalid,2,30,88,start,lin,1,1,1,1,True,,,,,,,,,,,,4,A,2023-08-28_14h39.19.932,exp3,2022.2.2,
high_opac_v,0.01,1,0.01,3,0.82,3.5,0.01,0,0.01,4,5,Valid,1,30,89,start,lin,0.09419021535898055,0.09419021535898055,0.09419021535898055,0,True,,,,,,,,,,,,4,A,2023-08-28_14h39.19.932,exp3,2022.2.2,
low_opac_v,0.4,1,0.01,3,0.82,3.5,0.01,0,0.01,4,5,Valid,0,31,90,start,lin,0.16260890553211813,0.16260890553211813,0.16260890553211813,0,True,,,,,,,,,,,,4,A,2023-08-28_14h39.19.932,exp3,2022.2.2,
low_opac_i,0.4,1,0.01,3,0.82,3.5,0.01,0,0.01,4,5,Invalid,2,31,91,start,lin,1,1,1,1,True,,,,,,,,,,,,4,A,2023-08-28_14h39.19.932,exp3,2022.2.2,
high_opac_v,0.01,1,0.01,3,0.82,3.5,0.01,0,0.01,4,5,Valid,1,31,92,start,lin,0.10522431901291937,0,0.10522431901291937,1,True,,,,,,,,,,,,4,A,2023-08-28_14h39.19.932,exp3,2022.2.2,
low_opac_i,0.4,1,0.01,3,0.82,3.5,0.01,0,0.01,4,5,Invalid,2,32,93,start,lin,1,0,1,1,True,,,,,,,,,,,,4,A,2023-08-28_14h39.19.932,exp3,2022.2.2,
low_opac_v,0.4,1,0.01,3,0.82,3.5,0.01,0,0.01,4,5,Valid,0,32,94,start,lin,0.1743542144761394,0.1743542144761394,0.1743542144761394,1,True,,,,,,,,,,,,4,A,2023-08-28_14h39.19.932,exp3,2022.2.2,
high_opac_v,0.01,1,0.01,3,0.82,3.5,0.01,0,0.01,4,5,Valid,1,32,95,start,lin,0.10258374482514111,0,0.10258374482514111,1,True,,,,,,,,,,,,4,A,2023-08-28_14h39.19.932,exp3,2022.2.2,
low_opac_i,0.4,1,0.01,3,0.82,3.5,0.01,0,0.01,4,5,Invalid,2,33,96,start,lin,1,0,1,0,True,,,,,,,,,,,,4,A,2023-08-28_14h39.19.932,exp3,2022.2.2,
low_opac_v,0.4,1,0.01,3,0.82,3.5,0.01,0,0.01,4,5,Valid,0,33,97,start,lin,0.1713371289811631,0,0.1713371289811631,1,True,,,,,,,,,,,,4,A,2023-08-28_14h39.19.932,exp3,2022.2.2,
high_opac_v,0.01,1,0.01,3,0.82,3.5,0.01,0,0.01,4,5,Valid,1,33,98,start,lin,0.09983677137771332,0.09983677137771332,0.09983677137771332,0,True,,,,,,,,,,,,4,A,2023-08-28_14h39.19.932,exp3,2022.2.2,
low_opac_i,0.4,1,0.01,3,0.82,3.5,0.01,0,0.01,4,5,Invalid,2,34,99,start,lin,1,0,1,0,True,,,,,,,,,,,,4,A,2023-08-28_14h39.19.932,exp3,2022.2.2,
high_opac_v,0.01,1,0.01,3,0.82,3.5,0.01,0,0.01,4,5,Valid,1,34,100,start,lin,0.11024719884862948,0.11024719884862948,0.11024719884862948,0,True,,,,,,,,,,,,4,A,2023-08-28_14h39.19.932,exp3,2022.2.2,
low_opac_v,0.4,1,0.01,3,0.82,3.5,0.01,0,0.01,4,5,Valid,0,34,101,start,lin,0.16848174234749289,0.16848174234749289,0.16848174234749289,1,True,,,,,,,,,,,,4,A,2023-08-28_14h39.19.932,exp3,2022.2.2,
high_opac_v,0.01,1,0.01,3,0.82,3.5,0.01,0,0.01,4,5,Valid,1,35,102,start,lin,0.1204780190415216,0,0.1204780190415216,0,True,,,,,,,,,,,,4,A,2023-08-28_14h39.19.932,exp3,2022.2.2,
low_opac_i,0.4,1,0.01,3,0.82,3.5,0.01,0,0.01,4,5,Invalid,2,35,103,start,lin,1,0,1,0,True,,,,,,,,,,,,4,A,2023-08-28_14h39.19.932,exp3,2022.2.2,
low_opac_v,0.4,1,0.01,3,0.82,3.5,0.01,0,0.01,4,5,Valid,0,35,104,start,lin,0.16584638879316335,0.16584638879316335,0.16584638879316335,0,True,,,,,,,,,,,,4,A,2023-08-28_14h39.19.932,exp3,2022.2.2,
low_opac_i,0.4,1,0.01,3,0.82,3.5,0.01,0,0.01,4,5,Invalid,2,36,105,start,lin,1,0,1,0,True,,,,,,,,,,,,4,A,2023-08-28_14h39.19.932,exp3,2022.2.2,
low_opac_v,0.4,1,0.01,3,0.82,3.5,0.01,0,0.01,4,5,Valid,0,36,106,start,lin,0.17663463073845603,0.17663463073845603,0.17663463073845603,1,True,,,,,,,,,,,,4,A,2023-08-28_14h39.19.932,exp3,2022.2.2,
high_opac_v,0.01,1,0.01,3,0.82,3.5,0.01,0,0.01,4,5,Valid,1,36,107,start,lin,0.13056834759957883,0,0.13056834759957883,0,True,,,,,,,,,,,,4,A,2023-08-28_14h39.19.932,exp3,2022.2.2,
low_opac_i,0.4,1,0.01,3,0.82,3.5,0.01,0,0.01,4,5,Invalid,2,37,108,start,lin,1,1,1,1,True,,,,,,,,,,,,4,A,2023-08-28_14h39.19.932,exp3,2022.2.2,
low_opac_v,0.4,1,0.01,3,0.82,3.5,0.01,0,0.01,4,5,Valid,0,37,109,start,lin,0.1741879975036417,0.1741879975036417,0.1741879975036417,1,True,,,,,,,,,,,,4,A,2023-08-28_14h39.19.932,exp3,2022.2.2,
high_opac_v,0.01,1,0.01,3,0.82,3.5,0.01,0,0.01,4,5,Valid,1,37,110,start,lin,0.14054974619890115,0,0.14054974619890115,0,True,,,,,,,,,,,,4,A,2023-08-28_14h39.19.932,exp3,2022.2.2,
high_opac_v,0.01,1,0.01,3,0.82,3.5,0.01,0,0.01,4,5,Valid,1,38,111,start,lin,0.15044683037146267,0.15044683037146267,0.15044683037146267,1,True,,,,,,,,,,,,4,A,2023-08-28_14h39.19.932,exp3,2022.2.2,
low_opac_i,0.4,1,0.01,3,0.82,3.5,0.01,0,0.01,4,5,Invalid,2,38,112,start,lin,1,0,1,0,True,,,,,,,,,,,,4,A,2023-08-28_14h39.19.932,exp3,2022.2.2,
low_opac_v,0.4,1,0.01,3,0.82,3.5,0.01,0,0.01,4,5,Valid,0,38,113,start,lin,0.17165576468386057,0.17165576468386057,0.17165576468386057,1,True,,,,,,,,,,,,4,A,2023-08-28_14h39.19.932,exp3,2022.2.2,
low_opac_i,0.4,1,0.01,3,0.82,3.5,0.01,0,0.01,4,5,Invalid,2,39,114,start,lin,1,0,1,1,True,,,,,,,,,,,,4,A,2023-08-28_14h39.19.932,exp3,2022.2.2,
high_opac_v,0.01,1,0.01,3,0.82,3.5,0.01,0,0.01,4,5,Valid,1,39,115,start,lin,0.1479942236833138,0,0.1479942236833138,1,True,,,,,,,,,,,,4,A,2023-08-28_14h39.19.932,exp3,2022.2.2,
low_opac_v,0.4,1,0.01,3,0.82,3.5,0.01,0,0.01,4,5,Valid,0,39,116,start,lin,0.16921747231745188,0,0.16921747231745188,0,True,,,,,,,,,,,,4,A,2023-08-28_14h39.19.932,exp3,2022.2.2,
low_opac_v,0.4,1,0.01,3,0.82,3.5,0.01,0,0.01,4,5,Valid,0,40,117,start,lin,0.1785927744383458,0.1785927744383458,0.1785927744383458,1,True,,,,,,,,,,,,4,A,2023-08-28_14h39.19.932,exp3,2022.2.2,
high_opac_v,0.01,1,0.01,3,0.82,3.5,0.01,0,0.01,4,5,Valid,1,40,118,start,lin,0.14571538412335827,0.14571538412335827,0.14571538412335827,1,True,,,,,,,,,,,,4,A,2023-08-28_14h39.19.932,exp3,2022.2.2,
low_opac_i,0.4,1,0.01,3,0.82,3.5,0.01,0,0.01,4,5,Invalid,2,40,119,start,lin,1,1,1,1,True,,,,,,,,,,,,4,A,2023-08-28_14h39.19.932,exp3,2022.2.2,
low_opac_i,0.4,1,0.01,3,0.82,3.5,0.01,0,0.01,4,5,Invalid,2,41,120,start,lin,1,1,1,1,True,,,,,,,,,,,,4,A,2023-08-28_14h39.19.932,exp3,2022.2.2,
high_opac_v,0.01,1,0.01,3,0.82,3.5,0.01,0,0.01,4,5,Valid,1,41,121,start,lin,0.14356123840817095,0.14356123840817095,0.14356123840817095,0,True,,,,,,,,,,,,4,A,2023-08-28_14h39.19.932,exp3,2022.2.2,
low_opac_v,0.4,1,0.01,3,0.82,3.5,0.01,0,0.01,4,5,Valid,0,41,122,start,lin,0.17637611398235956,0.17637611398235956,0.17637611398235956,0,True,,,,,,,,,,,,4,A,2023-08-28_14h39.19.932,exp3,2022.2.2,
high_opac_v,0.01,1,0.01,3,0.82,3.5,0.01,0,0.01,4,5,Valid,1,42,123,start,lin,0.1522570715172252,0.1522570715172252,0.1522570715172252,0,True,,,,,,,,,,,,4,A,2023-08-28_14h39.19.932,exp3,2022.2.2,
low_opac_v,0.4,1,0.01,3,0.82,3.5,0.01,0,0.01,4,5,Valid,0,42,124,start,lin,0.18551467533424154,0.18551467533424154,0.18551467533424154,0,True,,,,,,,,,,,,4,A,2023-08-28_14h39.19.932,exp3,2022.2.2,
low_opac_i,0.4,1,0.01,3,0.82,3.5,0.01,0,0.01,4,5,Invalid,2,42,125,start,lin,1,0,1,1,True,,,,,,,,,,,,4,A,2023-08-28_14h39.19.932,exp3,2022.2.2,
low_opac_v,0.4,1,0.01,3,0.82,3.5,0.01,0,0.01,4,5,Valid,0,43,126,start,lin,0.1945764534657138,0,0.1945764534657138,1,True,,,,,,,,,,,,4,A,2023-08-28_14h39.19.932,exp3,2022.2.2,
low_opac_i,0.4,1,0.01,3,0.82,3.5,0.01,0,0.01,4,5,Invalid,2,43,127,start,lin,1,1,1,1,True,,,,,,,,,,,,4,A,2023-08-28_14h39.19.932,exp3,2022.2.2,
high_opac_v,0.01,1,0.01,3,0.82,3.5,0.01,0,0.01,4,5,Valid,1,43,128,start,lin,0.16093625923513927,0,0.16093625923513927,1,True,,,,,,,,,,,,4,A,2023-08-28_14h39.19.932,exp3,2022.2.2,
high_opac_v,0.01,1,0.01,3,0.82,3.5,0.01,0,0.01,4,5,Valid,1,44,129,start,lin,0.15874004752283016,0.15874004752283016,0.15874004752283016,0,True,,,,,,,,,,,,4,A,2023-08-28_14h39.19.932,exp3,2022.2.2,
low_opac_i,0.4,1,0.01,3,0.82,3.5,0.01,0,0.01,4,5,Invalid,2,44,130,start,lin,1,0,1,1,True,,,,,,,,,,,,4,A,2023-08-28_14h39.19.932,exp3,2022.2.2,
low_opac_v,0.4,1,0.01,3,0.82,3.5,0.01,0,0.01,4,5,Valid,0,44,131,start,lin,0.19238902358549212,0.19238902358549212,0.19238902358549212,0,True,,,,,,,,,,,,4,A,2023-08-28_14h39.19.932,exp3,2022.2.2,
low_opac_v,0.4,1,0.01,3,0.82,3.5,0.01,0,0.01,4,5,Valid,0,45,132,start,lin,0.20063282121815304,0.20063282121815304,0.20063282121815304,1,True,,,,,,,,,,,,4,A,2023-08-28_14h39.19.932,exp3,2022.2.2,
high_opac_v,0.01,1,0.01,3,0.82,3.5,0.01,0,0.01,4,5,Valid,1,45,133,start,lin,0.16730801401557177,0,0.16730801401557177,1,True,,,,,,,,,,,,4,A,2023-08-28_14h39.19.932,exp3,2022.2.2,
low_opac_i,0.4,1,0.01,3,0.82,3.5,0.01,0,0.01,4,5,Invalid,2,45,134,start,lin,1,0,1,1,True,,,,,,,,,,,,4,A,2023-08-28_14h39.19.932,exp3,2022.2.2,
high_opac_v,0.01,1,0.01,3,0.82,3.5,0.01,0,0.01,4,5,Valid,1,46,135,start,lin,0.16531528135373066,0.16531528135373066,0.16531528135373066,1,True,,,,,,,,,,,,4,A,2023-08-28_14h39.19.932,exp3,2022.2.2,
low_opac_v,0.4,1,0.01,3,0.82,3.5,0.01,0,0.01,4,5,Valid,0,46,136,start,lin,0.19855835590731963,0,0.19855835590731963,1,True,,,,,,,,,,,,4,A,2023-08-28_14h39.19.932,exp3,2022.2.2,
low_opac_i,0.4,1,0.01,3,0.82,3.5,0.01,0,0.01,4,5,Invalid,2,46,137,start,lin,1,1,1,1,True,,,,,,,,,,,,4,A,2023-08-28_14h39.19.932,exp3,2022.2.2,
low_opac_v,0.4,1,0.01,3,0.82,3.5,0.01,0,0.01,4,5,Valid,0,47,138,start,lin,0.19661712128673237,0.19661712128673237,0.19661712128673237,1,True,,,,,,,,,,,,4,A,2023-08-28_14h39.19.932,exp3,2022.2.2,
low_opac_i,0.4,1,0.01,3,0.82,3.5,0.01,0,0.01,4,5,Invalid,2,47,139,start,lin,1,1,1,1,True,,,,,,,,,,,,4,A,2023-08-28_14h39.19.932,exp3,2022.2.2,
high_opac_v,0.01,1,0.01,3,0.82,3.5,0.01,0,0.01,4,5,Valid,1,47,140,start,lin,0.1634158124974626,0.1634158124974626,0.1634158124974626,1,True,,,,,,,,,,,,4,A,2023-08-28_14h39.19.932,exp3,2022.2.2,
low_opac_i,0.4,1,0.01,3,0.82,3.5,0.01,0,0.01,4,5,Invalid,2,48,141,start,lin,1,1,1,1,True,,,,,,,,,,,,4,A,2023-08-28_14h39.19.932,exp3,2022.2.2,
low_opac_v,0.4,1,0.01,3,0.82,3.5,0.01,0,0.01,4,5,Valid,0,48,142,start,lin,0.194776347202986,0.194776347202986,0.194776347202986,1,True,,,,,,,,,,,,4,A,2023-08-28_14h39.19.932,exp3,2022.2.2,
high_opac_v,0.01,1,0.01,3,0.82,3.5,0.01,0,0.01,4,5,Valid,1,48,143,start,lin,0.1614168687107068,0,0.1614168687107068,1,True,,,,,,,,,,,,4,A,2023-08-28_14h39.19.932,exp3,2022.2.2,
low_opac_i,0.4,1,0.01,3,0.82,3.5,0.01,0,0.01,4,5,Invalid,2,49,144,start,lin,1,0,1,1,True,,,,,,,,,,,,4,A,2023-08-28_14h39.19.932,exp3,2022.2.2,
high_opac_v,0.01,1,0.01,3,0.82,3.5,0.01,0,0.01,4,5,Valid,1,49,145,start,lin,0.15946750110201344,0,0.15946750110201344,1,True,,,,,,,,,,,,4,A,2023-08-28_14h39.19.932,exp3,2022.2.2,
low_opac_v,0.4,1,0.01,3,0.82,3.5,0.01,0,0.01,4,5,Valid,0,49,146,start,lin,0.19285275815439204,0,0.19285275815439204,1,True,,,,,,,,,,,,4,A,2023-08-28_14h39.19.932,exp3,2022.2.2,
low_opac_v,0.4,1,0.01,3,0.82,3.5,0.01,0,0.01,4,5,Valid,0,50,147,start,lin,0.1909803558113754,0.1909803558113754,0.1909803558113754,1,True,,,,,,,,,,,,4,A,2023-08-28_14h39.19.932,exp3,2022.2.2,
high_opac_v,0.01,1,0.01,3,0.82,3.5,0.01,0,0.01,4,5,Valid,1,50,148,start,lin,0.15763049823940528,0,0.15763049823940528,0,True,,,,,,,,,,,,4,A,2023-08-28_14h39.19.932,exp3,2022.2.2,
low_opac_i,0.4,1,0.01,3,0.82,3.5,0.01,0,0.01,4,5,Invalid,2,50,149,start,lin,1,1,1,1,True,,,,,,,,,,,,4,A,2023-08-28_14h39.19.932,exp3,2022.2.2,
low_opac_v,0.4,1,0.01,3,0.82,3.5,0.01,0,0.01,4,5,Valid,0,51,150,start,lin,0.1891521140987743,0,0.1891521140987743,0,True,,,,,,,,,,,,4,A,2023-08-28_14h39.19.932,exp3,2022.2.2,
high_opac_v,0.01,1,0.01,3,0.82,3.5,0.01,0,0.01,4,5,Valid,1,51,151,start,lin,0.16511422105617587,0,0.16511422105617587,1,True,,,,,,,,,,,,4,A,2023-08-28_14h39.19.932,exp3,2022.2.2,
low_opac_i,0.4,1,0.01,3,0.82,3.5,0.01,0,0.01,4,5,Invalid,2,51,152,start,lin,1,1,1,1,True,,,,,,,,,,,,4,A,2023-08-28_14h39.19.932,exp3,2022.2.2,
low_opac_i,0.4,1,0.01,3,0.82,3.5,0.01,0,0.01,4,5,Invalid,2,52,153,start,lin,1,1,1,1,True,,,,,,,,,,,,4,A,2023-08-28_14h39.19.932,exp3,2022.2.2,
low_opac_v,0.4,1,0.01,3,0.82,3.5,0.01,0,0.01,4,5,Valid,0,52,154,start,lin,0.19629428756498,0,0.19629428756498,1,True,,,,,,,,,,,,4,A,2023-08-28_14h39.19.932,exp3,2022.2.2,
high_opac_v,0.01,1,0.01,3,0.82,3.5,0.01,0,0.01,4,5,Valid,1,52,155,start,lin,0.16343848778440018,0,0.16343848778440018,1,True,,,,,,,,,,,,4,A,2023-08-28_14h39.19.932,exp3,2022.2.2,
low_opac_i,0.4,1,0.01,3,0.82,3.5,0.01,0,0.01,4,5,Invalid,2,53,156,start,lin,1,0,1,1,True,,,,,,,,,,,,4,A,2023-08-28_14h39.19.932,exp3,2022.2.2,
low_opac_v,0.4,1,0.01,3,0.82,3.5,0.01,0,0.01,4,5,Valid,0,53,157,start,lin,0.194665214036597,0,0.194665214036597,0,True,,,,,,,,,,,,4,A,2023-08-28_14h39.19.932,exp3,2022.2.2,
high_opac_v,0.01,1,0.01,3,0.82,3.5,0.01,0,0.01,4,5,Valid,1,53,158,start,lin,0.16166532513409793,0.16166532513409793,0.16166532513409793,0,True,,,,,,,,,,,,4,A,2023-08-28_14h39.19.932,exp3,2022.2.2,
low_opac_v,0.4,1,0.01,3,0.82,3.5,0.01,0,0.01,4,5,Valid,0,54,159,start,lin,0.20129210194265632,0,0.20129210194265632,1,True,,,,,,,,,,,,4,A,2023-08-28_14h39.19.932,exp3,2022.2.2,
high_opac_v,0.01,1,0.01,3,0.82,3.5,0.01,0,0.01,4,5,Valid,1,54,160,start,lin,0.16843588716438734,0,0.16843588716438734,1,True,,,,,,,,,,,,4,A,2023-08-28_14h39.19.932,exp3,2022.2.2,
low_opac_i,0.4,1,0.01,3,0.82,3.5,0.01,0,0.01,4,5,Invalid,2,54,161,start,lin,1,0,1,1,True,,,,,,,,,,,,4,A,2023-08-28_14h39.19.932,exp3,2022.2.2,
low_opac_i,0.4,1,0.01,3,0.82,3.5,0.01,0,0.01,4,5,Invalid,2,55,162,start,lin,1,0,1,1,True,,,,,,,,,,,,4,A,2023-08-28_14h39.19.932,exp3,2022.2.2,
low_opac_v,0.4,1,0.01,3,0.82,3.5,0.01,0,0.01,4,5,Valid,0,55,163,start,lin,0.1995891966626464,0.1995891966626464,0.1995891966626464,0,True,,,,,,,,,,,,4,A,2023-08-28_14h39.19.932,exp3,2022.2.2,
high_opac_v,0.01,1,0.01,3,0.82,3.5,0.01,0,0.01,4,5,Valid,1,55,164,start,lin,0.1667988202675805,0.1667988202675805,0.1667988202675805,0,True,,,,,,,,,,,,4,A,2023-08-28_14h39.19.932,exp3,2022.2.2,
high_opac_v,0.01,1,0.01,3,0.82,3.5,0.01,0,0.01,4,5,Valid,1,56,165,start,lin,0.1736770934492744,0,0.1736770934492744,1,True,,,,,,,,,,,,4,A,2023-08-28_14h39.19.932,exp3,2022.2.2,
low_opac_i,0.4,1,0.01,3,0.82,3.5,0.01,0,0.01,4,5,Invalid,2,56,166,start,lin,1,0,1,1,True,,,,,,,,,,,,4,A,2023-08-28_14h39.19.932,exp3,2022.2.2,
low_opac_v,0.4,1,0.01,3,0.82,3.5,0.01,0,0.01,4,5,Valid,0,56,167,start,lin,0.2062079655047687,0,0.2062079655047687,1,True,,,,,,,,,,,,4,A,2023-08-28_14h39.19.932,exp3,2022.2.2,
high_opac_v,0.01,1,0.01,3,0.82,3.5,0.01,0,0.01,4,5,Valid,1,57,168,start,lin,0.1720245322708393,0.1720245322708393,0.1720245322708393,0,True,,,,,,,,,,,,4,A,2023-08-28_14h39.19.932,exp3,2022.2.2,
low_opac_i,0.4,1,0.01,3,0.82,3.5,0.01,0,0.01,4,5,Invalid,2,57,169,start,lin,1,1,1,1,True,,,,,,,,,,,,4,A,2023-08-28_14h39.19.932,exp3,2022.2.2,
low_opac_v,0.4,1,0.01,3,0.82,3.5,0.01,0,0.01,4,5,Valid,0,57,170,start,lin,0.20469470730657402,0.20469470730657402,0.20469470730657402,0,True,,,,,,,,,,,,4,A,2023-08-28_14h39.19.932,exp3,2022.2.2,
low_opac_v,0.4,1,0.01,3,0.82,3.5,0.01,0,0.01,4,5,Valid,0,58,171,start,lin,0.21087488478154676,0.21087488478154676,0.21087488478154676,0,True,,,,,,,,,,,,4,A,2023-08-28_14h39.19.932,exp3,2022.2.2,
low_opac_i,0.4,1,0.01,3,0.82,3.5,0.01,0,0.01,4,5,Invalid,2,58,172,start,lin,1,0,1,1,True,,,,,,,,,,,,4,A,2023-08-28_14h39.19.932,exp3,2022.2.2,
high_opac_v,0.01,1,0.01,3,0.82,3.5,0.01,0,0.01,4,5,Valid,1,58,173,start,lin,0.17833487647213392,0.17833487647213392,0.17833487647213392,1,True,,,,,,,,,,,,4,A,2023-08-28_14h39.19.932,exp3,2022.2.2,
high_opac_v,0.01,1,0.01,3,0.82,3.5,0.01,0,0.01,4,5,Valid,1,59,174,start,lin,0.17680522794839165,0,0.17680522794839165,1,True,,,,,,,,,,,,4,A,2023-08-28_14h39.19.932,exp3,2022.2.2,
low_opac_i,0.4,1,0.01,3,0.82,3.5,0.01,0,0.01,4,5,Invalid,2,59,175,start,lin,1,0,1,1,True,,,,,,,,,,,,4,A,2023-08-28_14h39.19.932,exp3,2022.2.2,
low_opac_v,0.4,1,0.01,3,0.82,3.5,0.01,0,0.01,4,5,Valid,0,59,176,start,lin,0.21710419932108868,0.21710419932108868,0.21710419932108868,1,True,,,,,,,,,,,,4,A,2023-08-28_14h39.19.932,exp3,2022.2.2,
low_opac_i,0.4,1,0.01,3,0.82,3.5,0.01,0,0.01,4,5,Invalid,2,60,177,start,lin,1,1,1,1,True,,,,,,,,,,,,4,A,2023-08-28_14h39.19.932,exp3,2022.2.2,
low_opac_v,0.4,1,0.01,3,0.82,3.5,0.01,0,0.01,4,5,Valid,0,60,178,start,lin,0.2156407103899986,0,0.2156407103899986,1,True,,,,,,,,,,,,4,A,2023-08-28_14h39.19.932,exp3,2022.2.2,
high_opac_v,0.01,1,0.01,3,0.82,3.5,0.01,0,0.01,4,5,Valid,1,60,179,start,lin,0.17534402136133712,0.17534402136133712,0.17534402136133712,0,True,,,,,,,,,,,,4,A,2023-08-28_14h39.19.932,exp3,2022.2.2,
low_opac_v,0.4,1,0.01,3,0.82,3.5,0.01,0,0.01,4,5,Valid,0,61,180,start,lin,0.21423142589030725,0.21423142589030725,0.21423142589030725,0,True,,,,,,,,,,,,4,A,2023-08-28_14h39.19.932,exp3,2022.2.2,
low_opac_i,0.4,1,0.01,3,0.82,3.5,0.01,0,0.01,4,5,Invalid,2,61,181,start,lin,1,1,1,1,True,,,,,,,,,,,,4,A,2023-08-28_14h39.19.932,exp3,2022.2.2,
high_opac_v,0.01,1,0.01,3,0.82,3.5,0.01,0,0.01,4,5,Valid,1,61,182,start,lin,0.1817196013606888,0,0.1817196013606888,1,True,,,,,,,,,,,,4,A,2023-08-28_14h39.19.932,exp3,2022.2.2,
high_opac_v,0.01,1,0.01,3,0.82,3.5,0.01,0,0.01,4,5,Valid,1,62,183,start,lin,0.1801885878433619,0.1801885878433619,0.1801885878433619,1,True,,,,,,,,,,,,4,A,2023-08-28_14h39.19.932,exp3,2022.2.2,
low_opac_i,0.4,1,0.01,3,0.82,3.5,0.01,0,0.01,4,5,Invalid,2,62,184,start,lin,1,0,1,1,True,,,,,,,,,,,,4,A,2023-08-28_14h39.19.932,exp3,2022.2.2,
low_opac_v,0.4,1,0.01,3,0.82,3.5,0.01,0,0.01,4,5,Valid,0,62,185,start,lin,0.22002581517307204,0.22002581517307204,0.22002581517307204,1,True,,,,,,,,,,,,4,A,2023-08-28_14h39.19.932,exp3,2022.2.2,
low_opac_v,0.4,1,0.01,3,0.82,3.5,0.01,0,0.01,4,5,Valid,0,63,186,start,lin,0.21855424794469197,0.21855424794469197,0.21855424794469197,1,True,,,,,,,,,,,,4,A,2023-08-28_14h39.19.932,exp3,2022.2.2,
low_opac_i,0.4,1,0.01,3,0.82,3.5,0.01,0,0.01,4,5,Invalid,2,63,187,start,lin,1,0,1,1,True,,,,,,,,,,,,4,A,2023-08-28_14h39.19.932,exp3,2022.2.2,
high_opac_v,0.01,1,0.01,3,0.82,3.5,0.01,0,0.01,4,5,Valid,1,63,188,start,lin,0.17870680430992916,0,0.17870680430992916,1,True,,,,,,,,,,,,4,A,2023-08-28_14h39.19.932,exp3,2022.2.2,
low_opac_i,0.4,1,0.01,3,0.82,3.5,0.01,0,0.01,4,5,Invalid,2,64,189,start,lin,1,0,1,1,True,,,,,,,,,,,,4,A,2023-08-28_14h39.19.932,exp3,2022.2.2,
low_opac_v,0.4,1,0.01,3,0.82,3.5,0.01,0,0.01,4,5,Valid,0,64,190,start,lin,0.2171594935893984,0.2171594935893984,0.2171594935893984,1,True,,,,,,,,,,,,4,A,2023-08-28_14h39.19.932,exp3,2022.2.2,
high_opac_v,0.01,1,0.01,3,0.82,3.5,0.01,0,0.01,4,5,Valid,1,64,191,start,lin,0.17730431796761764,0.17730431796761764,0.17730431796761764,1,True,,,,,,,,,,,,4,A,2023-08-28_14h39.19.932,exp3,2022.2.2,
low_opac_i,0.4,1,0.01,3,0.82,3.5,0.01,0,0.01,4,5,Invalid,2,65,192,start,lin,1,1,1,1,True,,,,,,,,,,,,4,A,2023-08-28_14h39.19.932,exp3,2022.2.2,
low_opac_v,0.4,1,0.01,3,0.82,3.5,0.01,0,0.01,4,5,Valid,0,65,193,start,lin,0.2158255391553065,0.2158255391553065,0.2158255391553065,0,True,,,,,,,,,,,,4,A,2023-08-28_14h39.19.932,exp3,2022.2.2,
high_opac_v,0.01,1,0.01,3,0.82,3.5,0.01,0,0.01,4,5,Valid,1,65,194,start,lin,0.1759642604801783,0.1759642604801783,0.1759642604801783,1,True,,,,,,,,,,,,4,A,2023-08-28_14h39.19.932,exp3,2022.2.2,
high_opac_v,0.01,1,0.01,3,0.82,3.5,0.01,0,0.01,4,5,Valid,1,66,195,start,lin,0.1746725614351723,0.1746725614351723,0.1746725614351723,1,True,,,,,,,,,,,,4,A,2023-08-28_14h39.19.932,exp3,2022.2.2,
low_opac_i,0.4,1,0.01,3,0.82,3.5,0.01,0,0.01,4,5,Invalid,2,66,196,start,lin,1,1,1,1,True,,,,,,,,,,,,4,A,2023-08-28_14h39.19.932,exp3,2022.2.2,
low_opac_v,0.4,1,0.01,3,0.82,3.5,0.01,0,0.01,4,5,Valid,0,66,197,start,lin,0.22164028957732618,0,0.22164028957732618,1,True,,,,,,,,,,,,4,A,2023-08-28_14h39.19.932,exp3,2022.2.2,
low_opac_v,0.4,1,0.01,3,0.82,3.5,0.01,0,0.01,4,5,Valid,0,67,198,start,lin,0.22024504658454921,0.22024504658454921,0.22024504658454921,1,True,,,,,,,,,,,,4,A,2023-08-28_14h39.19.932,exp3,2022.2.2,
low_opac_i,0.4,1,0.01,3,0.82,3.5,0.01,0,0.01,4,5,Invalid,2,67,199,start,lin,1,0,1,1,True,,,,,,,,,,,,4,A,2023-08-28_14h39.19.932,exp3,2022.2.2,
high_opac_v,0.01,1,0.01,3,0.82,3.5,0.01,0,0.01,4,5,Valid,1,67,200,start,lin,0.17330483382366552,0,0.17330483382366552,0,True,,,,,,,,,,,,4,A,2023-08-28_14h39.19.932,exp3,2022.2.2,
low_opac_v,0.4,1,0.01,3,0.82,3.5,0.01,0,0.01,4,5,Valid,0,68,201,start,lin,0.2188851264750364,0.2188851264750364,0.2188851264750364,1,True,,,,,,,,,,,,4,A,2023-08-28_14h39.19.932,exp3,2022.2.2,
low_opac_i,0.4,1,0.01,3,0.82,3.5,0.01,0,0.01,4,5,Invalid,2,68,202,start,lin,1,1,1,1,True,,,,,,,,,,,,4,A,2023-08-28_14h39.19.932,exp3,2022.2.2,
high_opac_v,0.01,1,0.01,3,0.82,3.5,0.01,0,0.01,4,5,Valid,1,68,203,start,lin,0.178517182366046,0,0.178517182366046,0,True,,,,,,,,,,,,4,A,2023-08-28_14h39.19.932,exp3,2022.2.2,
high_opac_v,0.01,1,0.01,3,0.82,3.5,0.01,0,0.01,4,5,Valid,1,69,204,start,lin,0.18398576559291682,0.18398576559291682,0.18398576559291682,1,True,,,,,,,,,,,,4,A,2023-08-28_14h39.19.932,exp3,2022.2.2,
low_opac_i,0.4,1,0.01,3,0.82,3.5,0.01,0,0.01,4,5,Invalid,2,69,205,start,lin,1,1,1,1,True,,,,,,,,,,,,4,A,2023-08-28_14h39.19.932,exp3,2022.2.2,
low_opac_v,0.4,1,0.01,3,0.82,3.5,0.01,0,0.01,4,5,Valid,0,69,206,start,lin,0.21759516465912046,0,0.21759516465912046,1,True,,,,,,,,,,,,4,A,2023-08-28_14h39.19.932,exp3,2022.2.2,
high_opac_v,0.01,1,0.01,3,0.82,3.5,0.01,0,0.01,4,5,Valid,1,70,207,start,lin,0.18267195817303641,0.18267195817303641,0.18267195817303641,1,True,,,,,,,,,,,,4,A,2023-08-28_14h39.19.932,exp3,2022.2.2,
low_opac_v,0.4,1,0.01,3,0.82,3.5,0.01,0,0.01,4,5,Valid,0,70,208,start,lin,0.21636137829656818,0,0.21636137829656818,0,True,,,,,,,,,,,,4,A,2023-08-28_14h39.19.932,exp3,2022.2.2,
low_opac_i,0.4,1,0.01,3,0.82,3.5,0.01,0,0.01,4,5,Invalid,2,70,209,start,lin,1,1,1,1,True,,,,,,,,,,,,4,A,2023-08-28_14h39.19.932,exp3,2022.2.2,
low_opac_v,0.4,1,0.01,3,0.82,3.5,0.01,0,0.01,4,5,Valid,0,71,210,start,lin,0.22171837237640443,0,0.22171837237640443,0,True,,,,,,,,,,,,4,A,2023-08-28_14h39.19.932,exp3,2022.2.2,
high_opac_v,0.01,1,0.01,3,0.82,3.5,0.01,0,0.01,4,5,Valid,1,71,211,start,lin,0.18137574029128078,0,0.18137574029128078,0,True,,,,,,,,,,,,4,A,2023-08-28_14h39.19.932,exp3,2022.2.2,
low_opac_i,0.4,1,0.01,3,0.82,3.5,0.01,0,0.01,4,5,Invalid,2,71,212,start,lin,1,0,1,1,True,,,,,,,,,,,,4,A,2023-08-28_14h39.19.932,exp3,2022.2.2,
low_opac_v,0.4,1,0.01,3,0.82,3.5,0.01,0,0.01,4,5,Valid,0,72,213,start,lin,0.22669735337249916,0,0.22669735337249916,1,True,,,,,,,,,,,,4,A,2023-08-28_14h39.19.932,exp3,2022.2.2,
low_opac_i,0.4,1,0.01,3,0.82,3.5,0.01,0,0.01,4,5,Invalid,2,72,214,start,lin,1,0,1,1,True,,,,,,,,,,,,4,A,2023-08-28_14h39.19.932,exp3,2022.2.2,
high_opac_v,0.01,1,0.01,3,0.82,3.5,0.01,0,0.01,4,5,Valid,1,72,215,start,lin,0.1863851923764137,0.1863851923764137,0.1863851923764137,1,True,,,,,,,,,,,,4,A,2023-08-28_14h39.19.932,exp3,2022.2.2,
low_opac_v,0.4,1,0.01,3,0.82,3.5,0.01,0,0.01,4,5,Valid,0,73,216,start,lin,0.2255262450663278,0,0.2255262450663278,1,True,,,,,,,,,,,,4,A,2023-08-28_14h39.19.932,exp3,2022.2.2,
low_opac_i,0.4,1,0.01,3,0.82,3.5,0.01,0,0.01,4,5,Invalid,2,73,217,start,lin,1,1,1,1,True,,,,,,,,,,,,4,A,2023-08-28_14h39.19.932,exp3,2022.2.2,
high_opac_v,0.01,1,0.01,3,0.82,3.5,0.01,0,0.01,4,5,Valid,1,73,218,start,lin,0.1852167249438905,0.1852167249438905,0.1852167249438905,1,True,,,,,,,,,,,,4,A,2023-08-28_14h39.19.932,exp3,2022.2.2,
high_opac_v,0.01,1,0.01,3,0.82,3.5,0.01,0,0.01,4,5,Valid,1,74,219,start,lin,0.1840814596535067,0.1840814596535067,0.1840814596535067,1,True,,,,,,,,,,,,4,A,2023-08-28_14h39.19.932,exp3,2022.2.2,
low_opac_v,0.4,1,0.01,3,0.82,3.5,0.01,0,0.01,4,5,Valid,0,74,220,start,lin,0.2243904807955685,0,0.2243904807955685,1,True,,,,,,,,,,,,4,A,2023-08-28_14h39.19.932,exp3,2022.2.2,
low_opac_i,0.4,1,0.01,3,0.82,3.5,0.01,0,0.01,4,5,Invalid,2,74,221,start,lin,1,0,1,1,True,,,,,,,,,,,,4,A,2023-08-28_14h39.19.932,exp3,2022.2.2,
low_opac_i,0.4,1,0.01,3,0.82,3.5,0.01,0,0.01,4,5,Invalid,2,75,222,start,lin,1,1,1,1,True,,,,,,,,,,,,4,A,2023-08-28_14h39.19.932,exp3,2022.2.2,
high_opac_v,0.01,1,0.01,3,0.82,3.5,0.01,0,0.01,4,5,Valid,1,75,223,start,lin,0.1828701002234992,0.1828701002234992,0.1828701002234992,0,True,,,,,,,,,,,,4,A,2023-08-28_14h39.19.932,exp3,2022.2.2,
low_opac_v,0.4,1,0.01,3,0.82,3.5,0.01,0,0.01,4,5,Valid,0,75,224,start,lin,0.22318120220082047,0.22318120220082047,0.22318120220082047,0,True,,,,,,,,,,,,4,A,2023-08-28_14h39.19.932,exp3,2022.2.2,
,,,,,,,,,,,,,,,,,,,,,,,0,1158,Valid,signal,0,2,913.4054594999179,0,4.0,11.556657699984498,True,4,A,2023-08-28_14h39.19.932,exp3,2022.2.2,
,,,,,,,,,,,,,,,,,,,,,,,0,1716,Valid,signal,0,2,923.0701024999144,0,2.0,6.081345000071451,True,4,A,2023-08-28_14h39.19.932,exp3,2022.2.2,
,,,,,,,,,,,,,,,,,,,,,,,0,-557,Invalid,signal,0,1,930.1409545999486,1,4.0,4.513051899964921,True,4,A,2023-08-28_14h39.19.932,exp3,2022.2.2,
,,,,,,,,,,,,,,,,,,,,,,,0,557,Valid,signal,0,1,934.4295741999522,1,4.0,2.7965911000501364,True,4,A,2023-08-28_14h39.19.932,exp3,2022.2.2,
,,,,,,,,,,,,,,,,,,,,,,,0,2274,Valid,noise,0,2,940.6049679999705,1,1.0,7.881057399907149,True,4,A,2023-08-28_14h39.19.932,exp3,2022.2.2,
,,,,,,,,,,,,,,,,,,,,,,,0,-1158,Valid,noise,0,2,948.6219135000138,1,3.0,4.580080299987458,True,4,A,2023-08-28_14h39.19.932,exp3,2022.2.2,
,,,,,,,,,,,,,,,,,,,,,,,0,-1158,Valid,signal,0,2,954.7655200000154,0,2.0,5.280697499983944,True,4,A,2023-08-28_14h39.19.932,exp3,2022.2.2,
,,,,,,,,,,,,,,,,,,,,,,,0,1158,Valid,signal,0,2,959.3252224000171,0,3.0,3.646087499917485,True,4,A,2023-08-28_14h39.19.932,exp3,2022.2.2,
,,,,,,,,,,,,,,,,,,,,,,,0,1716,Valid,signal,0,2,964.2854167999467,0,3.0,4.012823999975808,True,4,A,2023-08-28_14h39.19.932,exp3,2022.2.2,
,,,,,,,,,,,,,,,,,,,,,,,0,1716,Valid,signal,0,2,968.814130899962,0,3.0,3.4969583000056446,True,4,A,2023-08-28_14h39.19.932,exp3,2022.2.2,
,,,,,,,,,,,,,,,,,,,,,,,0,-557,Valid,signal,0,1,973.9177249999484,1,4.0,3.4956061999546364,True,4,A,2023-08-28_14h39.19.932,exp3,2022.2.2,
,,,,,,,,,,,,,,,,,,,,,,,0,-1716,Valid,noise,0,2,978.0133839999326,1,2.0,3.8633241000352427,True,4,A,2023-08-28_14h39.19.932,exp3,2022.2.2,
,,,,,,,,,,,,,,,,,,,,,,,0,-1158,Valid,noise,0,2,983.0696891000262,1,3.0,3.46328889997676,True,4,A,2023-08-28_14h39.19.932,exp3,2022.2.2,
,,,,,,,,,,,,,,,,,,,,,,,0,-557,Valid,noise,0,2,987.102114600013,1,4.0,3.096649599960074,True,4,A,2023-08-28_14h39.19.932,exp3,2022.2.2,
,,,,,,,,,,,,,,,,,,,,,,,0,-1716,Invalid,signal,0,1,995.2296004999662,1,1.0,7.898362800013274,True,4,A,2023-08-28_14h39.19.932,exp3,2022.2.2,
,,,,,,,,,,,,,,,,,,,,,,,0,-2274,Valid,signal,0,2,1000.7017330999952,0,2.0,3.8301654999377206,True,4,A,2023-08-28_14h39.19.932,exp3,2022.2.2,
,,,,,,,,,,,,,,,,,,,,,,,0,-557,Valid,noise,0,2,1005.5972724999301,1,4.0,4.49647739995271,True,4,A,2023-08-28_14h39.19.932,exp3,2022.2.2,
,,,,,,,,,,,,,,,,,,,,,,,0,-2274,Valid,signal,0,2,1011.1650182999438,0,2.0,3.8461864000419155,True,4,A,2023-08-28_14h39.19.932,exp3,2022.2.2,
,,,,,,,,,,,,,,,,,,,,,,,0,1716,Valid,noise,0,2,1015.75816019997,1,4.0,3.046846600016579,True,4,A,2023-08-28_14h39.19.932,exp3,2022.2.2,
,,,,,,,,,,,,,,,,,,,,,,,0,-2274,Valid,signal,0,2,1019.4049002999673,0,4.0,2.9793734999839216,True,4,A,2023-08-28_14h39.19.932,exp3,2022.2.2,
,,,,,,,,,,,,,,,,,,,,,,,0,557,Valid,noise,0,2,1025.5818068999797,1,4.0,6.3636753000319,True,4,A,2023-08-28_14h39.19.932,exp3,2022.2.2,
,,,,,,,,,,,,,,,,,,,,,,,0,-1158,Invalid,noise,0,2,1030.92515679996,1,4.0,3.0628640999784693,True,4,A,2023-08-28_14h39.19.932,exp3,2022.2.2,
,,,,,,,,,,,,,,,,,,,,,,,0,1716,Valid,signal,0,2,1034.6854261999251,0,3.0,2.8632903000107035,True,4,A,2023-08-28_14h39.19.932,exp3,2022.2.2,
,,,,,,,,,,,,,,,,,,,,,,,0,-1158,Valid,signal,0,1,1038.5890768999234,1,4.0,3.1464404999278486,True,4,A,2023-08-28_14h39.19.932,exp3,2022.2.2,
,,,,,,,,,,,,,,,,,,,,,,,0,-1158,Valid,noise,0,2,1042.732865100028,1,2.0,3.1120794999878854,True,4,A,2023-08-28_14h39.19.932,exp3,2022.2.2,
,,,,,,,,,,,,,,,,,,,,,,,0,1158,Valid,noise,0,2,1046.9738150999183,1,3.0,2.763035799958743,True,4,A,2023-08-28_14h39.19.932,exp3,2022.2.2,
,,,,,,,,,,,,,,,,,,,,,,,0,2274,Valid,signal,0,2,1050.9420686999802,0,3.0,4.380546999978833,True,4,A,2023-08-28_14h39.19.932,exp3,2022.2.2,
,,,,,,,,,,,,,,,,,,,,,,,0,1158,Invalid,noise,0,1,1062.0453799000243,0,2.0,9.948656599968672,True,4,A,2023-08-28_14h39.19.932,exp3,2022.2.2,
,,,,,,,,,,,,,,,,,,,,,,,0,-2274,Invalid,signal,0,2,1067.8371882999782,0,2.0,3.896278699976392,True,4,A,2023-08-28_14h39.19.932,exp3,2022.2.2,
,,,,,,,,,,,,,,,,,,,,,,,0,557,Valid,signal,0,1,1071.838082299917,1,4.0,2.44604770001024,True,4,A,2023-08-28_14h39.19.932,exp3,2022.2.2,
,,,,,,,,,,,,,,,,,,,,,,,0,-557,Valid,noise,0,2,1075.2293919000076,1,4.0,2.5464300999883562,True,4,A,2023-08-28_14h39.19.932,exp3,2022.2.2,
,,,,,,,,,,,,,,,,,,,,,,,0,1158,Valid,noise,0,2,1078.7015503000002,1,4.0,2.1460185000905767,True,4,A,2023-08-28_14h39.19.932,exp3,2022.2.2,
,,,,,,,,,,,,,,,,,,,,,,,0,1716,Invalid,signal,0,2,1082.8772616999922,0,2.0,3.5627201000461355,True,4,A,2023-08-28_14h39.19.932,exp3,2022.2.2,
,,,,,,,,,,,,,,,,,,,,,,,0,1158,Valid,signal,0,2,1089.0698437999235,0,4.0,5.013669299893081,True,4,A,2023-08-28_14h39.19.932,exp3,2022.2.2,
,,,,,,,,,,,,,,,,,,,,,,,0,557,Invalid,signal,0,2,1099.1821756999707,0,3.0,9.399130500038154,True,4,A,2023-08-28_14h39.19.932,exp3,2022.2.2,
,,,,,,,,,,,,,,,,,,,,,,,0,2274,Valid,noise,0,2,1103.5813758999575,1,4.0,3.2460104000056162,True,4,A,2023-08-28_14h39.19.932,exp3,2022.2.2,
,,,,,,,,,,,,,,,,,,,,,,,0,557,Valid,noise,0,2,1107.2136003000196,1,4.0,2.3132266000611708,True,4,A,2023-08-28_14h39.19.932,exp3,2022.2.2,
,,,,,,,,,,,,,,,,,,,,,,,0,1158,Invalid,signal,0,2,1113.4208978000097,0,2.0,5.61344690003898,True,4,A,2023-08-28_14h39.19.932,exp3,2022.2.2,
,,,,,,,,,,,,,,,,,,,,,,,0,1716,Invalid,noise,0,2,1117.741947399918,1,4.0,6.581059799995273,True,4,A,2023-08-28_14h39.19.932,exp3,2022.2.2,
,,,,,,,,,,,,,,,,,,,,,,,0,-1716,Valid,signal,0,2,1126.316900899983,0,1.0,4.980388200026937,True,4,A,2023-08-28_14h39.19.932,exp3,2022.2.2,
,,,,,,,,,,,,,,,,,,,,,,,0,557,Valid,signal,0,1,1131.0534270999487,1,4.0,2.6297984999837354,True,4,A,2023-08-28_14h39.19.932,exp3,2022.2.2,
,,,,,,,,,,,,,,,,,,,,,,,0,-2274,Invalid,signal,0,1,1136.3502045000205,1,1.0,4.746823800029233,True,4,A,2023-08-28_14h39.19.932,exp3,2022.2.2,
,,,,,,,,,,,,,,,,,,,,,,,0,1158,Valid,noise,0,2,1140.4458790000062,1,3.0,5.596941400086507,True,4,A,2023-08-28_14h39.19.932,exp3,2022.2.2,
,,,,,,,,,,,,,,,,,,,,,,,0,-557,Valid,noise,0,2,1147.310214899946,1,4.0,3.096759599982761,True,4,A,2023-08-28_14h39.19.932,exp3,2022.2.2,
,,,,,,,,,,,,,,,,,,,,,,,0,-1716,Valid,noise,0,2,1151.2293880999787,1,4.0,2.995579699985683,True,4,A,2023-08-28_14h39.19.932,exp3,2022.2.2,
,,,,,,,,,,,,,,,,,,,,,,,0,-1158,Valid,noise,0,2,1154.9254936999641,1,4.0,2.6628418000182137,True,4,A,2023-08-28_14h39.19.932,exp3,2022.2.2,
,,,,,,,,,,,,,,,,,,,,,,,0,557,Valid,signal,0,1,1158.573597599985,1,4.0,2.4965189999202266,True,4,A,2023-08-28_14h39.19.932,exp3,2022.2.2,
,,,,,,,,,,,,,,,,,,,,,,,0,-1716,Valid,noise,0,2,1162.0449801000068,1,3.0,2.5963575000641868,True,4,A,2023-08-28_14h39.19.932,exp3,2022.2.2,
,,,,,,,,,,,,,,,,,,,,,,,0,1716,Valid,signal,0,2,1165.5172561999643,0,4.0,2.6793161999667063,True,4,A,2023-08-28_14h39.19.932,exp3,2022.2.2,
,,,,,,,,,,,,,,,,,,,,,,,0,1158,Invalid,signal,0,2,1173.8376040000003,0,1.0,7.347099000005983,True,4,A,2023-08-28_14h39.19.932,exp3,2022.2.2,
,,,,,,,,,,,,,,,,,,,,,,,0,-2274,Valid,signal,0,2,1178.0299325999804,0,3.0,3.046998900012113,True,4,A,2023-08-28_14h39.19.932,exp3,2022.2.2,
,,,,,,,,,,,,,,,,,,,,,,,0,-2274,Valid,noise,0,2,1181.9654310999904,1,4.0,3.495844699908048,True,4,A,2023-08-28_14h39.19.932,exp3,2022.2.2,
,,,,,,,,,,,,,,,,,,,,,,,0,2274,Valid,signal,0,2,1186.9895562999882,0,4.0,3.7470000999746844,True,4,A,2023-08-28_14h39.19.932,exp3,2022.2.2,
,,,,,,,,,,,,,,,,,,,,,,,0,-1158,Valid,signal,0,1,1190.9895180999301,1,4.0,2.512390400050208,True,4,A,2023-08-28_14h39.19.932,exp3,2022.2.2,
,,,,,,,,,,,,,,,,,,,,,,,0,-1716,Invalid,signal,0,2,1195.3732871999964,0,2.0,3.7802195999538526,True,4,A,2023-08-28_14h39.19.932,exp3,2022.2.2,
,,,,,,,,,,,,,,,,,,,,,,,0,-1716,Valid,noise,0,2,1199.67809089995,1,3.0,3.263161399983801,True,4,A,2023-08-28_14h39.19.932,exp3,2022.2.2,
,,,,,,,,,,,,,,,,,,,,,,,0,557,Valid,noise,0,2,1203.3897569000255,1,4.0,2.3624487000051886,True,4,A,2023-08-28_14h39.19.932,exp3,2022.2.2,
,,,,,,,,,,,,,,,,,,,,,,,0,-557,Invalid,signal,0,1,1207.085891499999,1,4.0,2.662836499977857,True,4,A,2023-08-28_14h39.19.932,exp3,2022.2.2,
,,,,,,,,,,,,,,,,,,,,,,,0,-557,Valid,signal,0,2,1211.1022461999673,0,1.0,7.0804071999154985,True,4,A,2023-08-28_14h39.19.932,exp3,2022.2.2,
,,,,,,,,,,,,,,,,,,,,,,,0,557,Valid,signal,0,1,1222.9091592999175,1,3.0,7.4484440999804065,True,4,A,2023-08-28_14h39.19.932,exp3,2022.2.2,
,,,,,,,,,,,,,,,,,,,,,,,0,-2274,Valid,signal,0,2,1228.6375891999342,0,1.0,5.396985700004734,True,4,A,2023-08-28_14h39.19.932,exp3,2022.2.2,
,,,,,,,,,,,,,,,,,,,,,,,0,-1158,Valid,signal,0,1,1233.517784500029,1,4.0,2.995920900022611,True,4,A,2023-08-28_14h39.19.932,exp3,2022.2.2,
,,,,,,,,,,,,,,,,,,,,,,,0,2274,Invalid,signal,0,1,1237.9651805999456,1,4.0,2.7795751999365166,True,4,A,2023-08-28_14h39.19.932,exp3,2022.2.2,
,,,,,,,,,,,,,,,,,,,,,,,0,2274,Valid,signal,0,2,1241.4696531000081,0,3.0,2.6130405999720097,True,4,A,2023-08-28_14h39.19.932,exp3,2022.2.2,
,,,,,,,,,,,,,,,,,,,,,,,0,-557,Valid,signal,0,1,1245.1969196000136,1,4.0,3.1128925000084564,True,4,A,2023-08-28_14h39.19.932,exp3,2022.2.2,
,,,,,,,,,,,,,,,,,,,,,,,0,1716,Valid,noise,0,2,1249.340843199985,1,4.0,2.963240799959749,True,4,A,2023-08-28_14h39.19.932,exp3,2022.2.2,
,,,,,,,,,,,,,,,,,,,,,,,0,1716,Valid,signal,0,2,1252.9096211999422,0,3.0,2.7788661000085995,True,4,A,2023-08-28_14h39.19.932,exp3,2022.2.2,
,,,,,,,,,,,,,,,,,,,,,,,0,-2274,Invalid,noise,0,2,1257.2300405999413,1,3.0,2.8631125999381766,True,4,A,2023-08-28_14h39.19.932,exp3,2022.2.2,
,,,,,,,,,,,,,,,,,,,,,,,0,-2274,Valid,noise,0,1,1261.7576547999633,0,2.0,3.5967444999841973,True,4,A,2023-08-28_14h39.19.932,exp3,2022.2.2,
,,,,,,,,,,,,,,,,,,,,,,,0,-1158,Valid,noise,0,1,1265.7417415999807,0,3.0,3.529465099913068,True,4,A,2023-08-28_14h39.19.932,exp3,2022.2.2,
,,,,,,,,,,,,,,,,,,,,,,,0,-1158,Valid,signal,0,1,1271.4697866999777,1,3.0,6.147206999943592,True,4,A,2023-08-28_14h39.19.932,exp3,2022.2.2,
,,,,,,,,,,,,,,,,,,,,,,,0,1158,Valid,noise,0,2,1277.757233500015,1,3.0,4.129662199993618,True,4,A,2023-08-28_14h39.19.932,exp3,2022.2.2,
,,,,,,,,,,,,,,,,,,,,,,,0,1158,Valid,noise,0,2,1282.140890199924,1,3.0,2.679653299972415,True,4,A,2023-08-28_14h39.19.932,exp3,2022.2.2,
,,,,,,,,,,,,,,,,,,,,,,,0,557,Valid,noise,0,1,1285.9487886999268,0,2.0,2.9294949000468478,True,4,A,2023-08-28_14h39.19.932,exp3,2022.2.2,
,,,,,,,,,,,,,,,,,,,,,,,0,-557,Valid,noise,0,2,1289.9817095999606,1,4.0,3.3297443999908864,True,4,A,2023-08-28_14h39.19.932,exp3,2022.2.2,
,,,,,,,,,,,,,,,,,,,,,,,0,1716,Valid,noise,0,2,1295.8688022999559,1,4.0,4.396979599958286,True,4,A,2023-08-28_14h39.19.932,exp3,2022.2.2,
,,,,,,,,,,,,,,,,,,,,,,,0,-1158,Valid,signal,0,1,1299.5652490999782,1,2.0,2.646039200015366,True,4,A,2023-08-28_14h39.19.932,exp3,2022.2.2,
,,,,,,,,,,,,,,,,,,,,,,,0,-1158,Invalid,signal,0,1,1303.293739899993,1,4.0,2.8463056999025866,True,4,A,2023-08-28_14h39.19.932,exp3,2022.2.2,
,,,,,,,,,,,,,,,,,,,,,,,0,2274,Valid,noise,0,2,1307.2130683999276,1,3.0,3.0963264000602067,True,4,A,2023-08-28_14h39.19.932,exp3,2022.2.2,
,,,,,,,,,,,,,,,,,,,,,,,0,-557,Valid,noise,0,2,1311.14963479992,1,2.0,2.646158799994737,True,4,A,2023-08-28_14h39.19.932,exp3,2022.2.2,
,,,,,,,,,,,,,,,,,,,,,,,0,2274,Valid,signal,0,2,1314.765717000002,0,3.0,2.6794566999888048,True,4,A,2023-08-28_14h39.19.932,exp3,2022.2.2,
,,,,,,,,,,,,,,,,,,,,,,,0,-1158,Valid,noise,0,2,1318.4451435999945,1,3.0,2.6128172000171617,True,4,A,2023-08-28_14h39.19.932,exp3,2022.2.2,
,,,,,,,,,,,,,,,,,,,,,,,0,-1716,Valid,signal,0,1,1321.9815376999322,1,4.0,3.1963890000479296,True,4,A,2023-08-28_14h39.19.932,exp3,2022.2.2,
,,,,,,,,,,,,,,,,,,,,,,,0,-1158,Valid,signal,0,1,1326.6210554999998,1,4.0,2.896080099977553,True,4,A,2023-08-28_14h39.19.932,exp3,2022.2.2,
,,,,,,,,,,,,,,,,,,,,,,,0,1716,Valid,noise,0,2,1330.0294647000264,1,4.0,2.8135268000187352,True,4,A,2023-08-28_14h39.19.932,exp3,2022.2.2,
,,,,,,,,,,,,,,,,,,,,,,,0,2274,Valid,noise,0,2,1334.2210658999393,1,4.0,2.779184599989094,True,4,A,2023-08-28_14h39.19.932,exp3,2022.2.2,
,,,,,,,,,,,,,,,,,,,,,,,0,1158,Valid,signal,0,1,1337.6616556999506,1,4.0,2.1954702000366524,True,4,A,2023-08-28_14h39.19.932,exp3,2022.2.2,
,,,,,,,,,,,,,,,,,,,,,,,0,-2274,Valid,noise,0,1,1342.6208676999668,0,4.0,4.180269800010137,True,4,A,2023-08-28_14h39.19.932,exp3,2022.2.2,
,,,,,,,,,,,,,,,,,,,,,,,0,-1716,Invalid,noise,0,2,1346.5897639999166,1,2.0,3.5298266999889165,True,4,A,2023-08-28_14h39.19.932,exp3,2022.2.2,
,,,,,,,,,,,,,,,,,,,,,,,0,557,Invalid,noise,0,2,1351.8539963000221,1,1.0,4.397080600028858,True,4,A,2023-08-28_14h39.19.932,exp3,2022.2.2,
,,,,,,,,,,,,,,,,,,,,,,,0,-557,Valid,signal,0,1,1356.3501781999366,1,3.0,2.846682299976237,True,4,A,2023-08-28_14h39.19.932,exp3,2022.2.2,
,,,,,,,,,,,,,,,,,,,,,,,0,-1716,Valid,signal,0,1,1360.2052486999892,1,3.0,3.0628359999973327,True,4,A,2023-08-28_14h39.19.932,exp3,2022.2.2,
,,,,,,,,,,,,,,,,,,,,,,,0,1158,Valid,signal,0,1,1363.9341214000015,1,3.0,2.3624265999533236,True,4,A,2023-08-28_14h39.19.932,exp3,2022.2.2,
,,,,,,,,,,,,,,,,,,,,,,,0,-557,Valid,noise,0,2,1367.3418647999642,1,4.0,4.0629555999767035,True,4,A,2023-08-28_14h39.19.932,exp3,2022.2.2,
,,,,,,,,,,,,,,,,,,,,,,,0,557,Valid,noise,0,1,1374.3647550999885,0,4.0,4.730374199920334,True,4,A,2023-08-28_14h39.19.932,exp3,2022.2.2,
,,,,,,,,,,,,,,,,,,,,,,,0,1158,Valid,noise,0,2,1378.6851938000182,1,4.0,2.9791502999141812,True,4,A,2023-08-28_14h39.19.932,exp3,2022.2.2,
,,,,,,,,,,,,,,,,,,,,,,,0,2274,Valid,signal,0,2,1382.9416838999605,0,4.0,3.346694300067611,True,4,A,2023-08-28_14h39.19.932,exp3,2022.2.2,
,,,,,,,,,,,,,,,,,,,,,,,0,-1716,Valid,noise,0,2,1386.4774812000105,1,3.0,2.7625236000167206,True,4,A,2023-08-28_14h39.19.932,exp3,2022.2.2,
,,,,,,,,,,,,,,,,,,,,,,,0,557,Invalid,noise,0,2,1391.1815569999162,1,2.0,3.947143299970776,True,4,A,2023-08-28_14h39.19.932,exp3,2022.2.2,
,,,,,,,,,,,,,,,,,,,,,,,0,-1716,Valid,signal,0,1,1395.5490888999775,1,2.0,2.879263299982995,True,4,A,2023-08-28_14h39.19.932,exp3,2022.2.2,
,,,,,,,,,,,,,,,,,,,,,,,0,1716,Valid,signal,0,1,1399.261268000002,1,2.0,2.6127856000093743,True,4,A,2023-08-28_14h39.19.932,exp3,2022.2.2,
,,,,,,,,,,,,,,,,,,,,,,,0,1716,Valid,noise,0,2,1402.9417089999188,1,4.0,3.0471498999977484,True,4,A,2023-08-28_14h39.19.932,exp3,2022.2.2,
,,,,,,,,,,,,,,,,,,,,,,,0,1716,Valid,signal,0,2,1407.053044799948,0,4.0,2.74550590000581,True,4,A,2023-08-28_14h39.19.932,exp3,2022.2.2,
,,,,,,,,,,,,,,,,,,,,,,,0,2274,Invalid,noise,0,1,1411.789325300022,0,1.0,4.313549899961799,True,4,A,2023-08-28_14h39.19.932,exp3,2022.2.2,
,,,,,,,,,,,,,,,,,,,,,,,0,2274,Valid,signal,0,2,1420.8298106000293,0,4.0,7.797963200020604,True,4,A,2023-08-28_14h39.19.932,exp3,2022.2.2,
,,,,,,,,,,,,,,,,,,,,,,,0,1158,Valid,signal,0,1,1424.685096799978,1,4.0,2.9629195999586955,True,4,A,2023-08-28_14h39.19.932,exp3,2022.2.2,
,,,,,,,,,,,,,,,,,,,,,,,0,-557,Valid,signal,0,1,1428.52532409993,1,4.0,2.9126137000275776,True,4,A,2023-08-28_14h39.19.932,exp3,2022.2.2,
,,,,,,,,,,,,,,,,,,,,,,,0,-1158,Valid,noise,0,1,1433.4700097999303,0,4.0,3.6964848999632522,True,4,A,2023-08-28_14h39.19.932,exp3,2022.2.2,
,,,,,,,,,,,,,,,,,,,,,,,0,-1158,Valid,noise,0,1,1437.9495751999784,0,1.0,3.1631845999509096,True,4,A,2023-08-28_14h39.19.932,exp3,2022.2.2,
,,,,,,,,,,,,,,,,,,,,,,,0,1716,Valid,noise,0,2,1441.5496528999647,1,4.0,2.880208699963987,True,4,A,2023-08-28_14h39.19.932,exp3,2022.2.2,
,,,,,,,,,,,,,,,,,,,,,,,0,2274,Valid,noise,0,2,1445.3416315999348,1,4.0,2.5784855999518186,True,4,A,2023-08-28_14h39.19.932,exp3,2022.2.2,
,,,,,,,,,,,,,,,,,,,,,,,0,-1158,Valid,signal,0,1,1448.893469200004,1,4.0,2.629869000054896,True,4,A,2023-08-28_14h39.19.932,exp3,2022.2.2,
,,,,,,,,,,,,,,,,,,,,,,,0,-2274,Valid,noise,0,2,1454.700793099939,1,1.0,5.063019699999131,True,4,A,2023-08-28_14h39.19.932,exp3,2022.2.2,
,,,,,,,,,,,,,,,,,,,,,,,0,-2274,Valid,noise,0,2,1459.5809020999586,1,1.0,4.896974099916406,True,4,A,2023-08-28_14h39.19.932,exp3,2022.2.2,
,,,,,,,,,,,,,,,,,,,,,,,0,1158,Invalid,noise,0,1,1465.1019705999643,0,3.0,3.5468093999661505,True,4,A,2023-08-28_14h39.19.932,exp3,2022.2.2,
,,,,,,,,,,,,,,,,,,,,,,,0,1716,Invalid,signal,0,1,1469.1809226999758,1,3.0,2.8622845000354573,True,4,A,2023-08-28_14h39.19.932,exp3,2022.2.2,
,,,,,,,,,,,,,,,,,,,,,,,0,-557,Valid,noise,0,2,1473.9329224999528,1,3.0,4.09657850000076,True,4,A,2023-08-28_14h39.19.932,exp3,2022.2.2,
,,,,,,,,,,,,,,,,,,,,,,,0,-1716,Valid,noise,0,2,1478.1729173000203,1,3.0,2.8298007000703365,True,4,A,2023-08-28_14h39.19.932,exp3,2022.2.2,
,,,,,,,,,,,,,,,,,,,,,,,0,2274,Valid,signal,0,2,1482.1095326999202,0,3.0,2.9296782999299467,True,4,A,2023-08-28_14h39.19.932,exp3,2022.2.2,
,,,,,,,,,,,,,,,,,,,,,,,0,-2274,Valid,noise,0,2,1489.4858410999877,1,3.0,6.46419990004506,True,4,A,2023-08-28_14h39.19.932,exp3,2022.2.2,
,,,,,,,,,,,,,,,,,,,,,,,0,-557,Valid,noise,0,2,1493.133497999981,1,3.0,2.446072299964726,True,4,A,2023-08-28_14h39.19.932,exp3,2022.2.2,
,,,,,,,,,,,,,,,,,,,,,,,0,-1716,Valid,noise,0,2,1497.5811826999998,1,4.0,3.413306299946271,True,4,A,2023-08-28_14h39.19.932,exp3,2022.2.2,
,,,,,,,,,,,,,,,,,,,,,,,0,1716,Valid,noise,0,2,1501.0849847999634,1,4.0,2.4798862000461668,True,4,A,2023-08-28_14h39.19.932,exp3,2022.2.2,
,,,,,,,,,,,,,,,,,,,,,,,0,2274,Valid,signal,0,2,1504.8295980999246,0,4.0,2.595853399951011,True,4,A,2023-08-28_14h39.19.932,exp3,2022.2.2,
,,,,,,,,,,,,,,,,,,,,,,,0,2274,Valid,noise,0,2,1508.1567912999308,1,4.0,2.345030099968426,True,4,A,2023-08-28_14h39.19.932,exp3,2022.2.2,
,,,,,,,,,,,,,,,,,,,,,,,0,-2274,Valid,noise,0,2,1513.245771399932,1,2.0,5.130378299974836,True,4,A,2023-08-28_14h39.19.932,exp3,2022.2.2,
,,,,,,,,,,,,,,,,,,,,,,,0,2274,Invalid,noise,0,2,1519.5979855000041,1,2.0,4.396851600031368,True,4,A,2023-08-28_14h39.19.932,exp3,2022.2.2,
,,,,,,,,,,,,,,,,,,,,,,,0,2274,Valid,noise,0,2,1523.1968528999714,1,4.0,2.7630278998985887,True,4,A,2023-08-28_14h39.19.932,exp3,2022.2.2,
,,,,,,,,,,,,,,,,,,,,,,,0,2274,Invalid,signal,0,2,1527.0688118999824,0,2.0,3.08005490002688,True,4,A,2023-08-28_14h39.19.932,exp3,2022.2.2,
,,,,,,,,,,,,,,,,,,,,,,,0,-557,Valid,signal,0,1,1530.9250556000043,1,4.0,2.5134036999661475,True,4,A,2023-08-28_14h39.19.932,exp3,2022.2.2,
,,,,,,,,,,,,,,,,,,,,,,,0,-1716,Valid,signal,0,1,1534.9088019999908,1,3.0,3.3127015000209212,True,4,A,2023-08-28_14h39.19.932,exp3,2022.2.2,
,,,,,,,,,,,,,,,,,,,,,,,0,-1158,Valid,noise,0,2,1541.3737194000278,1,1.0,6.164439799962565,True,4,A,2023-08-28_14h39.19.932,exp3,2022.2.2,
,,,,,,,,,,,,,,,,,,,,,,,0,2274,Valid,noise,0,2,1546.7975538999308,1,3.0,4.0800534000154585,True,4,A,2023-08-28_14h39.19.932,exp3,2022.2.2,
,,,,,,,,,,,,,,,,,,,,,,,0,-2274,Valid,noise,0,1,1551.6134654999478,0,2.0,3.0796871000202373,True,4,A,2023-08-28_14h39.19.932,exp3,2022.2.2,
,,,,,,,,,,,,,,,,,,,,,,,0,-1158,Invalid,signal,0,2,1555.933987999917,0,1.0,3.9464498999295756,True,4,A,2023-08-28_14h39.19.932,exp3,2022.2.2,
,,,,,,,,,,,,,,,,,,,,,,,0,-1716,Valid,noise,0,2,1560.3656255999813,1,3.0,3.0626897000474855,True,4,A,2023-08-28_14h39.19.932,exp3,2022.2.2,
,,,,,,,,,,,,,,,,,,,,,,,0,-1716,Valid,signal,0,1,1564.1735142000252,1,3.0,2.97893599991221,True,4,A,2023-08-28_14h39.19.932,exp3,2022.2.2,
,,,,,,,,,,,,,,,,,,,,,,,0,557,Valid,signal,0,1,1571.7248147999635,1,4.0,8.781464100000449,True,4,A,2023-08-28_14h39.19.932,exp3,2022.2.2,
,,,,,,,,,,,,,,,,,,,,,,,0,-1716,Invalid,noise,0,2,1578.7977816999191,1,2.0,5.6641846999991685,True,4,A,2023-08-28_14h39.19.932,exp3,2022.2.2,
,,,,,,,,,,,,,,,,,,,,,,,0,-1158,Valid,signal,0,1,1584.5406331999693,1,4.0,2.5625768000027165,True,4,A,2023-08-28_14h39.19.932,exp3,2022.2.2,
,,,,,,,,,,,,,,,,,,,,,,,0,1716,Valid,noise,0,1,1588.4615345000057,0,2.0,3.363370699924417,True,4,A,2023-08-28_14h39.19.932,exp3,2022.2.2,
,,,,,,,,,,,,,,,,,,,,,,,0,-557,Invalid,noise,0,2,1593.9656054999214,1,3.0,5.480414899997413,True,4,A,2023-08-28_14h39.19.932,exp3,2022.2.2,
,,,,,,,,,,,,,,,,,,,,,,,0,1158,Valid,signal,0,1,1599.1487331999233,1,3.0,3.1135083000408486,True,4,A,2023-08-28_14h39.19.932,exp3,2022.2.2,
,,,,,,,,,,,,,,,,,,,,,,,0,-2274,Valid,signal,0,2,1609.0857004999416,0,1.0,9.58170009998139,True,4,A,2023-08-28_14h39.19.932,exp3,2022.2.2,
,,,,,,,,,,,,,,,,,,,,,,,0,1716,Valid,signal,0,2,1614.8456244999543,0,2.0,4.6464788999874145,True,4,A,2023-08-28_14h39.19.932,exp3,2022.2.2,
,,,,,,,,,,,,,,,,,,,,,,,0,2274,Valid,noise,0,2,1619.5968653999735,1,3.0,3.630693000042811,True,4,A,2023-08-28_14h39.19.932,exp3,2022.2.2,
,,,,,,,,,,,,,,,,,,,,,,,0,-2274,Valid,signal,0,2,1624.4128518999787,0,1.0,3.2795224000001326,True,4,A,2023-08-28_14h39.19.932,exp3,2022.2.2,
,,,,,,,,,,,,,,,,,,,,,,,0,-2274,Valid,signal,0,1,1628.9735322999768,1,1.0,4.7960840000305325,True,4,A,2023-08-28_14h39.19.932,exp3,2022.2.2,
,,,,,,,,,,,,,,,,,,,,,,,0,-2274,Invalid,noise,0,2,1638.2369308000198,1,2.0,6.948094099992886,True,4,A,2023-08-28_14h39.19.932,exp3,2022.2.2,
,,,,,,,,,,,,,,,,,,,,,,,0,1716,Invalid,noise,0,2,1645.4532560999505,1,3.0,6.347511100000702,True,4,A,2023-08-28_14h39.19.932,exp3,2022.2.2,
,,,,,,,,,,,,,,,,,,,,,,,0,-1716,Valid,signal,0,2,1649.4534077999415,0,3.0,2.912206699955277,True,4,A,2023-08-28_14h39.19.932,exp3,2022.2.2,
,,,,,,,,,,,,,,,,,,,,,,,0,-557,Valid,signal,0,2,1654.5088061999995,0,4.0,4.163074899930507,True,4,A,2023-08-28_14h39.19.932,exp3,2022.2.2,
,,,,,,,,,,,,,,,,,,,,,,,0,1158,Valid,signal,0,1,1678.5575641000178,1,4.0,23.33733539993409,True,4,A,2023-08-28_14h39.19.932,exp3,2022.2.2,
,,,,,,,,,,,,,,,,,,,,,,,0,1158,Valid,signal,0,1,1682.7334227999672,1,3.0,2.4632178000174463,True,4,A,2023-08-28_14h39.19.932,exp3,2022.2.2,
,,,,,,,,,,,,,,,,,,,,,,,0,557,Valid,noise,0,2,1686.2048558000242,1,2.0,3.1790607000002638,True,4,A,2023-08-28_14h39.19.932,exp3,2022.2.2,
,,,,,,,,,,,,,,,,,,,,,,,0,-1716,Valid,noise,0,2,1690.4934032999445,1,2.0,2.7791697999928147,True,4,A,2023-08-28_14h39.19.932,exp3,2022.2.2,
,,,,,,,,,,,,,,,,,,,,,,,0,-1716,Valid,signal,0,1,1694.1576772999251,1,4.0,5.564072099979967,True,4,A,2023-08-28_14h39.19.932,exp3,2022.2.2,
,,,,,,,,,,,,,,,,,,,,,,,0,1158,Valid,noise,0,1,1700.6373972999863,0,3.0,2.2298356000101194,True,4,A,2023-08-28_14h39.19.932,exp3,2022.2.2,
,,,,,,,,,,,,,,,,,,,,,,,0,557,Valid,noise,0,2,1704.0128918000264,1,1.0,2.8626147999893874,True,4,A,2023-08-28_14h39.19.932,exp3,2022.2.2,
,,,,,,,,,,,,,,,,,,,,,,,0,557,Valid,signal,0,1,1712.8457713000244,1,3.0,8.697761200019158,True,4,A,2023-08-28_14h39.19.932,exp3,2022.2.2,
,,,,,,,,,,,,,,,,,,,,,,,0,-1158,Invalid,noise,0,2,1725.6778787999647,1,2.0,13.567319299909286,True,4,A,2023-08-28_14h39.19.932,exp3,2022.2.2,
,,,,,,,,,,,,,,,,,,,,,,,0,-1716,Valid,signal,0,2,1735.229065499967,0,2.0,7.56430480000563,True,4,A,2023-08-28_14h39.19.932,exp3,2022.2.2,
,,,,,,,,,,,,,,,,,,,,,,,0,1158,Valid,noise,0,2,1744.925885799923,1,2.0,7.131250900099985,True,4,A,2023-08-28_14h39.19.932,exp3,2022.2.2,
,,,,,,,,,,,,,,,,,,,,,,,0,-557,Valid,signal,0,2,1780.2531518000178,0,1.0,35.30905189993791,True,4,A,2023-08-28_14h39.19.932,exp3,2022.2.2,
,,,,,,,,,,,,,,,,,,,,,,,0,-557,Invalid,noise,0,2,1790.4939069999382,1,2.0,8.66457589995116,True,4,A,2023-08-28_14h39.19.932,exp3,2022.2.2,
,,,,,,,,,,,,,,,,,,,,,,,0,2274,Valid,signal,0,2,1794.9410537999356,0,2.0,2.846741999965161,True,4,A,2023-08-28_14h39.19.932,exp3,2022.2.2,
,,,,,,,,,,,,,,,,,,,,,,,0,557,Valid,noise,0,2,1800.1898352999706,1,4.0,4.980096400016919,True,4,A,2023-08-28_14h39.19.932,exp3,2022.2.2,
,,,,,,,,,,,,,,,,,,,,,,,0,1158,Valid,noise,0,2,1804.7495005999226,1,4.0,2.512924600043334,True,4,A,2023-08-28_14h39.19.932,exp3,2022.2.2,
,,,,,,,,,,,,,,,,,,,,,,,0,1716,Valid,noise,0,2,1808.0287902000127,1,4.0,2.2793180000735447,True,4,A,2023-08-28_14h39.19.932,exp3,2022.2.2,
,,,,,,,,,,,,,,,,,,,,,,,0,557,Valid,signal,0,1,1813.2452463000081,1,4.0,4.763453399995342,True,4,A,2023-08-28_14h39.19.932,exp3,2022.2.2,
,,,,,,,,,,,,,,,,,,,,,,,0,557,Valid,noise,0,2,1829.1811094000004,1,3.0,17.15152799990028,True,4,A,2023-08-28_14h39.19.932,exp3,2022.2.2,
,,,,,,,,,,,,,,,,,,,,,,,0,557,Valid,signal,0,1,1836.6527831000276,1,2.0,4.063045300077647,True,4,A,2023-08-28_14h39.19.932,exp3,2022.2.2,
,,,,,,,,,,,,,,,,,,,,,,,0,-2274,Valid,signal,0,2,1840.5257637000177,0,2.0,3.413352599949576,True,4,A,2023-08-28_14h39.19.932,exp3,2022.2.2,
,,,,,,,,,,,,,,,,,,,,,,,0,557,Invalid,signal,0,1,1846.7818112999666,1,4.0,4.696624399977736,True,4,A,2023-08-28_14h39.19.932,exp3,2022.2.2,
,,,,,,,,,,,,,,,,,,,,,,,0,-557,Valid,signal,0,1,1851.2766042000148,1,4.0,3.1464530000230297,True,4,A,2023-08-28_14h39.19.932,exp3,2022.2.2,
,,,,,,,,,,,,,,,,,,,,,,,0,-2274,Valid,noise,0,2,1855.4051583999535,1,3.0,3.512878999928944,True,4,A,2023-08-28_14h39.19.932,exp3,2022.2.2,
,,,,,,,,,,,,,,,,,,,,,,,1,2274,Invalid,noise,0,2,2037.0527123999782,1,1.0,6.4868196999887004,True,4,A,2023-08-28_14h39.19.932,exp3,2022.2.2,
,,,,,,,,,,,,,,,,,,,,,,,2,-2274,Invalid,noise,0,2,2043.0688936000224,1,2.0,2.5463280000258237,True,4,A,2023-08-28_14h39.19.932,exp3,2022.2.2,
,,,,,,,,,,,,,,,,,,,,,,,3,-2274,Invalid,signal,0,2,2046.8453904999187,0,3.0,2.5961119999410585,True,4,A,2023-08-28_14h39.19.932,exp3,2022.2.2,
,,,,,,,,,,,,,,,,,,,,,,,4,-1158,Valid,noise,0,2,2050.365301499958,1,1.0,2.5624764999374747,True,4,A,2023-08-28_14h39.19.932,exp3,2022.2.2,
,,,,,,,,,,,,,,,,,,,,,,,5,-557,Invalid,signal,0,1,2053.9014600999653,1,4.0,4.396853199927136,True,4,A,2023-08-28_14h39.19.932,exp3,2022.2.2,
,,,,,,,,,,,,,,,,,,,,,,,6,557,Valid,signal,0,1,2059.357649500016,1,4.0,2.7962852999335155,True,4,A,2023-08-28_14h39.19.932,exp3,2022.2.2,
,,,,,,,,,,,,,,,,,,,,,,,7,-1158,Valid,signal,0,2,2066.1576449000277,0,2.0,6.030509499949403,True,4,A,2023-08-28_14h39.19.932,exp3,2022.2.2,
,,,,,,,,,,,,,,,,,,,,,,,8,-557,Valid,signal,0,2,2070.1413609000156,0,1.0,3.5795561999548227,True,4,A,2023-08-28_14h39.19.932,exp3,2022.2.2,
,,,,,,,,,,,,,,,,,,,,,,,9,2274,Valid,noise,0,1,2075.501742099994,0,2.0,4.213462400017306,True,4,A,2023-08-28_14h39.19.932,exp3,2022.2.2,
,,,,,,,,,,,,,,,,,,,,,,,10,1716,Valid,signal,0,2,2080.189005199936,0,3.0,4.280433699954301,True,4,A,2023-08-28_14h39.19.932,exp3,2022.2.2,
,,,,,,,,,,,,,,,,,,,,,,,11,-1158,Valid,signal,0,2,2086.7168228999944,0,3.0,4.930091800051741,True,4,A,2023-08-28_14h39.19.932,exp3,2022.2.2,
,,,,,,,,,,,,,,,,,,,,,,,12,-1716,Invalid,signal,0,1,2092.1257991999155,1,3.0,3.613096799934283,True,4,A,2023-08-28_14h39.19.932,exp3,2022.2.2,
,,,,,,,,,,,,,,,,,,,,,,,13,-1158,Valid,noise,0,2,2095.7725734999403,1,2.0,2.8459766999585554,True,4,A,2023-08-28_14h39.19.932,exp3,2022.2.2,
,,,,,,,,,,,,,,,,,,,,,,,14,-557,Valid,signal,0,1,2099.789731499972,1,4.0,2.679463899927214,True,4,A,2023-08-28_14h39.19.932,exp3,2022.2.2,
,,,,,,,,,,,,,,,,,,,,,,,15,1158,Valid,noise,0,1,2105.244411499938,0,2.0,5.130529200076126,True,4,A,2023-08-28_14h39.19.932,exp3,2022.2.2,
,,,,,,,,,,,,,,,,,,,,,,,16,1158,Valid,noise,0,2,2109.549600899918,1,4.0,4.930729399900883,True,4,A,2023-08-28_14h39.19.932,exp3,2022.2.2,
,,,,,,,,,,,,,,,,,,,,,,,17,1716,Valid,noise,0,2,2115.5490668999264,1,4.0,2.596339200041257,True,4,A,2023-08-28_14h39.19.932,exp3,2022.2.2,
,,,,,,,,,,,,,,,,,,,,,,,18,1716,Valid,signal,0,2,2118.7972680999665,0,4.0,2.312268399982713,True,4,A,2023-08-28_14h39.19.932,exp3,2022.2.2,
,,,,,,,,,,,,,,,,,,,,,,,19,1716,Valid,noise,0,2,2122.076830099919,1,4.0,2.6628809000831097,True,4,A,2023-08-28_14h39.19.932,exp3,2022.2.2,
,,,,,,,,,,,,,,,,,,,,,,,20,1716,Invalid,noise,0,2,2129.4691894999705,1,2.0,7.014646700001322,True,4,A,2023-08-28_14h39.19.932,exp3,2022.2.2,
,,,,,,,,,,,,,,,,,,,,,,,21,-2274,Invalid,noise,0,2,2134.1244485999923,1,3.0,3.096384600037709,True,4,A,2023-08-28_14h39.19.932,exp3,2022.2.2,
,,,,,,,,,,,,,,,,,,,,,,,22,1158,Valid,noise,0,2,2150.461554199923,1,3.0,16.634307499974966,True,4,A,2023-08-28_14h39.19.932,exp3,2022.2.2,
,,,,,,,,,,,,,,,,,,,,,,,23,-557,Valid,signal,0,1,2155.645665799966,1,4.0,2.4126702999928966,True,4,A,2023-08-28_14h39.19.932,exp3,2022.2.2,
,,,,,,,,,,,,,,,,,,,,,,,24,-1716,Valid,noise,0,2,2160.765380900004,1,3.0,5.130557599943131,True,4,A,2023-08-28_14h39.19.932,exp3,2022.2.2,
,,,,,,,,,,,,,,,,,,,,,,,25,-557,Valid,signal,0,1,2166.029297199915,1,3.0,3.4458997000474483,True,4,A,2023-08-28_14h39.19.932,exp3,2022.2.2,
,,,,,,,,,,,,,,,,,,,,,,,26,1158,Valid,signal,0,1,2169.6777230999433,1,3.0,2.329547100001946,True,4,A,2023-08-28_14h39.19.932,exp3,2022.2.2,
,,,,,,,,,,,,,,,,,,,,,,,27,-1716,Invalid,noise,0,2,2173.1332204999635,1,3.0,2.5797636000206694,True,4,A,2023-08-28_14h39.19.932,exp3,2022.2.2,
,,,,,,,,,,,,,,,,,,,,,,,28,-557,Valid,signal,0,1,2176.908844199963,1,4.0,3.246200800058432,True,4,A,2023-08-28_14h39.19.932,exp3,2022.2.2,
,,,,,,,,,,,,,,,,,,,,,,,29,-1158,Valid,noise,0,2,2182.653319099918,1,2.0,5.047704300028272,True,4,A,2023-08-28_14h39.19.932,exp3,2022.2.2,
,,,,,,,,,,,,,,,,,,,,,,,30,-1716,Valid,noise,0,2,2186.972908399999,1,3.0,2.7957361000590026,True,4,A,2023-08-28_14h39.19.932,exp3,2022.2.2,
,,,,,,,,,,,,,,,,,,,,,,,31,557,Valid,noise,0,2,2190.716325999936,1,4.0,2.513124000048265,True,4,A,2023-08-28_14h39.19.932,exp3,2022.2.2,
,,,,,,,,,,,,,,,,,,,,,,,32,1158,Valid,noise,0,2,2194.18834220001,1,4.0,2.512158500030637,True,4,A,2023-08-28_14h39.19.932,exp3,2022.2.2,
,,,,,,,,,,,,,,,,,,,,,,,33,557,Valid,noise,0,2,2198.8285204999847,1,4.0,3.7130011999979615,True,4,A,2023-08-28_14h39.19.932,exp3,2022.2.2,
,,,,,,,,,,,,,,,,,,,,,,,34,-2274,Valid,signal,0,2,2203.245248400024,0,2.0,3.5297593000577763,True,4,A,2023-08-28_14h39.19.932,exp3,2022.2.2,
,,,,,,,,,,,,,,,,,,,,,,,35,557,Invalid,noise,0,2,2215.1014059999725,1,4.0,12.249442200060003,True,4,A,2023-08-28_14h39.19.932,exp3,2022.2.2,
,,,,,,,,,,,,,,,,,,,,,,,36,1158,Valid,noise,0,2,2222.1571875999216,1,4.0,4.813434000010602,True,4,A,2023-08-28_14h39.19.932,exp3,2022.2.2,
,,,,,,,,,,,,,,,,,,,,,,,37,557,Valid,noise,0,2,2225.8215660999995,1,4.0,3.180109499953687,True,4,A,2023-08-28_14h39.19.932,exp3,2022.2.2,
,,,,,,,,,,,,,,,,,,,,,,,38,1716,Invalid,signal,0,2,2230.02847619995,0,2.0,3.712949200067669,True,4,A,2023-08-28_14h39.19.932,exp3,2022.2.2,
,,,,,,,,,,,,,,,,,,,,,,,39,-1158,Valid,noise,0,2,2240.7656862000003,1,4.0,8.731614699936472,True,4,A,2023-08-28_14h39.19.932,exp3,2022.2.2,
,,,,,,,,,,,,,,,,,,,,,,,40,1716,Invalid,noise,0,2,2245.30967899994,1,3.0,3.4632560999598354,True,4,A,2023-08-28_14h39.19.932,exp3,2022.2.2,
,,,,,,,,,,,,,,,,,,,,,,,41,-2274,Valid,noise,0,2,2250.4762445000233,1,4.0,4.413235899992287,True,4,A,2023-08-28_14h39.19.932,exp3,2022.2.2,
,,,,,,,,,,,,,,,,,,,,,,,42,2274,Valid,signal,0,2,2256.6851972999284,0,4.0,4.997299799928442,True,4,A,2023-08-28_14h39.19.932,exp3,2022.2.2,
,,,,,,,,,,,,,,,,,,,,,,,43,-2274,Valid,noise,0,2,2260.7327023999533,1,4.0,2.862674199976027,True,4,A,2023-08-28_14h39.19.932,exp3,2022.2.2,
,,,,,,,,,,,,,,,,,,,,,,,44,-1716,Valid,signal,0,2,2264.348460100009,0,4.0,2.679325500037521,True,4,A,2023-08-28_14h39.19.932,exp3,2022.2.2,
,,,,,,,,,,,,,,,,,,,,,,,45,557,Valid,noise,0,2,2268.077586899977,1,4.0,2.6963568000355735,True,4,A,2023-08-28_14h39.19.932,exp3,2022.2.2,
,,,,,,,,,,,,,,,,,,,,,,,46,1716,Valid,noise,0,2,2276.1733983999584,1,4.0,6.897503899992444,True,4,A,2023-08-28_14h39.19.932,exp3,2022.2.2,
,,,,,,,,,,,,,,,,,,,,,,,47,-557,Valid,noise,0,2,2279.469642699929,1,4.0,2.145706000039354,True,4,A,2023-08-28_14h39.19.932,exp3,2022.2.2,
,,,,,,,,,,,,,,,,,,,,,,,48,557,Invalid,signal,0,1,2283.1806279999437,1,4.0,2.5799257999751717,True,4,A,2023-08-28_14h39.19.932,exp3,2022.2.2,
,,,,,,,,,,,,,,,,,,,,,,,49,-557,Valid,signal,0,1,2286.4933358000126,1,4.0,2.8624236000468954,True,4,A,2023-08-28_14h39.19.932,exp3,2022.2.2,
,,,,,,,,,,,,,,,,,,,,,,,50,1716,Valid,signal,0,2,2290.4287781999446,0,4.0,3.0794626999413595,True,4,A,2023-08-28_14h39.19.932,exp3,2022.2.2,
,,,,,,,,,,,,,,,,,,,,,,,51,2274,Valid,signal,0,2,2294.6525070000207,0,3.0,3.979898800025694,True,4,A,2023-08-28_14h39.19.932,exp3,2022.2.2,
,,,,,,,,,,,,,,,,,,,,,,,52,-1716,Valid,noise,0,1,2301.3725036999676,0,2.0,5.814877399941906,True,4,A,2023-08-28_14h39.19.932,exp3,2022.2.2,
,,,,,,,,,,,,,,,,,,,,,,,53,-557,Valid,noise,0,2,2306.3651669999817,1,4.0,2.729026800021529,True,4,A,2023-08-28_14h39.19.932,exp3,2022.2.2,
,,,,,,,,,,,,,,,,,,,,,,,54,-1158,Valid,signal,0,2,2317.2294640999753,0,2.0,10.932584899943322,True,4,A,2023-08-28_14h39.19.932,exp3,2022.2.2,
,,,,,,,,,,,,,,,,,,,,,,,55,-1716,Valid,noise,0,2,2321.8843264000025,1,3.0,2.5959885000484064,True,4,A,2023-08-28_14h39.19.932,exp3,2022.2.2,
,,,,,,,,,,,,,,,,,,,,,,,56,-1716,Valid,noise,0,2,2325.5008245999925,1,3.0,2.6959892999147996,True,4,A,2023-08-28_14h39.19.932,exp3,2022.2.2,
,,,,,,,,,,,,,,,,,,,,,,,57,2274,Valid,signal,0,2,2330.972501699929,0,1.0,5.2638855000259355,True,4,A,2023-08-28_14h39.19.932,exp3,2022.2.2,
,,,,,,,,,,,,,,,,,,,,,,,58,1158,Valid,signal,0,1,2339.340807599947,1,3.0,6.731168599915691,True,4,A,2023-08-28_14h39.19.932,exp3,2022.2.2,
,,,,,,,,,,,,,,,,,,,,,,,59,-2274,Valid,noise,0,1,2344.0604094999144,0,3.0,4.1633775000227615,True,4,A,2023-08-28_14h39.19.932,exp3,2022.2.2,
,,,,,,,,,,,,,,,,,,,,,,,60,2274,Valid,signal,0,1,2348.700992799946,1,3.0,3.3630816999357194,True,4,A,2023-08-28_14h39.19.932,exp3,2022.2.2,
,,,,,,,,,,,,,,,,,,,,,,,61,-1716,Valid,signal,0,1,2353.645252999966,1,3.0,3.813683799933642,True,4,A,2023-08-28_14h39.19.932,exp3,2022.2.2,
,,,,,,,,,,,,,,,,,,,,,,,62,-1158,Valid,noise,0,2,2357.58027809998,1,4.0,5.230505999992602,True,4,A,2023-08-28_14h39.19.932,exp3,2022.2.2,
,,,,,,,,,,,,,,,,,,,,,,,63,1158,Valid,signal,0,1,2364.0444367999444,1,4.0,4.229843999957666,True,4,A,2023-08-28_14h39.19.932,exp3,2022.2.2,
,,,,,,,,,,,,,,,,,,,,,,,64,557,Valid,signal,0,1,2370.317447899957,1,4.0,3.9300700000021607,True,4,A,2023-08-28_14h39.19.932,exp3,2022.2.2,
,,,,,,,,,,,,,,,,,,,,,,,65,1158,Valid,signal,0,1,2377.1333593999734,1,4.0,6.148259799927473,True,4,A,2023-08-28_14h39.19.932,exp3,2022.2.2,
,,,,,,,,,,,,,,,,,,,,,,,66,-1716,Valid,noise,0,2,2383.2616359000094,1,1.0,8.830832099891268,True,4,A,2023-08-28_14h39.19.932,exp3,2022.2.2,
,,,,,,,,,,,,,,,,,,,,,,,67,1158,Invalid,noise,0,2,2394.7005005999235,1,4.0,6.564334099995904,True,4,A,2023-08-28_14h39.19.932,exp3,2022.2.2,
,,,,,,,,,,,,,,,,,,,,,,,68,-557,Valid,signal,0,2,2401.1167498999275,0,3.0,5.8307937000645325,True,4,A,2023-08-28_14h39.19.932,exp3,2022.2.2,
,,,,,,,,,,,,,,,,,,,,,,,69,2274,Valid,noise,0,2,2407.0210239000153,1,4.0,4.363717000000179,True,4,A,2023-08-28_14h39.19.932,exp3,2022.2.2,
,,,,,,,,,,,,,,,,,,,,,,,70,557,Valid,noise,0,2,2410.4602144999662,1,4.0,2.5958373999455944,True,4,A,2023-08-28_14h39.19.932,exp3,2022.2.2,
,,,,,,,,,,,,,,,,,,,,,,,71,1158,Invalid,noise,0,2,2417.292568499921,1,3.0,6.047479799948633,True,4,A,2023-08-28_14h39.19.932,exp3,2022.2.2,
,,,,,,,,,,,,,,,,,,,,,,,72,557,Invalid,signal,0,2,2426.204977400019,0,4.0,7.99830400000792,True,4,A,2023-08-28_14h39.19.932,exp3,2022.2.2,
,,,,,,,,,,,,,,,,,,,,,,,73,2274,Valid,noise,0,2,2430.477067300002,1,4.0,3.8469365999335423,True,4,A,2023-08-28_14h39.19.932,exp3,2022.2.2,
,,,,,,,,,,,,,,,,,,,,,,,74,-557,Valid,noise,0,2,2435.1488760999637,1,4.0,2.7957613000180572,True,4,A,2023-08-28_14h39.19.932,exp3,2022.2.2,
,,,,,,,,,,,,,,,,,,,,,,,75,1158,Valid,signal,0,1,2439.2766823000275,1,4.0,3.3461027001030743,True,4,A,2023-08-28_14h39.19.932,exp3,2022.2.2,
,,,,,,,,,,,,,,,,,,,,,,,76,2274,Valid,signal,0,2,2443.5963098999346,0,4.0,3.146543600014411,True,4,A,2023-08-28_14h39.19.932,exp3,2022.2.2,
,,,,,,,,,,,,,,,,,,,,,,,77,-1158,Valid,signal,0,1,2447.596550700022,1,2.0,2.6961426999187097,True,4,A,2023-08-28_14h39.19.932,exp3,2022.2.2,
,,,,,,,,,,,,,,,,,,,,,,,78,1716,Valid,noise,0,2,2451.2775198000018,1,3.0,3.013676500064321,True,4,A,2023-08-28_14h39.19.932,exp3,2022.2.2,
,,,,,,,,,,,,,,,,,,,,,,,79,2274,Valid,noise,0,2,2455.340773999924,1,3.0,2.8794199998956174,True,4,A,2023-08-28_14h39.19.932,exp3,2022.2.2,
,,,,,,,,,,,,,,,,,,,,,,,80,557,Valid,signal,0,1,2488.060809999937,1,4.0,33.90730459999759,True,4,A,2023-08-28_14h39.19.932,exp3,2022.2.2,
,,,,,,,,,,,,,,,,,,,,,,,81,-1158,Valid,signal,0,1,2493.9644652999705,1,4.0,2.9631833999883384,True,4,A,2023-08-28_14h39.19.932,exp3,2022.2.2,
,,,,,,,,,,,,,,,,,,,,,,,82,-557,Valid,noise,0,2,2497.9483823999763,1,4.0,2.7799471999751404,True,4,A,2023-08-28_14h39.19.932,exp3,2022.2.2,
,,,,,,,,,,,,,,,,,,,,,,,83,2274,Valid,signal,0,2,2502.0454458999448,0,3.0,2.74624800006859,True,4,A,2023-08-28_14h39.19.932,exp3,2022.2.2,
,,,,,,,,,,,,,,,,,,,,,,,84,-1158,Valid,noise,0,2,2506.461415100028,1,2.0,4.545935099944472,True,4,A,2023-08-28_14h39.19.932,exp3,2022.2.2,
,,,,,,,,,,,,,,,,,,,,,,,85,-1716,Valid,noise,0,1,2526.509225799935,0,1.0,19.486447200062685,True,4,A,2023-08-28_14h39.19.932,exp3,2022.2.2,
,,,,,,,,,,,,,,,,,,,,,,,86,1158,Valid,signal,0,2,2532.6695636999793,0,4.0,3.9292679000645876,True,4,A,2023-08-28_14h39.19.932,exp3,2022.2.2,
,,,,,,,,,,,,,,,,,,,,,,,87,-557,Valid,noise,0,2,2536.588767100009,1,4.0,2.5292800000170246,True,4,A,2023-08-28_14h39.19.932,exp3,2022.2.2,
,,,,,,,,,,,,,,,,,,,,,,,88,1716,Valid,noise,0,2,2540.2053077999735,1,4.0,2.5801127000013366,True,4,A,2023-08-28_14h39.19.932,exp3,2022.2.2,
,,,,,,,,,,,,,,,,,,,,,,,89,-2274,Valid,signal,0,2,2543.7081903999206,0,4.0,2.6794845999684185,True,4,A,2023-08-28_14h39.19.932,exp3,2022.2.2,
,,,,,,,,,,,,,,,,,,,,,,,90,1716,Valid,signal,0,1,2547.261175599997,1,4.0,2.4285646999487653,True,4,A,2023-08-28_14h39.19.932,exp3,2022.2.2,
,,,,,,,,,,,,,,,,,,,,,,,91,-2274,Valid,signal,0,2,2550.797207699972,0,4.0,2.696124400012195,True,4,A,2023-08-28_14h39.19.932,exp3,2022.2.2,
,,,,,,,,,,,,,,,,,,,,,,,92,557,Valid,noise,0,2,2554.573493600008,1,4.0,2.9298728000139818,True,4,A,2023-08-28_14h39.19.932,exp3,2022.2.2,
,,,,,,,,,,,,,,,,,,,,,,,93,557,Valid,signal,0,1,2560.269127800013,1,4.0,4.54699179995805,True,4,A,2023-08-28_14h39.19.932,exp3,2022.2.2,
,,,,,,,,,,,,,,,,,,,,,,,94,-1716,Valid,signal,0,1,2569.1490350000095,1,4.0,7.830940400017425,True,4,A,2023-08-28_14h39.19.932,exp3,2022.2.2,
,,,,,,,,,,,,,,,,,,,,,,,95,-1158,Valid,noise,0,1,2576.2526585999876,0,4.0,7.3309900999302045,True,4,A,2023-08-28_14h39.19.932,exp3,2022.2.2,
,,,,,,,,,,,,,,,,,,,,,,,96,-1716,Invalid,signal,0,1,2583.2763487999327,1,4.0,4.964261699933559,True,4,A,2023-08-28_14h39.19.932,exp3,2022.2.2,
,,,,,,,,,,,,,,,,,,,,,,,97,-1158,Invalid,signal,0,1,2590.2840982999187,1,4.0,5.764011099934578,True,4,A,2023-08-28_14h39.19.932,exp3,2022.2.2,
,,,,,,,,,,,,,,,,,,,,,,,98,1158,Valid,signal,0,1,2597.5169381999876,1,3.0,7.664447500021197,True,4,A,2023-08-28_14h39.19.932,exp3,2022.2.2,
,,,,,,,,,,,,,,,,,,,,,,,99,1716,Invalid,signal,0,2,2604.1887443999294,0,1.0,4.98087069997564,True,4,A,2023-08-28_14h39.19.932,exp3,2022.2.2,
,,,,,,,,,,,,,,,,,,,,,,,100,1158,Valid,noise,0,1,2625.96420009993,0,1.0,21.802803199971095,True,4,A,2023-08-28_14h39.19.932,exp3,2022.2.2,
,,,,,,,,,,,,,,,,,,,,,,,101,-1158,Invalid,noise,0,2,2631.820599699975,1,3.0,5.39727249997668,True,4,A,2023-08-28_14h39.19.932,exp3,2022.2.2,
,,,,,,,,,,,,,,,,,,,,,,,102,-557,Valid,signal,0,1,2639.56466179993,1,4.0,4.730128099909052,True,4,A,2023-08-28_14h39.19.932,exp3,2022.2.2,
,,,,,,,,,,,,,,,,,,,,,,,103,1158,Invalid,signal,0,1,2644.1888065999374,1,3.0,3.2297115999972448,True,4,A,2023-08-28_14h39.19.932,exp3,2022.2.2,
,,,,,,,,,,,,,,,,,,,,,,,104,557,Valid,noise,0,2,2648.013318400015,1,4.0,3.463372700032778,True,4,A,2023-08-28_14h39.19.932,exp3,2022.2.2,
,,,,,,,,,,,,,,,,,,,,,,,105,1716,Valid,noise,0,2,2654.429377499968,1,3.0,5.146933699958026,True,4,A,2023-08-28_14h39.19.932,exp3,2022.2.2,
,,,,,,,,,,,,,,,,,,,,,,,106,-2274,Valid,noise,0,2,2658.557074000011,1,3.0,2.6968688999768347,True,4,A,2023-08-28_14h39.19.932,exp3,2022.2.2,
,,,,,,,,,,,,,,,,,,,,,,,107,-2274,Valid,noise,0,2,2662.1083591999486,1,3.0,2.8290510999504477,True,4,A,2023-08-28_14h39.19.932,exp3,2022.2.2,
,,,,,,,,,,,,,,,,,,,,,,,108,1716,Valid,signal,0,1,2666.1080183999147,1,3.0,2.529186200001277,True,4,A,2023-08-28_14h39.19.932,exp3,2022.2.2,
,,,,,,,,,,,,,,,,,,,,,,,109,-1716,Valid,noise,0,2,2669.436685499968,1,2.0,3.1463878999929875,True,4,A,2023-08-28_14h39.19.932,exp3,2022.2.2,
,,,,,,,,,,,,,,,,,,,,,,,110,-1716,Valid,signal,0,2,2673.820707899984,0,2.0,4.897185100009665,True,4,A,2023-08-28_14h39.19.932,exp3,2022.2.2,
,,,,,,,,,,,,,,,,,,,,,,,111,1158,Valid,signal,0,1,2683.276207100018,1,3.0,6.948308899998665,True,4,A,2023-08-28_14h39.19.932,exp3,2022.2.2,
,,,,,,,,,,,,,,,,,,,,,,,112,1158,Valid,noise,0,2,2689.3248256000225,1,4.0,4.746473300037906,True,4,A,2023-08-28_14h39.19.932,exp3,2022.2.2,
,,,,,,,,,,,,,,,,,,,,,,,113,1158,Valid,noise,0,2,2694.365377899958,1,4.0,4.013861199957319,True,4,A,2023-08-28_14h39.19.932,exp3,2022.2.2,
,,,,,,,,,,,,,,,,,,,,,,,114,557,Valid,signal,0,1,2700.2533300999785,1,2.0,5.046829300001264,True,4,A,2023-08-28_14h39.19.932,exp3,2022.2.2,
,,,,,,,,,,,,,,,,,,,,,,,115,2274,Valid,noise,0,2,2704.7169371999335,1,3.0,3.2786537000210956,True,4,A,2023-08-28_14h39.19.932,exp3,2022.2.2,
,,,,,,,,,,,,,,,,,,,,,,,116,-1716,Valid,signal,0,2,2709.30853629997,0,1.0,3.4634852000745013,True,4,A,2023-08-28_14h39.19.932,exp3,2022.2.2,
,,,,,,,,,,,,,,,,,,,,,,,117,-1158,Valid,signal,0,2,2715.3729558999185,0,2.0,5.16360440000426,True,4,A,2023-08-28_14h39.19.932,exp3,2022.2.2,
,,,,,,,,,,,,,,,,,,,,,,,118,1716,Valid,signal,0,2,2727.8360371999443,0,1.0,11.716319700004533,True,4,A,2023-08-28_14h39.19.932,exp3,2022.2.2,
,,,,,,,,,,,,,,,,,,,,,,,119,-557,Valid,noise,0,2,2736.7493969999487,1,4.0,8.015430499915965,True,4,A,2023-08-28_14h39.19.932,exp3,2022.2.2,
,,,,,,,,,,,,,,,,,,,,,,,120,1716,Valid,signal,0,1,2742.7331672,1,3.0,4.946548399981111,True,4,A,2023-08-28_14h39.19.932,exp3,2022.2.2,
,,,,,,,,,,,,,,,,,,,,,,,121,-557,Valid,noise,0,2,2749.4370869999984,1,4.0,5.664045199984685,True,4,A,2023-08-28_14h39.19.932,exp3,2022.2.2,
,,,,,,,,,,,,,,,,,,,,,,,122,-2274,Valid,signal,0,2,2753.692352999933,0,2.0,2.728920300025493,True,4,A,2023-08-28_14h39.19.932,exp3,2022.2.2,
,,,,,,,,,,,,,,,,,,,,,,,123,1716,Valid,noise,0,2,2759.884492699988,1,4.0,5.297564800013788,True,4,A,2023-08-28_14h39.19.932,exp3,2022.2.2,
,,,,,,,,,,,,,,,,,,,,,,,124,-1716,Valid,signal,0,1,2763.6446396999527,1,4.0,2.8626550999470055,True,4,A,2023-08-28_14h39.19.932,exp3,2022.2.2,
,,,,,,,,,,,,,,,,,,,,,,,125,2274,Invalid,noise,0,2,2767.708689399995,1,2.0,2.8464068999746814,True,4,A,2023-08-28_14h39.19.932,exp3,2022.2.2,
,,,,,,,,,,,,,,,,,,,,,,,126,557,Valid,signal,0,1,2779.0042456999654,1,3.0,12.082971299998462,True,4,A,2023-08-28_14h39.19.932,exp3,2022.2.2,
,,,,,,,,,,,,,,,,,,,,,,,127,2274,Valid,noise,0,2,2784.7320526000112,1,1.0,3.3637375000398606,True,4,A,2023-08-28_14h39.19.932,exp3,2022.2.2,
,,,,,,,,,,,,,,,,,,,,,,,128,1716,Valid,noise,0,2,2788.6691473999526,1,3.0,2.5955154000548646,True,4,A,2023-08-28_14h39.19.932,exp3,2022.2.2,
,,,,,,,,,,,,,,,,,,,,,,,129,2274,Valid,noise,0,1,2792.5248304000124,0,2.0,2.5627813999308273,True,4,A,2023-08-28_14h39.19.932,exp3,2022.2.2,
,,,,,,,,,,,,,,,,,,,,,,,130,1158,Valid,signal,0,1,2795.804142799927,1,2.0,2.296572900027968,True,4,A,2023-08-28_14h39.19.932,exp3,2022.2.2,
,,,,,,,,,,,,,,,,,,,,,,,131,-1158,Valid,noise,0,2,2800.972297100001,1,3.0,4.463061599992216,True,4,A,2023-08-28_14h39.19.932,exp3,2022.2.2,
,,,,,,,,,,,,,,,,,,,,,,,132,1158,Invalid,signal,0,2,2804.6053054999793,0,2.0,3.6638486000010744,True,4,A,2023-08-28_14h39.19.932,exp3,2022.2.2,
,,,,,,,,,,,,,,,,,,,,,,,133,557,Invalid,noise,0,2,2813.5490578999743,1,4.0,7.647866699961014,True,4,A,2023-08-28_14h39.19.932,exp3,2022.2.2,
,,,,,,,,,,,,,,,,,,,,,,,134,-2274,Valid,signal,0,2,2818.6367454000283,0,1.0,4.430353500065394,True,4,A,2023-08-28_14h39.19.932,exp3,2022.2.2,
,,,,,,,,,,,,,,,,,,,,,,,135,-2274,Invalid,signal,0,2,2824.4286584999645,0,2.0,4.629884100053459,True,4,A,2023-08-28_14h39.19.932,exp3,2022.2.2,
,,,,,,,,,,,,,,,,,,,,,,,136,-2274,Valid,noise,0,2,2832.348231300013,1,3.0,6.180818299995735,True,4,A,2023-08-28_14h39.19.932,exp3,2022.2.2,
,,,,,,,,,,,,,,,,,,,,,,,137,557,Valid,signal,0,1,2836.172559599974,1,4.0,3.4458655999042094,True,4,A,2023-08-28_14h39.19.932,exp3,2022.2.2,
,,,,,,,,,,,,,,,,,,,,,,,138,1158,Valid,noise,0,2,2841.052591499989,1,2.0,2.9628100999398157,True,4,A,2023-08-28_14h39.19.932,exp3,2022.2.2,
,,,,,,,,,,,,,,,,,,,,,,,139,-557,Invalid,noise,0,2,2848.8602268999675,1,3.0,7.181503199972212,True,4,A,2023-08-28_14h39.19.932,exp3,2022.2.2,
,,,,,,,,,,,,,,,,,,,,,,,140,-1158,Valid,noise,0,2,2854.908685399918,1,3.0,4.830124899977818,True,4,A,2023-08-28_14h39.19.932,exp3,2022.2.2,
,,,,,,,,,,,,,,,,,,,,,,,141,2274,Valid,signal,0,2,2858.9085337999277,0,3.0,3.046295900014229,True,4,A,2023-08-28_14h39.19.932,exp3,2022.2.2,
,,,,,,,,,,,,,,,,,,,,,,,142,-1158,Invalid,signal,0,1,2863.1162499999627,1,4.0,2.9798629001015797,True,4,A,2023-08-28_14h39.19.932,exp3,2022.2.2,
,,,,,,,,,,,,,,,,,,,,,,,143,-2274,Valid,signal,0,1,2867.2766390999313,1,4.0,3.0629707999760285,True,4,A,2023-08-28_14h39.19.932,exp3,2022.2.2,
,,,,,,,,,,,,,,,,,,,,,,,144,-557,Valid,signal,0,1,2872.5401381999254,1,4.0,4.430535199935548,True,4,A,2023-08-28_14h39.19.932,exp3,2022.2.2,
,,,,,,,,,,,,,,,,,,,,,,,145,-557,Invalid,noise,0,2,2880.0608881999506,1,3.0,6.697450199979357,True,4,A,2023-08-28_14h39.19.932,exp3,2022.2.2,
,,,,,,,,,,,,,,,,,,,,,,,146,-2274,Valid,signal,0,2,2884.3491126999725,0,2.0,3.6296051000244915,True,4,A,2023-08-28_14h39.19.932,exp3,2022.2.2,
,,,,,,,,,,,,,,,,,,,,,,,147,-557,Valid,noise,0,2,2888.395935999928,1,4.0,2.796126800007187,True,4,A,2023-08-28_14h39.19.932,exp3,2022.2.2,
,,,,,,,,,,,,,,,,,,,,,,,148,-2274,Valid,noise,0,2,2892.381107999943,1,2.0,3.0629609000170603,True,4,A,2023-08-28_14h39.19.932,exp3,2022.2.2,
,,,,,,,,,,,,,,,,,,,,,,,149,2274,Valid,noise,0,2,2896.4286136999726,1,3.0,2.4292877999832854,True,4,A,2023-08-28_14h39.19.932,exp3,2022.2.2,
,,,,,,,,,,,,,,,,,,,,,,,150,-1716,Valid,signal,0,2,2903.88468509994,0,3.0,6.897802200051956,True,4,A,2023-08-28_14h39.19.932,exp3,2022.2.2,
,,,,,,,,,,,,,,,,,,,,,,,151,-2274,Valid,noise,0,2,2907.853020899929,1,3.0,2.9295310999732465,True,4,A,2023-08-28_14h39.19.932,exp3,2022.2.2,
,,,,,,,,,,,,,,,,,,,,,,,152,-557,Valid,noise,0,2,2913.292476499919,1,4.0,4.464271100005135,True,4,A,2023-08-28_14h39.19.932,exp3,2022.2.2,
,,,,,,,,,,,,,,,,,,,,,,,153,1716,Valid,noise,0,2,2920.3812629999593,1,4.0,6.2636804999783635,True,4,A,2023-08-28_14h39.19.932,exp3,2022.2.2,
,,,,,,,,,,,,,,,,,,,,,,,154,-2274,Valid,noise,0,2,2927.773221899988,1,3.0,6.264079999993555,True,4,A,2023-08-28_14h39.19.932,exp3,2022.2.2,
,,,,,,,,,,,,,,,,,,,,,,,155,-557,Invalid,signal,0,1,2931.932705999934,1,4.0,2.76316339999903,True,4,A,2023-08-28_14h39.19.932,exp3,2022.2.2,
,,,,,,,,,,,,,,,,,,,,,,,156,1716,Valid,signal,0,1,2946.10929459997,1,3.0,13.600583699997514,True,4,A,2023-08-28_14h39.19.932,exp3,2022.2.2,
,,,,,,,,,,,,,,,,,,,,,,,157,-1716,Invalid,noise,0,2,2958.1883526999736,1,2.0,12.899677700013854,True,4,A,2023-08-28_14h39.19.932,exp3,2022.2.2,
,,,,,,,,,,,,,,,,,,,,,,,158,-1716,Valid,signal,0,2,2963.996058300021,0,3.0,2.762528199935332,True,4,A,2023-08-28_14h39.19.932,exp3,2022.2.2,
,,,,,,,,,,,,,,,,,,,,,,,159,2274,Invalid,signal,0,2,2968.7479288999457,0,3.0,3.546805700054392,True,4,A,2023-08-28_14h39.19.932,exp3,2022.2.2,
,,,,,,,,,,,,,,,,,,,,,,,160,-1158,Valid,signal,0,1,2979.4530120999552,1,4.0,10.132516099954955,True,4,A,2023-08-28_14h39.19.932,exp3,2022.2.2,
,,,,,,,,,,,,,,,,,,,,,,,161,2274,Valid,signal,0,2,2983.820052199997,0,3.0,3.4128592000342906,True,4,A,2023-08-28_14h39.19.932,exp3,2022.2.2,
,,,,,,,,,,,,,,,,,,,,,,,162,-1158,Valid,signal,0,1,2998.0122042000294,1,4.0,14.950713700032793,True,4,A,2023-08-28_14h39.19.932,exp3,2022.2.2,
,,,,,,,,,,,,,,,,,,,,,,,163,-1158,Invalid,noise,0,2,3004.9559647999704,1,2.0,4.046820500050671,True,4,A,2023-08-28_14h39.19.932,exp3,2022.2.2,
,,,,,,,,,,,,,,,,,,,,,,,164,1716,Valid,signal,0,2,3009.1325618999545,0,3.0,2.9799988000886515,True,4,A,2023-08-28_14h39.19.932,exp3,2022.2.2,
,,,,,,,,,,,,,,,,,,,,,,,165,-2274,Valid,signal,0,2,3015.212962099933,0,2.0,5.646538899978623,True,4,A,2023-08-28_14h39.19.932,exp3,2022.2.2,
,,,,,,,,,,,,,,,,,,,,,,,166,557,Valid,noise,0,2,3024.3958606999367,1,4.0,8.231716600013897,True,4,A,2023-08-28_14h39.19.932,exp3,2022.2.2,
,,,,,,,,,,,,,,,,,,,,,,,167,-1716,Valid,noise,0,2,3028.828449200024,1,4.0,2.529922500019893,True,4,A,2023-08-28_14h39.19.932,exp3,2022.2.2,
,,,,,,,,,,,,,,,,,,,,,,,168,557,Valid,signal,0,1,3040.97309809993,1,4.0,11.565555599983782,True,4,A,2023-08-28_14h39.19.932,exp3,2022.2.2,
,,,,,,,,,,,,,,,,,,,,,,,169,-1716,Valid,signal,0,2,3062.652195999981,0,3.0,22.237720799981616,True,4,A,2023-08-28_14h39.19.932,exp3,2022.2.2,
,,,,,,,,,,,,,,,,,,,,,,,170,557,Valid,signal,0,1,3069.533168099937,1,3.0,4.379064799984917,True,4,A,2023-08-28_14h39.19.932,exp3,2022.2.2,
,,,,,,,,,,,,,,,,,,,,,,,171,-2274,Valid,signal,0,2,3074.3970467000036,0,1.0,3.946925900061615,True,4,A,2023-08-28_14h39.19.932,exp3,2022.2.2,
,,,,,,,,,,,,,,,,,,,,,,,172,2274,Invalid,signal,0,2,3079.5482388000237,0,1.0,3.7137748999521136,True,4,A,2023-08-28_14h39.19.932,exp3,2022.2.2,
,,,,,,,,,,,,,,,,,,,,,,,173,557,Valid,noise,0,2,3087.756561700022,1,4.0,7.481742499978282,True,4,A,2023-08-28_14h39.19.932,exp3,2022.2.2,
,,,,,,,,,,,,,,,,,,,,,,,174,2274,Valid,signal,0,2,3093.2291510999203,0,3.0,4.462390600005165,True,4,A,2023-08-28_14h39.19.932,exp3,2022.2.2,
,,,,,,,,,,,,,,,,,,,,,,,175,-1158,Valid,signal,0,1,3111.452027500025,1,3.0,17.55169340001885,True,4,A,2023-08-28_14h39.19.932,exp3,2022.2.2,
,,,,,,,,,,,,,,,,,,,,,,,176,2274,Valid,noise,0,2,3117.6771568999393,1,4.0,5.147293300018646,True,4,A,2023-08-28_14h39.19.932,exp3,2022.2.2,
,,,,,,,,,,,,,,,,,,,,,,,2,1716,Valid,noise,0,2,3763.291586300009,1,1.0,5.166594700072892,True,4,A,2023-08-28_14h39.19.932,exp3,2022.2.2,
,,,,,,,,,,,,,,,,,,,,,,,4,1716,Invalid,signal,0,2,3769.067788799992,0,3.0,2.7131776999449357,True,4,A,2023-08-28_14h39.19.932,exp3,2022.2.2,
,,,,,,,,,,,,,,,,,,,,,,,6,-2274,Valid,noise,0,2,3773.179559399956,1,3.0,2.4961330000078306,True,4,A,2023-08-28_14h39.19.932,exp3,2022.2.2,
,,,,,,,,,,,,,,,,,,,,,,,8,1716,Valid,signal,0,2,3776.4446557000047,0,3.0,2.2297911000205204,True,4,A,2023-08-28_14h39.19.932,exp3,2022.2.2,
,,,,,,,,,,,,,,,,,,,,,,,10,-557,Invalid,noise,0,2,3782.443521899986,1,4.0,6.880665699951351,True,4,A,2023-08-28_14h39.19.932,exp3,2022.2.2,
,,,,,,,,,,,,,,,,,,,,,,,12,557,Valid,signal,0,1,3787.692313399981,1,4.0,2.812753399950452,True,4,A,2023-08-28_14h39.19.932,exp3,2022.2.2,
,,,,,,,,,,,,,,,,,,,,,,,14,1158,Valid,noise,0,1,3791.4684582999907,0,4.0,2.26257539994549,True,4,A,2023-08-28_14h39.19.932,exp3,2022.2.2,
,,,,,,,,,,,,,,,,,,,,,,,16,1158,Valid,noise,0,2,3794.5725337999174,1,4.0,4.3967727000126615,True,4,A,2023-08-28_14h39.19.932,exp3,2022.2.2,
,,,,,,,,,,,,,,,,,,,,,,,18,-1158,Valid,noise,0,2,3800.1878026999766,1,1.0,2.87983130000066,True,4,A,2023-08-28_14h39.19.932,exp3,2022.2.2,
,,,,,,,,,,,,,,,,,,,,,,,20,-2274,Valid,signal,0,2,3804.0283447999973,0,1.0,3.0294427999760956,True,4,A,2023-08-28_14h39.19.932,exp3,2022.2.2,
,,,,,,,,,,,,,,,,,,,,,,,22,2274,Invalid,noise,0,2,3812.2358008999145,1,2.0,7.931409200071357,True,4,A,2023-08-28_14h39.19.932,exp3,2022.2.2,
,,,,,,,,,,,,,,,,,,,,,,,24,-2274,Invalid,signal,0,2,3817.132601200021,0,3.0,3.613212600001134,True,4,A,2023-08-28_14h39.19.932,exp3,2022.2.2,
,,,,,,,,,,,,,,,,,,,,,,,26,1716,Valid,noise,0,2,3821.4679157999344,1,3.0,2.596134399995208,True,4,A,2023-08-28_14h39.19.932,exp3,2022.2.2,
,,,,,,,,,,,,,,,,,,,,,,,28,-1716,Valid,signal,0,2,3825.3723922999343,0,2.0,2.879576800041832,True,4,A,2023-08-28_14h39.19.932,exp3,2022.2.2,
,,,,,,,,,,,,,,,,,,,,,,,30,-1158,Invalid,signal,0,2,3829.771527200006,0,3.0,3.029585999902338,True,4,A,2023-08-28_14h39.19.932,exp3,2022.2.2,
,,,,,,,,,,,,,,,,,,,,,,,32,2274,Invalid,signal,0,2,3836.7314468999393,0,1.0,6.897941799950786,True,4,A,2023-08-28_14h39.19.932,exp3,2022.2.2,
,,,,,,,,,,,,,,,,,,,,,,,34,2274,Valid,signal,0,1,3842.6034746000078,1,4.0,4.496436699992046,True,4,A,2023-08-28_14h39.19.932,exp3,2022.2.2,
,,,,,,,,,,,,,,,,,,,,,,,36,557,Valid,noise,0,1,3846.3798068999313,0,1.0,5.096870900015347,True,4,A,2023-08-28_14h39.19.932,exp3,2022.2.2,
,,,,,,,,,,,,,,,,,,,,,,,38,-1158,Valid,noise,0,1,3852.6197316999314,0,2.0,3.2635427000932395,True,4,A,2023-08-28_14h39.19.932,exp3,2022.2.2,
,,,,,,,,,,,,,,,,,,,,,,,40,557,Valid,signal,0,1,3861.276815399993,1,4.0,9.481753900065087,True,4,A,2023-08-28_14h39.19.932,exp3,2022.2.2,
,,,,,,,,,,,,,,,,,,,,,,,42,-1716,Valid,signal,0,2,3869.7567123000044,0,1.0,5.714065200067125,True,4,A,2023-08-28_14h39.19.932,exp3,2022.2.2,
,,,,,,,,,,,,,,,,,,,,,,,44,2274,Valid,signal,0,2,3873.7074238000205,0,1.0,3.146423800033517,True,4,A,2023-08-28_14h39.19.932,exp3,2022.2.2,
,,,,,,,,,,,,,,,,,,,,,,,46,1158,Invalid,signal,0,1,3880.3476232999237,1,3.0,4.7806428000330925,True,4,A,2023-08-28_14h39.19.932,exp3,2022.2.2,
,,,,,,,,,,,,,,,,,,,,,,,48,-1158,Valid,signal,0,2,3899.7240744999144,0,1.0,19.368572099949233,True,4,A,2023-08-28_14h39.19.932,exp3,2022.2.2,
,,,,,,,,,,,,,,,,,,,,,,,50,-2274,Valid,noise,0,2,3904.5401174,1,1.0,3.162849099957384,True,4,A,2023-08-28_14h39.19.932,exp3,2022.2.2,
,,,,,,,,,,,,,,,,,,,,,,,52,-557,Valid,signal,0,1,3908.4921707999893,1,4.0,4.296749200089835,True,4,A,2023-08-28_14h39.19.932,exp3,2022.2.2,
,,,,,,,,,,,,,,,,,,,,,,,54,-2274,Invalid,signal,0,1,3917.163603599998,1,3.0,10.132356700021774,True,4,A,2023-08-28_14h39.19.932,exp3,2022.2.2,
,,,,,,,,,,,,,,,,,,,,,,,56,557,Invalid,signal,0,1,3933.4195265999297,1,4.0,11.366375099983998,True,4,A,2023-08-28_14h39.19.932,exp3,2022.2.2,
,,,,,,,,,,,,,,,,,,,,,,,58,1716,Valid,noise,0,2,3937.435789400013,1,3.0,3.212353299953975,True,4,A,2023-08-28_14h39.19.932,exp3,2022.2.2,
,,,,,,,,,,,,,,,,,,,,,,,60,2274,Valid,noise,0,2,3941.8847987999907,1,3.0,2.9630615999922156,True,4,A,2023-08-28_14h39.19.932,exp3,2022.2.2,
,,,,,,,,,,,,,,,,,,,,,,,62,1158,Valid,noise,0,2,3947.1633691999596,1,3.0,4.229770999983884,True,4,A,2023-08-28_14h39.19.932,exp3,2022.2.2,
,,,,,,,,,,,,,,,,,,,,,,,64,-557,Valid,signal,0,1,3952.52443260001,1,3.0,5.18092610000167,True,4,A,2023-08-28_14h39.19.932,exp3,2022.2.2,
,,,,,,,,,,,,,,,,,,,,,,,66,-557,Valid,noise,0,2,3958.4762841999764,1,3.0,4.029650600044988,True,4,A,2023-08-28_14h39.19.932,exp3,2022.2.2,
,,,,,,,,,,,,,,,,,,,,,,,68,2274,Invalid,signal,0,1,3963.036796099972,1,1.0,4.029398899991065,True,4,A,2023-08-28_14h39.19.932,exp3,2022.2.2,
,,,,,,,,,,,,,,,,,,,,,,,70,1716,Valid,signal,0,1,3970.124769499991,1,4.0,6.697409299900755,True,4,A,2023-08-28_14h39.19.932,exp3,2022.2.2,
,,,,,,,,,,,,,,,,,,,,,,,72,-557,Valid,noise,0,2,3979.308225799934,1,4.0,7.231621099985205,True,4,A,2023-08-28_14h39.19.932,exp3,2022.2.2,
,,,,,,,,,,,,,,,,,,,,,,,74,2274,Valid,noise,0,2,3983.8205671999604,1,3.0,3.929801599937491,True,4,A,2023-08-28_14h39.19.932,exp3,2022.2.2,
,,,,,,,,,,,,,,,,,,,,,,,76,-2274,Valid,signal,0,2,3988.3956345999613,0,2.0,4.379963199957274,True,4,A,2023-08-28_14h39.19.932,exp3,2022.2.2,
,,,,,,,,,,,,,,,,,,,,,,,78,-557,Valid,noise,0,2,3994.9407918999204,1,4.0,5.413785699987784,True,4,A,2023-08-28_14h39.19.932,exp3,2022.2.2,
,,,,,,,,,,,,,,,,,,,,,,,80,557,Invalid,signal,0,1,4006.171447600005,1,4.0,9.132297299918719,True,4,A,2023-08-28_14h39.19.932,exp3,2022.2.2,
,,,,,,,,,,,,,,,,,,,,,,,82,1716,Valid,noise,0,2,4011.9324441999197,1,4.0,4.629622000036761,True,4,A,2023-08-28_14h39.19.932,exp3,2022.2.2,
,,,,,,,,,,,,,,,,,,,,,,,84,2274,Valid,noise,0,2,4015.5312957999995,1,3.0,2.4460124999750406,True,4,A,2023-08-28_14h39.19.932,exp3,2022.2.2,
,,,,,,,,,,,,,,,,,,,,,,,86,2274,Valid,signal,0,2,4019.1955441000173,0,3.0,2.7129636999452487,True,4,A,2023-08-28_14h39.19.932,exp3,2022.2.2,
,,,,,,,,,,,,,,,,,,,,,,,88,1716,Valid,signal,0,1,4023.0521217000205,1,2.0,2.762377600069158,True,4,A,2023-08-28_14h39.19.932,exp3,2022.2.2,
,,,,,,,,,,,,,,,,,,,,,,,90,557,Valid,noise,0,2,4026.5713517999975,1,3.0,2.5298401000909507,True,4,A,2023-08-28_14h39.19.932,exp3,2022.2.2,
,,,,,,,,,,,,,,,,,,,,,,,92,1158,Invalid,noise,0,2,4031.467868699925,1,3.0,4.446256899973378,True,4,A,2023-08-28_14h39.19.932,exp3,2022.2.2,
,,,,,,,,,,,,,,,,,,,,,,,94,1716,Valid,signal,0,2,4038.1720310000237,0,2.0,10.432678599958308,True,4,A,2023-08-28_14h39.19.932,exp3,2022.2.2,
,,,,,,,,,,,,,,,,,,,,,,,96,557,Invalid,noise,0,1,4055.963415200007,0,4.0,13.666539500001818,True,4,A,2023-08-28_14h39.19.932,exp3,2022.2.2,
,,,,,,,,,,,,,,,,,,,,,,,98,1716,Valid,signal,0,2,4062.2040757000213,0,3.0,3.4976192000322044,True,4,A,2023-08-28_14h39.19.932,exp3,2022.2.2,
,,,,,,,,,,,,,,,,,,,,,,,100,-1716,Valid,noise,0,2,4065.9800470999908,1,3.0,7.830030999961309,True,4,A,2023-08-28_14h39.19.932,exp3,2022.2.2,
,,,,,,,,,,,,,,,,,,,,,,,102,-2274,Valid,noise,0,2,4077.3712877000216,1,4.0,5.39699440007098,True,4,A,2023-08-28_14h39.19.932,exp3,2022.2.2,
,,,,,,,,,,,,,,,,,,,,,,,104,-2274,Valid,signal,0,2,4081.3234066999285,0,2.0,2.846076599904336,True,4,A,2023-08-28_14h39.19.932,exp3,2022.2.2,
,,,,,,,,,,,,,,,,,,,,,,,106,1716,Valid,noise,0,2,4084.924636199954,1,3.0,2.2459100000560284,True,4,A,2023-08-28_14h39.19.932,exp3,2022.2.2,
,,,,,,,,,,,,,,,,,,,,,,,108,557,Valid,signal,0,1,4088.2523055999773,1,4.0,2.329789699986577,True,4,A,2023-08-28_14h39.19.932,exp3,2022.2.2,
,,,,,,,,,,,,,,,,,,,,,,,110,-1716,Valid,noise,0,2,4091.724105399917,1,2.0,2.6127925999462605,True,4,A,2023-08-28_14h39.19.932,exp3,2022.2.2,
,,,,,,,,,,,,,,,,,,,,,,,112,1158,Valid,signal,0,1,4097.052573599969,1,4.0,4.279771900037304,True,4,A,2023-08-28_14h39.19.932,exp3,2022.2.2,
,,,,,,,,,,,,,,,,,,,,,,,114,-1716,Valid,noise,0,2,4102.716464499943,1,4.0,4.663307600072585,True,4,A,2023-08-28_14h39.19.932,exp3,2022.2.2,
,,,,,,,,,,,,,,,,,,,,,,,116,-2274,Valid,signal,0,2,4106.572656799923,0,3.0,2.5466662000399083,True,4,A,2023-08-28_14h39.19.932,exp3,2022.2.2,
,,,,,,,,,,,,,,,,,,,,,,,118,-2274,Invalid,noise,0,1,4110.396006499999,0,3.0,2.9457613999256864,True,4,A,2023-08-28_14h39.19.932,exp3,2022.2.2,
,,,,,,,,,,,,,,,,,,,,,,,120,-1716,Valid,noise,0,2,4113.980573699926,1,2.0,2.8960737999295816,True,4,A,2023-08-28_14h39.19.932,exp3,2022.2.2,
,,,,,,,,,,,,,,,,,,,,,,,122,-1716,Invalid,signal,0,1,4117.755591799971,1,4.0,2.5291520999744534,True,4,A,2023-08-28_14h39.19.932,exp3,2022.2.2,
,,,,,,,,,,,,,,,,,,,,,,,124,-557,Valid,signal,0,1,4121.308475299971,1,4.0,2.645860399934463,True,4,A,2023-08-28_14h39.19.932,exp3,2022.2.2,
,,,,,,,,,,,,,,,,,,,,,,,126,1716,Valid,noise,0,1,4125.499361000024,0,3.0,3.129717400064692,True,4,A,2023-08-28_14h39.19.932,exp3,2022.2.2,
,,,,,,,,,,,,,,,,,,,,,,,128,-2274,Valid,signal,0,2,4129.724051899975,0,2.0,3.6132207000628114,True,4,A,2023-08-28_14h39.19.932,exp3,2022.2.2,
,,,,,,,,,,,,,,,,,,,,,,,130,-1716,Valid,signal,0,2,4134.3642404000275,0,2.0,3.2965267000254244,True,4,A,2023-08-28_14h39.19.932,exp3,2022.2.2,
,,,,,,,,,,,,,,,,,,,,,,,132,-557,Valid,noise,0,2,4139.324609000003,1,2.0,4.61364210001193,True,4,A,2023-08-28_14h39.19.932,exp3,2022.2.2,
,,,,,,,,,,,,,,,,,,,,,,,134,2274,Valid,signal,0,2,4143.804570399923,0,1.0,4.080369099974632,True,4,A,2023-08-28_14h39.19.932,exp3,2022.2.2,
,,,,,,,,,,,,,,,,,,,,,,,136,1158,Valid,noise,0,2,4148.540546400007,1,3.0,2.462066600099206,True,4,A,2023-08-28_14h39.19.932,exp3,2022.2.2,
,,,,,,,,,,,,,,,,,,,,,,,138,-1158,Valid,signal,0,1,4154.779994399985,1,4.0,5.697859699954279,True,4,A,2023-08-28_14h39.19.932,exp3,2022.2.2,
,,,,,,,,,,,,,,,,,,,,,,,140,557,Valid,signal,0,1,4158.58729159995,1,4.0,2.2455154999624938,True,4,A,2023-08-28_14h39.19.932,exp3,2022.2.2,
,,,,,,,,,,,,,,,,,,,,,,,142,557,Valid,signal,0,1,4161.820157099981,1,4.0,2.296071600052528,True,4,A,2023-08-28_14h39.19.932,exp3,2022.2.2,
,,,,,,,,,,,,,,,,,,,,,,,144,-1158,Valid,signal,0,1,4165.195490299957,1,4.0,2.5296170000219718,True,4,A,2023-08-28_14h39.19.932,exp3,2022.2.2,
,,,,,,,,,,,,,,,,,,,,,,,146,-1716,Valid,signal,0,1,4168.940112699987,1,1.0,3.0602804000955075,True,4,A,2023-08-28_14h39.19.932,exp3,2022.2.2,
,,,,,,,,,,,,,,,,,,,,,,,148,-1716,Valid,noise,0,1,4173.051771200029,0,2.0,2.663055400014855,True,4,A,2023-08-28_14h39.19.932,exp3,2022.2.2,
,,,,,,,,,,,,,,,,,,,,,,,150,-1158,Valid,signal,0,1,4176.747974799946,1,2.0,2.62948130001314,True,4,A,2023-08-28_14h39.19.932,exp3,2022.2.2,
,,,,,,,,,,,,,,,,,,,,,,,152,2274,Valid,signal,0,1,4180.6039475,1,2.0,2.9789101999485865,True,4,A,2023-08-28_14h39.19.932,exp3,2022.2.2,
,,,,,,,,,,,,,,,,,,,,,,,154,-1158,Valid,signal,0,1,4185.8206101999385,1,2.0,4.280226100003347,True,4,A,2023-08-28_14h39.19.932,exp3,2022.2.2,
,,,,,,,,,,,,,,,,,,,,,,,156,-557,Valid,signal,0,1,4190.699551799917,1,3.0,3.5463203999679536,True,4,A,2023-08-28_14h39.19.932,exp3,2022.2.2,
,,,,,,,,,,,,,,,,,,,,,,,158,-1158,Valid,signal,0,1,4193.788514300017,1,4.0,2.4458876000717282,True,4,A,2023-08-28_14h39.19.932,exp3,2022.2.2,
,,,,,,,,,,,,,,,,,,,,,,,160,1716,Valid,noise,0,1,4197.404056999949,0,3.0,2.21254229999613,True,4,A,2023-08-28_14h39.19.932,exp3,2022.2.2,
,,,,,,,,,,,,,,,,,,,,,,,162,557,Valid,noise,0,2,4202.027864999953,1,4.0,3.980300600058399,True,4,A,2023-08-28_14h39.19.932,exp3,2022.2.2,
,,,,,,,,,,,,,,,,,,,,,,,164,557,Valid,noise,0,2,4206.667986799963,1,4.0,3.5291566000087187,True,4,A,2023-08-28_14h39.19.932,exp3,2022.2.2,
,,,,,,,,,,,,,,,,,,,,,,,166,-2274,Invalid,noise,0,2,4212.187373899971,1,3.0,4.7300373000325635,True,4,A,2023-08-28_14h39.19.932,exp3,2022.2.2,
,,,,,,,,,,,,,,,,,,,,,,,168,2274,Valid,signal,0,2,4215.86730319995,0,3.0,2.212557899998501,True,4,A,2023-08-28_14h39.19.932,exp3,2022.2.2,
,,,,,,,,,,,,,,,,,,,,,,,170,-1158,Valid,noise,0,2,4224.043932799948,1,4.0,7.664597199996933,True,4,A,2023-08-28_14h39.19.932,exp3,2022.2.2,
,,,,,,,,,,,,,,,,,,,,,,,172,-1158,Valid,noise,0,2,4228.7159776999615,1,3.0,4.196646700031124,True,4,A,2023-08-28_14h39.19.932,exp3,2022.2.2,
,,,,,,,,,,,,,,,,,,,,,,,174,-2274,Valid,noise,0,2,4233.131467800005,1,3.0,3.1800223999889567,True,4,A,2023-08-28_14h39.19.932,exp3,2022.2.2,
,,,,,,,,,,,,,,,,,,,,,,,176,557,Valid,signal,0,1,4237.243853199994,1,4.0,2.545876699965447,True,4,A,2023-08-28_14h39.19.932,exp3,2022.2.2,
,,,,,,,,,,,,,,,,,,,,,,,178,557,Valid,noise,0,2,4242.50798539992,1,4.0,4.530718100024387,True,4,A,2023-08-28_14h39.19.932,exp3,2022.2.2,
,,,,,,,,,,,,,,,,,,,,,,,180,-557,Valid,signal,0,1,4248.251301000011,1,1.0,4.546447000000626,True,4,A,2023-08-28_14h39.19.932,exp3,2022.2.2,
