trials.label,trials.startVal,trials.maxVal,trials.minVal,trials.startValSd,trials.pthreshold,trials.beta,trials.delta,trials.gamma,trials.grain,trials.stepSize,trials.range,trials.cue,trials.thisIndex,trials.thisRepN,trials.thisN,trials.direction,trials.stepType,trials.intensity,signalOpacity,level,trials.response,stair_eye_ok,nTrial,position,validity,Stimulus,orientation,response_key,response_rt,response_correct,confidence,confidence_rt,curr_trial_rep,eye_ok,participant,session,date,expName,psychopyVersion
low_opac_v,0.4,1,0.01,3,0.82,3.5,0.01,0,0.01,4,5,Valid,0,1,0,start,lin,0.4,0.4,0.4,1,TRUE,,,,,,,,,,,,,14,A,2023-09-11_10h38.46.503,exp3,2022.2.2
high_opac_v,0.01,1,0.01,3,0.82,3.5,0.01,0,0.01,4,5,Valid,1,1,1,start,lin,0.01,0.01,0.01,0,TRUE,,,,,,,,,,,,,14,A,2023-09-11_10h38.46.503,exp3,2022.2.2
low_opac_i,0.4,1,0.01,3,0.82,3.5,0.01,0,0.01,4,5,Invalid,2,1,2,start,lin,0.4,0.4,0.4,1,TRUE,,,,,,,,,,,,,14,A,2023-09-11_10h38.46.503,exp3,2022.2.2
high_opac_v,0.01,1,0.01,3,0.82,3.5,0.01,0,0.01,4,5,Valid,1,2,3,start,lin,1,1,1,0,TRUE,,,,,,,,,,,,,14,A,2023-09-11_10h38.46.503,exp3,2022.2.2
low_opac_i,0.4,1,0.01,3,0.82,3.5,0.01,0,0.01,4,5,Invalid,2,2,4,start,lin,0.01,0.01,0.01,0,TRUE,,,,,,,,,,,,,14,A,2023-09-11_10h38.46.503,exp3,2022.2.2
low_opac_v,0.4,1,0.01,3,0.82,3.5,0.01,0,0.01,4,5,Valid,0,2,5,start,lin,0.01,0.01,0.01,1,TRUE,,,,,,,,,,,,,14,A,2023-09-11_10h38.46.503,exp3,2022.2.2
low_opac_i,0.4,1,0.01,3,0.82,3.5,0.01,0,0.01,4,5,Invalid,2,3,6,start,lin,0.314409869,0.314409869,0.314409869,1,TRUE,,,,,,,,,,,,,14,A,2023-09-11_10h38.46.503,exp3,2022.2.2
high_opac_v,0.01,1,0.01,3,0.82,3.5,0.01,0,0.01,4,5,Valid,1,3,7,start,lin,1,1,1,0,TRUE,,,,,,,,,,,,,14,A,2023-09-11_10h38.46.503,exp3,2022.2.2
low_opac_v,0.4,1,0.01,3,0.82,3.5,0.01,0,0.01,4,5,Valid,0,3,8,start,lin,0.01,0,0.01,0,TRUE,,,,,,,,,,,,,14,A,2023-09-11_10h38.46.503,exp3,2022.2.2
low_opac_i,0.4,1,0.01,3,0.82,3.5,0.01,0,0.01,4,5,Invalid,2,4,9,start,lin,0.235611595,0.235611595,0.235611595,1,TRUE,,,,,,,,,,,,,14,A,2023-09-11_10h38.46.503,exp3,2022.2.2
low_opac_v,0.4,1,0.01,3,0.82,3.5,0.01,0,0.01,4,5,Valid,0,4,10,start,lin,0.11291,0.11291,0.11291,0,TRUE,,,,,,,,,,,,,14,A,2023-09-11_10h38.46.503,exp3,2022.2.2
high_opac_v,0.01,1,0.01,3,0.82,3.5,0.01,0,0.01,4,5,Valid,1,4,11,start,lin,1,1,1,0,TRUE,,,,,,,,,,,,,14,A,2023-09-11_10h38.46.503,exp3,2022.2.2
high_opac_v,0.01,1,0.01,3,0.82,3.5,0.01,0,0.01,4,5,Valid,1,5,12,start,lin,1,0,1,0,TRUE,,,,,,,,,,,,,14,A,2023-09-11_10h38.46.503,exp3,2022.2.2
low_opac_i,0.4,1,0.01,3,0.82,3.5,0.01,0,0.01,4,5,Invalid,2,5,13,start,lin,0.184178099,0.184178099,0.184178099,0,TRUE,,,,,,,,,,,,,14,A,2023-09-11_10h38.46.503,exp3,2022.2.2
low_opac_v,0.4,1,0.01,3,0.82,3.5,0.01,0,0.01,4,5,Valid,0,5,14,start,lin,0.253149326,0,0.253149326,0,TRUE,,,,,,,,,,,,,14,A,2023-09-11_10h38.46.503,exp3,2022.2.2
low_opac_i,0.4,1,0.01,3,0.82,3.5,0.01,0,0.01,4,5,Invalid,2,6,15,start,lin,0.290621264,0.290621264,0.290621264,0,TRUE,,,,,,,,,,,,,14,A,2023-09-11_10h38.46.503,exp3,2022.2.2
high_opac_v,0.01,1,0.01,3,0.82,3.5,0.01,0,0.01,4,5,Valid,1,6,16,start,lin,1,0,1,0,TRUE,,,,,,,,,,,,,14,A,2023-09-11_10h38.46.503,exp3,2022.2.2
low_opac_v,0.4,1,0.01,3,0.82,3.5,0.01,0,0.01,4,5,Valid,0,6,17,start,lin,0.3585362,0,0.3585362,0,TRUE,,,,,,,,,,,,,14,A,2023-09-11_10h38.46.503,exp3,2022.2.2
high_opac_v,0.01,1,0.01,3,0.82,3.5,0.01,0,0.01,4,5,Valid,1,7,18,start,lin,1,1,1,0,TRUE,,,,,,,,,,,,,14,A,2023-09-11_10h38.46.503,exp3,2022.2.2
low_opac_v,0.4,1,0.01,3,0.82,3.5,0.01,0,0.01,4,5,Valid,0,7,19,start,lin,0.450966719,0.450966719,0.450966719,0,TRUE,,,,,,,,,,,,,14,A,2023-09-11_10h38.46.503,exp3,2022.2.2
low_opac_i,0.4,1,0.01,3,0.82,3.5,0.01,0,0.01,4,5,Invalid,2,7,20,start,lin,0.365231688,0,0.365231688,1,TRUE,,,,,,,,,,,,,14,A,2023-09-11_10h38.46.503,exp3,2022.2.2
high_opac_v,0.01,1,0.01,3,0.82,3.5,0.01,0,0.01,4,5,Valid,1,8,21,start,lin,1,0,1,0,TRUE,,,,,,,,,,,,,14,A,2023-09-11_10h38.46.503,exp3,2022.2.2
low_opac_v,0.4,1,0.01,3,0.82,3.5,0.01,0,0.01,4,5,Valid,0,8,22,start,lin,0.536358504,0,0.536358504,0,TRUE,,,,,,,,,,,,,14,A,2023-09-11_10h38.46.503,exp3,2022.2.2
low_opac_i,0.4,1,0.01,3,0.82,3.5,0.01,0,0.01,4,5,Invalid,2,8,23,start,lin,0.347202578,0,0.347202578,1,TRUE,,,,,,,,,,,,,14,A,2023-09-11_10h38.46.503,exp3,2022.2.2
high_opac_v,0.01,1,0.01,3,0.82,3.5,0.01,0,0.01,4,5,Valid,1,9,24,start,lin,1,1,1,0,TRUE,,,,,,,,,,,,,14,A,2023-09-11_10h38.46.503,exp3,2022.2.2
low_opac_v,0.4,1,0.01,3,0.82,3.5,0.01,0,0.01,4,5,Valid,0,9,25,start,lin,0.622103931,0.622103931,0.622103931,0,TRUE,,,,,,,,,,,,,14,A,2023-09-11_10h38.46.503,exp3,2022.2.2
low_opac_i,0.4,1,0.01,3,0.82,3.5,0.01,0,0.01,4,5,Invalid,2,9,26,start,lin,0.332457707,0.332457707,0.332457707,0,TRUE,,,,,,,,,,,,,14,A,2023-09-11_10h38.46.503,exp3,2022.2.2
low_opac_v,0.4,1,0.01,3,0.82,3.5,0.01,0,0.01,4,5,Valid,0,10,27,start,lin,0.7047397,0,0.7047397,1,TRUE,,,,,,,,,,,,,14,A,2023-09-11_10h38.46.503,exp3,2022.2.2
high_opac_v,0.01,1,0.01,3,0.82,3.5,0.01,0,0.01,4,5,Valid,1,10,28,start,lin,1,0,1,0,TRUE,,,,,,,,,,,,,14,A,2023-09-11_10h38.46.503,exp3,2022.2.2
low_opac_i,0.4,1,0.01,3,0.82,3.5,0.01,0,0.01,4,5,Invalid,2,10,29,start,lin,0.377643851,0,0.377643851,0,TRUE,,,,,,,,,,,,,14,A,2023-09-11_10h38.46.503,exp3,2022.2.2
high_opac_v,0.01,1,0.01,3,0.82,3.5,0.01,0,0.01,4,5,Valid,1,11,30,start,lin,1,0,1,0,TRUE,,,,,,,,,,,,,14,A,2023-09-11_10h38.46.503,exp3,2022.2.2
low_opac_i,0.4,1,0.01,3,0.82,3.5,0.01,0,0.01,4,5,Invalid,2,11,31,start,lin,0.419663686,0,0.419663686,1,TRUE,,,,,,,,,,,,,14,A,2023-09-11_10h38.46.503,exp3,2022.2.2
low_opac_v,0.4,1,0.01,3,0.82,3.5,0.01,0,0.01,4,5,Valid,0,11,32,start,lin,0.679924095,0,0.679924095,1,TRUE,,,,,,,,,,,,,14,A,2023-09-11_10h38.46.503,exp3,2022.2.2
low_opac_i,0.4,1,0.01,3,0.82,3.5,0.01,0,0.01,4,5,Invalid,2,12,33,start,lin,0.409204791,0.409204791,0.409204791,0,TRUE,,,,,,,,,,,,,14,A,2023-09-11_10h38.46.503,exp3,2022.2.2
high_opac_v,0.01,1,0.01,3,0.82,3.5,0.01,0,0.01,4,5,Valid,1,12,34,start,lin,1,0,1,1,TRUE,,,,,,,,,,,,,14,A,2023-09-11_10h38.46.503,exp3,2022.2.2
low_opac_v,0.4,1,0.01,3,0.82,3.5,0.01,0,0.01,4,5,Valid,0,12,35,start,lin,0.662356207,0.662356207,0.662356207,1,TRUE,,,,,,,,,,,,,14,A,2023-09-11_10h38.46.503,exp3,2022.2.2
low_opac_i,0.4,1,0.01,3,0.82,3.5,0.01,0,0.01,4,5,Invalid,2,13,36,start,lin,0.443873262,0,0.443873262,0,TRUE,,,,,,,,,,,,,14,A,2023-09-11_10h38.46.503,exp3,2022.2.2
low_opac_v,0.4,1,0.01,3,0.82,3.5,0.01,0,0.01,4,5,Valid,0,13,37,start,lin,0.647977701,0,0.647977701,0,TRUE,,,,,,,,,,,,,14,A,2023-09-11_10h38.46.503,exp3,2022.2.2
high_opac_v,0.01,1,0.01,3,0.82,3.5,0.01,0,0.01,4,5,Valid,1,13,38,start,lin,1,0,1,1,TRUE,,,,,,,,,,,,,14,A,2023-09-11_10h38.46.503,exp3,2022.2.2
low_opac_v,0.4,1,0.01,3,0.82,3.5,0.01,0,0.01,4,5,Valid,0,14,39,start,lin,0.692046165,0.692046165,0.692046165,1,TRUE,,,,,,,,,,,,,14,A,2023-09-11_10h38.46.503,exp3,2022.2.2
low_opac_i,0.4,1,0.01,3,0.82,3.5,0.01,0,0.01,4,5,Invalid,2,14,40,start,lin,0.476187331,0,0.476187331,0,TRUE,,,,,,,,,,,,,14,A,2023-09-11_10h38.46.503,exp3,2022.2.2
high_opac_v,0.01,1,0.01,3,0.82,3.5,0.01,0,0.01,4,5,Valid,1,14,41,start,lin,1,0,1,1,TRUE,,,,,,,,,,,,,14,A,2023-09-11_10h38.46.503,exp3,2022.2.2
high_opac_v,0.01,1,0.01,3,0.82,3.5,0.01,0,0.01,4,5,Valid,1,15,42,start,lin,1,0,1,0,TRUE,,,,,,,,,,,,,14,A,2023-09-11_10h38.46.503,exp3,2022.2.2
low_opac_i,0.4,1,0.01,3,0.82,3.5,0.01,0,0.01,4,5,Invalid,2,15,43,start,lin,0.509374742,0.509374742,0.509374742,0,TRUE,,,,,,,,,,,,,14,A,2023-09-11_10h38.46.503,exp3,2022.2.2
low_opac_v,0.4,1,0.01,3,0.82,3.5,0.01,0,0.01,4,5,Valid,0,15,44,start,lin,0.681052874,0.681052874,0.681052874,1,TRUE,,,,,,,,,,,,,14,A,2023-09-11_10h38.46.503,exp3,2022.2.2
high_opac_v,0.01,1,0.01,3,0.82,3.5,0.01,0,0.01,4,5,Valid,1,16,45,start,lin,1,1,1,0,TRUE,,,,,,,,,,,,,14,A,2023-09-11_10h38.46.503,exp3,2022.2.2
low_opac_i,0.4,1,0.01,3,0.82,3.5,0.01,0,0.01,4,5,Invalid,2,16,46,start,lin,0.541507965,0.541507965,0.541507965,0,TRUE,,,,,,,,,,,,,14,A,2023-09-11_10h38.46.503,exp3,2022.2.2
low_opac_v,0.4,1,0.01,3,0.82,3.5,0.01,0,0.01,4,5,Valid,0,16,47,start,lin,0.671570098,0,0.671570098,0,TRUE,,,,,,,,,,,,,14,A,2023-09-11_10h38.46.503,exp3,2022.2.2
low_opac_i,0.4,1,0.01,3,0.82,3.5,0.01,0,0.01,4,5,Invalid,2,17,48,start,lin,0.572933143,0,0.572933143,0,TRUE,,,,,,,,,,,,,14,A,2023-09-11_10h38.46.503,exp3,2022.2.2
low_opac_v,0.4,1,0.01,3,0.82,3.5,0.01,0,0.01,4,5,Valid,0,17,49,start,lin,0.702948754,0.702948754,0.702948754,0,TRUE,,,,,,,,,,,,,14,A,2023-09-11_10h38.46.503,exp3,2022.2.2
high_opac_v,0.01,1,0.01,3,0.82,3.5,0.01,0,0.01,4,5,Valid,1,17,50,start,lin,1,0,1,1,TRUE,,,,,,,,,,,,,14,A,2023-09-11_10h38.46.503,exp3,2022.2.2
low_opac_i,0.4,1,0.01,3,0.82,3.5,0.01,0,0.01,4,5,Invalid,2,18,51,start,lin,0.603898329,0.603898329,0.603898329,0,TRUE,,,,,,,,,,,,,14,A,2023-09-11_10h38.46.503,exp3,2022.2.2
low_opac_v,0.4,1,0.01,3,0.82,3.5,0.01,0,0.01,4,5,Valid,0,18,52,start,lin,0.732226198,0.732226198,0.732226198,1,TRUE,,,,,,,,,,,,,14,A,2023-09-11_10h38.46.503,exp3,2022.2.2
high_opac_v,0.01,1,0.01,3,0.82,3.5,0.01,0,0.01,4,5,Valid,1,18,53,start,lin,1,0,1,0,TRUE,,,,,,,,,,,,,14,A,2023-09-11_10h38.46.503,exp3,2022.2.2
high_opac_v,0.01,1,0.01,3,0.82,3.5,0.01,0,0.01,4,5,Valid,1,19,54,start,lin,1,0,1,0,TRUE,,,,,,,,,,,,,14,A,2023-09-11_10h38.46.503,exp3,2022.2.2
low_opac_v,0.4,1,0.01,3,0.82,3.5,0.01,0,0.01,4,5,Valid,0,19,55,start,lin,0.724635393,0,0.724635393,0,TRUE,,,,,,,,,,,,,14,A,2023-09-11_10h38.46.503,exp3,2022.2.2
low_opac_i,0.4,1,0.01,3,0.82,3.5,0.01,0,0.01,4,5,Invalid,2,19,56,start,lin,0.63456401,0,0.63456401,0,TRUE,,,,,,,,,,,,,14,A,2023-09-11_10h38.46.503,exp3,2022.2.2
low_opac_v,0.4,1,0.01,3,0.82,3.5,0.01,0,0.01,4,5,Valid,0,20,57,start,lin,0.749911627,0.749911627,0.749911627,1,TRUE,,,,,,,,,,,,,14,A,2023-09-11_10h38.46.503,exp3,2022.2.2
high_opac_v,0.01,1,0.01,3,0.82,3.5,0.01,0,0.01,4,5,Valid,1,20,58,start,lin,1,0,1,0,TRUE,,,,,,,,,,,,,14,A,2023-09-11_10h38.46.503,exp3,2022.2.2
low_opac_i,0.4,1,0.01,3,0.82,3.5,0.01,0,0.01,4,5,Invalid,2,20,59,start,lin,0.665030623,0.665030623,0.665030623,0,TRUE,,,,,,,,,,,,,14,A,2023-09-11_10h38.46.503,exp3,2022.2.2
low_opac_v,0.4,1,0.01,3,0.82,3.5,0.01,0,0.01,4,5,Valid,0,21,60,start,lin,0.743436988,0.743436988,0.743436988,0,TRUE,,,,,,,,,,,,,14,A,2023-09-11_10h38.46.503,exp3,2022.2.2
low_opac_i,0.4,1,0.01,3,0.82,3.5,0.01,0,0.01,4,5,Invalid,2,21,61,start,lin,0.697424966,0.697424966,0.697424966,1,TRUE,,,,,,,,,,,,,14,A,2023-09-11_10h38.46.503,exp3,2022.2.2
high_opac_v,0.01,1,0.01,3,0.82,3.5,0.01,0,0.01,4,5,Valid,1,21,62,start,lin,1,0,1,0,TRUE,,,,,,,,,,,,,14,A,2023-09-11_10h38.46.503,exp3,2022.2.2
low_opac_i,0.4,1,0.01,3,0.82,3.5,0.01,0,0.01,4,5,Invalid,2,22,63,start,lin,0.689442566,0,0.689442566,1,TRUE,,,,,,,,,,,,,14,A,2023-09-11_10h38.46.503,exp3,2022.2.2
low_opac_v,0.4,1,0.01,3,0.82,3.5,0.01,0,0.01,4,5,Valid,0,22,64,start,lin,0.766114373,0,0.766114373,0,TRUE,,,,,,,,,,,,,14,A,2023-09-11_10h38.46.503,exp3,2022.2.2
high_opac_v,0.01,1,0.01,3,0.82,3.5,0.01,0,0.01,4,5,Valid,1,22,65,start,lin,1,0,1,0,TRUE,,,,,,,,,,,,,14,A,2023-09-11_10h38.46.503,exp3,2022.2.2
low_opac_v,0.4,1,0.01,3,0.82,3.5,0.01,0,0.01,4,5,Valid,0,23,66,start,lin,0.789347795,0.789347795,0.789347795,1,TRUE,,,,,,,,,,,,,14,A,2023-09-11_10h38.46.503,exp3,2022.2.2
high_opac_v,0.01,1,0.01,3,0.82,3.5,0.01,0,0.01,4,5,Valid,1,23,67,start,lin,1,0,1,1,TRUE,,,,,,,,,,,,,14,A,2023-09-11_10h38.46.503,exp3,2022.2.2
low_opac_i,0.4,1,0.01,3,0.82,3.5,0.01,0,0.01,4,5,Invalid,2,23,68,start,lin,0.682282202,0.682282202,0.682282202,1,TRUE,,,,,,,,,,,,,14,A,2023-09-11_10h38.46.503,exp3,2022.2.2
low_opac_i,0.4,1,0.01,3,0.82,3.5,0.01,0,0.01,4,5,Invalid,2,24,69,start,lin,0.675662445,0,0.675662445,0,TRUE,,,,,,,,,,,,,14,A,2023-09-11_10h38.46.503,exp3,2022.2.2
low_opac_v,0.4,1,0.01,3,0.82,3.5,0.01,0,0.01,4,5,Valid,0,24,70,start,lin,0.783739243,0.783739243,0.783739243,0,TRUE,,,,,,,,,,,,,14,A,2023-09-11_10h38.46.503,exp3,2022.2.2
high_opac_v,0.01,1,0.01,3,0.82,3.5,0.01,0,0.01,4,5,Valid,1,24,71,start,lin,1,1,1,1,TRUE,,,,,,,,,,,,,14,A,2023-09-11_10h38.46.503,exp3,2022.2.2
low_opac_v,0.4,1,0.01,3,0.82,3.5,0.01,0,0.01,4,5,Valid,0,25,72,start,lin,0.803814969,0,0.803814969,1,TRUE,,,,,,,,,,,,,14,A,2023-09-11_10h38.46.503,exp3,2022.2.2
high_opac_v,0.01,1,0.01,3,0.82,3.5,0.01,0,0.01,4,5,Valid,1,25,73,start,lin,1,1,1,1,TRUE,,,,,,,,,,,,,14,A,2023-09-11_10h38.46.503,exp3,2022.2.2
low_opac_i,0.4,1,0.01,3,0.82,3.5,0.01,0,0.01,4,5,Invalid,2,25,74,start,lin,0.699520336,0,0.699520336,0,TRUE,,,,,,,,,,,,,14,A,2023-09-11_10h38.46.503,exp3,2022.2.2
low_opac_v,0.4,1,0.01,3,0.82,3.5,0.01,0,0.01,4,5,Valid,0,26,75,start,lin,0.798521063,0.798521063,0.798521063,0,TRUE,,,,,,,,,,,,,14,A,2023-09-11_10h38.46.503,exp3,2022.2.2
high_opac_v,0.01,1,0.01,3,0.82,3.5,0.01,0,0.01,4,5,Valid,1,26,76,start,lin,1,1,1,0,TRUE,,,,,,,,,,,,,14,A,2023-09-11_10h38.46.503,exp3,2022.2.2
low_opac_i,0.4,1,0.01,3,0.82,3.5,0.01,0,0.01,4,5,Invalid,2,26,77,start,lin,0.722264104,0,0.722264104,0,TRUE,,,,,,,,,,,,,14,A,2023-09-11_10h38.46.503,exp3,2022.2.2
high_opac_v,0.01,1,0.01,3,0.82,3.5,0.01,0,0.01,4,5,Valid,1,27,78,start,lin,1,1,1,1,TRUE,,,,,,,,,,,,,14,A,2023-09-11_10h38.46.503,exp3,2022.2.2
low_opac_i,0.4,1,0.01,3,0.82,3.5,0.01,0,0.01,4,5,Invalid,2,27,79,start,lin,0.744202237,0,0.744202237,1,TRUE,,,,,,,,,,,,,14,A,2023-09-11_10h38.46.503,exp3,2022.2.2
low_opac_v,0.4,1,0.01,3,0.82,3.5,0.01,0,0.01,4,5,Valid,0,27,80,start,lin,0.817537832,0,0.817537832,0,TRUE,,,,,,,,,,,,,14,A,2023-09-11_10h38.46.503,exp3,2022.2.2
high_opac_v,0.01,1,0.01,3,0.82,3.5,0.01,0,0.01,4,5,Valid,1,28,81,start,lin,1,0,1,0,TRUE,,,,,,,,,,,,,14,A,2023-09-11_10h38.46.503,exp3,2022.2.2
low_opac_i,0.4,1,0.01,3,0.82,3.5,0.01,0,0.01,4,5,Invalid,2,28,82,start,lin,0.738413391,0,0.738413391,1,TRUE,,,,,,,,,,,,,14,A,2023-09-11_10h38.46.503,exp3,2022.2.2
low_opac_v,0.4,1,0.01,3,0.82,3.5,0.01,0,0.01,4,5,Valid,0,28,83,start,lin,0.836386731,0,0.836386731,0,TRUE,,,,,,,,,,,,,14,A,2023-09-11_10h38.46.503,exp3,2022.2.2
high_opac_v,0.01,1,0.01,3,0.82,3.5,0.01,0,0.01,4,5,Valid,1,29,84,start,lin,1,0,1,0,TRUE,,,,,,,,,,,,,14,A,2023-09-11_10h38.46.503,exp3,2022.2.2
low_opac_v,0.4,1,0.01,3,0.82,3.5,0.01,0,0.01,4,5,Valid,0,29,85,start,lin,0.855168934,0.855168934,0.855168934,0,TRUE,,,,,,,,,,,,,14,A,2023-09-11_10h38.46.503,exp3,2022.2.2
low_opac_i,0.4,1,0.01,3,0.82,3.5,0.01,0,0.01,4,5,Invalid,2,29,86,start,lin,0.733365384,0,0.733365384,0,TRUE,,,,,,,,,,,,,14,A,2023-09-11_10h38.46.503,exp3,2022.2.2
high_opac_v,0.01,1,0.01,3,0.82,3.5,0.01,0,0.01,4,5,Valid,1,30,87,start,lin,1,1,1,1,TRUE,,,,,,,,,,,,,14,A,2023-09-11_10h38.46.503,exp3,2022.2.2
low_opac_v,0.4,1,0.01,3,0.82,3.5,0.01,0,0.01,4,5,Valid,0,30,88,start,lin,0.873948686,0.873948686,0.873948686,1,TRUE,,,,,,,,,,,,,14,A,2023-09-11_10h38.46.503,exp3,2022.2.2
low_opac_i,0.4,1,0.01,3,0.82,3.5,0.01,0,0.01,4,5,Invalid,2,30,89,start,lin,0.751845164,0.751845164,0.751845164,0,TRUE,,,,,,,,,,,,,14,A,2023-09-11_10h38.46.503,exp3,2022.2.2
low_opac_v,0.4,1,0.01,3,0.82,3.5,0.01,0,0.01,4,5,Valid,0,31,90,start,lin,0.869250773,0,0.869250773,0,TRUE,,,,,,,,,,,,,14,A,2023-09-11_10h38.46.503,exp3,2022.2.2
high_opac_v,0.01,1,0.01,3,0.82,3.5,0.01,0,0.01,4,5,Valid,1,31,91,start,lin,1,0,1,0,TRUE,,,,,,,,,,,,,14,A,2023-09-11_10h38.46.503,exp3,2022.2.2
low_opac_i,0.4,1,0.01,3,0.82,3.5,0.01,0,0.01,4,5,Invalid,2,31,92,start,lin,0.770181527,0,0.770181527,1,TRUE,,,,,,,,,,,,,14,A,2023-09-11_10h38.46.503,exp3,2022.2.2
low_opac_v,0.4,1,0.01,3,0.82,3.5,0.01,0,0.01,4,5,Valid,0,32,93,start,lin,0.886236863,0.886236863,0.886236863,0,TRUE,,,,,,,,,,,,,14,A,2023-09-11_10h38.46.503,exp3,2022.2.2
high_opac_v,0.01,1,0.01,3,0.82,3.5,0.01,0,0.01,4,5,Valid,1,32,94,start,lin,1,0,1,0,TRUE,,,,,,,,,,,,,14,A,2023-09-11_10h38.46.503,exp3,2022.2.2
low_opac_i,0.4,1,0.01,3,0.82,3.5,0.01,0,0.01,4,5,Invalid,2,32,95,start,lin,0.765574355,0,0.765574355,0,TRUE,,,,,,,,,,,,,14,A,2023-09-11_10h38.46.503,exp3,2022.2.2
low_opac_v,0.4,1,0.01,3,0.82,3.5,0.01,0,0.01,4,5,Valid,0,33,96,start,lin,0.903429898,0.903429898,0.903429898,0,TRUE,,,,,,,,,,,,,14,A,2023-09-11_10h38.46.503,exp3,2022.2.2
low_opac_i,0.4,1,0.01,3,0.82,3.5,0.01,0,0.01,4,5,Invalid,2,33,97,start,lin,0.783300104,0,0.783300104,1,TRUE,,,,,,,,,,,,,14,A,2023-09-11_10h38.46.503,exp3,2022.2.2
high_opac_v,0.01,1,0.01,3,0.82,3.5,0.01,0,0.01,4,5,Valid,1,33,98,start,lin,1,1,1,0,TRUE,,,,,,,,,,,,,14,A,2023-09-11_10h38.46.503,exp3,2022.2.2
low_opac_i,0.4,1,0.01,3,0.82,3.5,0.01,0,0.01,4,5,Invalid,2,34,99,start,lin,0.778907517,0,0.778907517,0,TRUE,,,,,,,,,,,,,14,A,2023-09-11_10h38.46.503,exp3,2022.2.2
high_opac_v,0.01,1,0.01,3,0.82,3.5,0.01,0,0.01,4,5,Valid,1,34,100,start,lin,1,1,1,0,TRUE,,,,,,,,,,,,,14,A,2023-09-11_10h38.46.503,exp3,2022.2.2
low_opac_v,0.4,1,0.01,3,0.82,3.5,0.01,0,0.01,4,5,Valid,0,34,101,start,lin,0.91964509,0,0.91964509,0,TRUE,,,,,,,,,,,,,14,A,2023-09-11_10h38.46.503,exp3,2022.2.2
high_opac_v,0.01,1,0.01,3,0.82,3.5,0.01,0,0.01,4,5,Valid,1,35,102,start,lin,1,0,1,0,TRUE,,,,,,,,,,,,,14,A,2023-09-11_10h38.46.503,exp3,2022.2.2
low_opac_v,0.4,1,0.01,3,0.82,3.5,0.01,0,0.01,4,5,Valid,0,35,103,start,lin,0.936239742,0.936239742,0.936239742,0,TRUE,,,,,,,,,,,,,14,A,2023-09-11_10h38.46.503,exp3,2022.2.2
low_opac_i,0.4,1,0.01,3,0.82,3.5,0.01,0,0.01,4,5,Invalid,2,35,104,start,lin,0.795016383,0,0.795016383,0,TRUE,,,,,,,,,,,,,14,A,2023-09-11_10h38.46.503,exp3,2022.2.2
high_opac_v,0.01,1,0.01,3,0.82,3.5,0.01,0,0.01,4,5,Valid,1,36,105,start,lin,1,0,1,0,TRUE,,,,,,,,,,,,,14,A,2023-09-11_10h38.46.503,exp3,2022.2.2
low_opac_v,0.4,1,0.01,3,0.82,3.5,0.01,0,0.01,4,5,Valid,0,36,106,start,lin,0.953169354,0.953169354,0.953169354,0,TRUE,,,,,,,,,,,,,14,A,2023-09-11_10h38.46.503,exp3,2022.2.2
low_opac_i,0.4,1,0.01,3,0.82,3.5,0.01,0,0.01,4,5,Invalid,2,36,107,start,lin,0.811331971,0,0.811331971,0,TRUE,,,,,,,,,,,,,14,A,2023-09-11_10h38.46.503,exp3,2022.2.2
high_opac_v,0.01,1,0.01,3,0.82,3.5,0.01,0,0.01,4,5,Valid,1,37,108,start,lin,1,0,1,0,TRUE,,,,,,,,,,,,,14,A,2023-09-11_10h38.46.503,exp3,2022.2.2
low_opac_v,0.4,1,0.01,3,0.82,3.5,0.01,0,0.01,4,5,Valid,0,37,109,start,lin,0.969223244,0,0.969223244,0,TRUE,,,,,,,,,,,,,14,A,2023-09-11_10h38.46.503,exp3,2022.2.2
low_opac_i,0.4,1,0.01,3,0.82,3.5,0.01,0,0.01,4,5,Invalid,2,37,110,start,lin,0.826791046,0.826791046,0.826791046,0,TRUE,,,,,,,,,,,,,14,A,2023-09-11_10h38.46.503,exp3,2022.2.2
high_opac_v,0.01,1,0.01,3,0.82,3.5,0.01,0,0.01,4,5,Valid,1,38,111,start,lin,1,0,1,0,TRUE,,,,,,,,,,,,,14,A,2023-09-11_10h38.46.503,exp3,2022.2.2
low_opac_v,0.4,1,0.01,3,0.82,3.5,0.01,0,0.01,4,5,Valid,0,38,112,start,lin,0.985723802,0.985723802,0.985723802,0,TRUE,,,,,,,,,,,,,14,A,2023-09-11_10h38.46.503,exp3,2022.2.2
low_opac_i,0.4,1,0.01,3,0.82,3.5,0.01,0,0.01,4,5,Invalid,2,38,113,start,lin,0.842648579,0,0.842648579,1,TRUE,,,,,,,,,,,,,14,A,2023-09-11_10h38.46.503,exp3,2022.2.2
low_opac_i,0.4,1,0.01,3,0.82,3.5,0.01,0,0.01,4,5,Invalid,2,39,114,start,lin,0.83869945,0,0.83869945,0,TRUE,,,,,,,,,,,,,14,A,2023-09-11_10h38.46.503,exp3,2022.2.2
low_opac_v,0.4,1,0.01,3,0.82,3.5,0.01,0,0.01,4,5,Valid,0,39,115,start,lin,1,0,1,1,TRUE,,,,,,,,,,,,,14,A,2023-09-11_10h38.46.503,exp3,2022.2.2
high_opac_v,0.01,1,0.01,3,0.82,3.5,0.01,0,0.01,4,5,Valid,1,39,116,start,lin,1,0,1,0,TRUE,,,,,,,,,,,,,14,A,2023-09-11_10h38.46.503,exp3,2022.2.2
low_opac_v,0.4,1,0.01,3,0.82,3.5,0.01,0,0.01,4,5,Valid,0,40,117,start,lin,0.99840154,0.99840154,0.99840154,0,TRUE,,,,,,,,,,,,,14,A,2023-09-11_10h38.46.503,exp3,2022.2.2
high_opac_v,0.01,1,0.01,3,0.82,3.5,0.01,0,0.01,4,5,Valid,1,40,118,start,lin,1,0,1,0,TRUE,,,,,,,,,,,,,14,A,2023-09-11_10h38.46.503,exp3,2022.2.2
low_opac_i,0.4,1,0.01,3,0.82,3.5,0.01,0,0.01,4,5,Invalid,2,40,119,start,lin,0.853412305,0,0.853412305,0,TRUE,,,,,,,,,,,,,14,A,2023-09-11_10h38.46.503,exp3,2022.2.2
high_opac_v,0.01,1,0.01,3,0.82,3.5,0.01,0,0.01,4,5,Valid,1,41,120,start,lin,1,1,1,0,TRUE,,,,,,,,,,,,,14,A,2023-09-11_10h38.46.503,exp3,2022.2.2
low_opac_i,0.4,1,0.01,3,0.82,3.5,0.01,0,0.01,4,5,Invalid,2,41,121,start,lin,0.867489529,0.867489529,0.867489529,0,TRUE,,,,,,,,,,,,,14,A,2023-09-11_10h38.46.503,exp3,2022.2.2
low_opac_v,0.4,1,0.01,3,0.82,3.5,0.01,0,0.01,4,5,Valid,0,41,122,start,lin,1,1,1,0,TRUE,,,,,,,,,,,,,14,A,2023-09-11_10h38.46.503,exp3,2022.2.2
high_opac_v,0.01,1,0.01,3,0.82,3.5,0.01,0,0.01,4,5,Valid,1,42,123,start,lin,1,1,1,0,TRUE,,,,,,,,,,,,,14,A,2023-09-11_10h38.46.503,exp3,2022.2.2
low_opac_v,0.4,1,0.01,3,0.82,3.5,0.01,0,0.01,4,5,Valid,0,42,124,start,lin,1,1,1,1,TRUE,,,,,,,,,,,,,14,A,2023-09-11_10h38.46.503,exp3,2022.2.2
low_opac_i,0.4,1,0.01,3,0.82,3.5,0.01,0,0.01,4,5,Invalid,2,42,125,start,lin,0.882119364,0,0.882119364,0,TRUE,,,,,,,,,,,,,14,A,2023-09-11_10h38.46.503,exp3,2022.2.2
high_opac_v,0.01,1,0.01,3,0.82,3.5,0.01,0,0.01,4,5,Valid,1,43,126,start,lin,1,1,1,0,TRUE,,,,,,,,,,,,,14,A,2023-09-11_10h38.46.503,exp3,2022.2.2
low_opac_v,0.4,1,0.01,3,0.82,3.5,0.01,0,0.01,4,5,Valid,0,43,127,start,lin,1,0,1,0,TRUE,,,,,,,,,,,,,14,A,2023-09-11_10h38.46.503,exp3,2022.2.2
low_opac_i,0.4,1,0.01,3,0.82,3.5,0.01,0,0.01,4,5,Invalid,2,43,128,start,lin,0.896185868,0,0.896185868,1,TRUE,,,,,,,,,,,,,14,A,2023-09-11_10h38.46.503,exp3,2022.2.2
low_opac_v,0.4,1,0.01,3,0.82,3.5,0.01,0,0.01,4,5,Valid,0,44,129,start,lin,1,0,1,0,TRUE,,,,,,,,,,,,,14,A,2023-09-11_10h38.46.503,exp3,2022.2.2
high_opac_v,0.01,1,0.01,3,0.82,3.5,0.01,0,0.01,4,5,Valid,1,44,130,start,lin,1,1,1,0,TRUE,,,,,,,,,,,,,14,A,2023-09-11_10h38.46.503,exp3,2022.2.2
low_opac_i,0.4,1,0.01,3,0.82,3.5,0.01,0,0.01,4,5,Invalid,2,44,131,start,lin,0.892780638,0,0.892780638,0,TRUE,,,,,,,,,,,,,14,A,2023-09-11_10h38.46.503,exp3,2022.2.2
low_opac_v,0.4,1,0.01,3,0.82,3.5,0.01,0,0.01,4,5,Valid,0,45,132,start,lin,1,1,1,1,TRUE,,,,,,,,,,,,,14,A,2023-09-11_10h38.46.503,exp3,2022.2.2
high_opac_v,0.01,1,0.01,3,0.82,3.5,0.01,0,0.01,4,5,Valid,1,45,133,start,lin,1,1,1,0,TRUE,,,,,,,,,,,,,14,A,2023-09-11_10h38.46.503,exp3,2022.2.2
low_opac_i,0.4,1,0.01,3,0.82,3.5,0.01,0,0.01,4,5,Invalid,2,45,134,start,lin,0.906015567,0,0.906015567,1,TRUE,,,,,,,,,,,,,14,A,2023-09-11_10h38.46.503,exp3,2022.2.2
high_opac_v,0.01,1,0.01,3,0.82,3.5,0.01,0,0.01,4,5,Valid,1,46,135,start,lin,1,0,1,0,TRUE,,,,,,,,,,,,,14,A,2023-09-11_10h38.46.503,exp3,2022.2.2
low_opac_i,0.4,1,0.01,3,0.82,3.5,0.01,0,0.01,4,5,Invalid,2,46,136,start,lin,0.902813286,0,0.902813286,1,TRUE,,,,,,,,,,,,,14,A,2023-09-11_10h38.46.503,exp3,2022.2.2
low_opac_v,0.4,1,0.01,3,0.82,3.5,0.01,0,0.01,4,5,Valid,0,46,137,start,lin,1,1,1,0,TRUE,,,,,,,,,,,,,14,A,2023-09-11_10h38.46.503,exp3,2022.2.2
low_opac_i,0.4,1,0.01,3,0.82,3.5,0.01,0,0.01,4,5,Invalid,2,47,138,start,lin,0.899540902,0.899540902,0.899540902,0,TRUE,,,,,,,,,,,,,14,A,2023-09-11_10h38.46.503,exp3,2022.2.2
low_opac_v,0.4,1,0.01,3,0.82,3.5,0.01,0,0.01,4,5,Valid,0,47,139,start,lin,1,1,1,0,TRUE,,,,,,,,,,,,,14,A,2023-09-11_10h38.46.503,exp3,2022.2.2
high_opac_v,0.01,1,0.01,3,0.82,3.5,0.01,0,0.01,4,5,Valid,1,47,140,start,lin,1,0,1,0,TRUE,,,,,,,,,,,,,14,A,2023-09-11_10h38.46.503,exp3,2022.2.2
low_opac_v,0.4,1,0.01,3,0.82,3.5,0.01,0,0.01,4,5,Valid,0,48,141,start,lin,1,1,1,0,TRUE,,,,,,,,,,,,,14,A,2023-09-11_10h38.46.503,exp3,2022.2.2
high_opac_v,0.01,1,0.01,3,0.82,3.5,0.01,0,0.01,4,5,Valid,1,48,142,start,lin,1,1,1,0,TRUE,,,,,,,,,,,,,14,A,2023-09-11_10h38.46.503,exp3,2022.2.2
low_opac_i,0.4,1,0.01,3,0.82,3.5,0.01,0,0.01,4,5,Invalid,2,48,143,start,lin,0.911822071,0,0.911822071,0,TRUE,,,,,,,,,,,,,14,A,2023-09-11_10h38.46.503,exp3,2022.2.2
high_opac_v,0.01,1,0.01,3,0.82,3.5,0.01,0,0.01,4,5,Valid,1,49,144,start,lin,1,0,1,0,TRUE,,,,,,,,,,,,,14,A,2023-09-11_10h38.46.503,exp3,2022.2.2
low_opac_i,0.4,1,0.01,3,0.82,3.5,0.01,0,0.01,4,5,Invalid,2,49,145,start,lin,0.923780603,0.923780603,0.923780603,0,TRUE,,,,,,,,,,,,,14,A,2023-09-11_10h38.46.503,exp3,2022.2.2
low_opac_v,0.4,1,0.01,3,0.82,3.5,0.01,0,0.01,4,5,Valid,0,49,146,start,lin,1,1,1,0,TRUE,,,,,,,,,,,,,14,A,2023-09-11_10h38.46.503,exp3,2022.2.2
high_opac_v,0.01,1,0.01,3,0.82,3.5,0.01,0,0.01,4,5,Valid,1,50,147,start,lin,1,1,1,0,TRUE,,,,,,,,,,,,,14,A,2023-09-11_10h38.46.503,exp3,2022.2.2
low_opac_v,0.4,1,0.01,3,0.82,3.5,0.01,0,0.01,4,5,Valid,0,50,148,start,lin,1,0,1,0,TRUE,,,,,,,,,,,,,14,A,2023-09-11_10h38.46.503,exp3,2022.2.2
low_opac_i,0.4,1,0.01,3,0.82,3.5,0.01,0,0.01,4,5,Invalid,2,50,149,start,lin,0.935477809,0.935477809,0.935477809,1,TRUE,,,,,,,,,,,,,14,A,2023-09-11_10h38.46.503,exp3,2022.2.2
low_opac_i,0.4,1,0.01,3,0.82,3.5,0.01,0,0.01,4,5,Invalid,2,51,150,start,lin,0.932653426,0,0.932653426,0,TRUE,,,,,,,,,,,,,14,A,2023-09-11_10h38.46.503,exp3,2022.2.2
high_opac_v,0.01,1,0.01,3,0.82,3.5,0.01,0,0.01,4,5,Valid,1,51,151,start,lin,1,0,1,0,TRUE,,,,,,,,,,,,,14,A,2023-09-11_10h38.46.503,exp3,2022.2.2
low_opac_v,0.4,1,0.01,3,0.82,3.5,0.01,0,0.01,4,5,Valid,0,51,152,start,lin,1,1,1,0,TRUE,,,,,,,,,,,,,14,A,2023-09-11_10h38.46.503,exp3,2022.2.2
low_opac_v,0.4,1,0.01,3,0.82,3.5,0.01,0,0.01,4,5,Valid,0,52,153,start,lin,1,0,1,0,TRUE,,,,,,,,,,,,,14,A,2023-09-11_10h38.46.503,exp3,2022.2.2
high_opac_v,0.01,1,0.01,3,0.82,3.5,0.01,0,0.01,4,5,Valid,1,52,154,start,lin,1,1,1,0,TRUE,,,,,,,,,,,,,14,A,2023-09-11_10h38.46.503,exp3,2022.2.2
low_opac_i,0.4,1,0.01,3,0.82,3.5,0.01,0,0.01,4,5,Invalid,2,52,155,start,lin,0.943887855,0,0.943887855,0,TRUE,,,,,,,,,,,,,14,A,2023-09-11_10h38.46.503,exp3,2022.2.2
high_opac_v,0.01,1,0.01,3,0.82,3.5,0.01,0,0.01,4,5,Valid,1,53,156,start,lin,1,0,1,1,TRUE,,,,,,,,,,,,,14,A,2023-09-11_10h38.46.503,exp3,2022.2.2
low_opac_v,0.4,1,0.01,3,0.82,3.5,0.01,0,0.01,4,5,Valid,0,53,157,start,lin,1,1,1,0,TRUE,,,,,,,,,,,,,14,A,2023-09-11_10h38.46.503,exp3,2022.2.2
low_opac_i,0.4,1,0.01,3,0.82,3.5,0.01,0,0.01,4,5,Invalid,2,53,158,start,lin,0.954945977,0.954945977,0.954945977,0,TRUE,,,,,,,,,,,,,14,A,2023-09-11_10h38.46.503,exp3,2022.2.2
low_opac_i,0.4,1,0.01,3,0.82,3.5,0.01,0,0.01,4,5,Invalid,2,54,159,start,lin,0.965858272,0.965858272,0.965858272,0,TRUE,,,,,,,,,,,,,14,A,2023-09-11_10h38.46.503,exp3,2022.2.2
low_opac_v,0.4,1,0.01,3,0.82,3.5,0.01,0,0.01,4,5,Valid,0,54,160,start,lin,1,1,1,0,TRUE,,,,,,,,,,,,,14,A,2023-09-11_10h38.46.503,exp3,2022.2.2
high_opac_v,0.01,1,0.01,3,0.82,3.5,0.01,0,0.01,4,5,Valid,1,54,161,start,lin,1,0,1,0,TRUE,,,,,,,,,,,,,14,A,2023-09-11_10h38.46.503,exp3,2022.2.2
low_opac_v,0.4,1,0.01,3,0.82,3.5,0.01,0,0.01,4,5,Valid,0,55,162,start,lin,1,0,1,0,TRUE,,,,,,,,,,,,,14,A,2023-09-11_10h38.46.503,exp3,2022.2.2
low_opac_i,0.4,1,0.01,3,0.82,3.5,0.01,0,0.01,4,5,Invalid,2,55,163,start,lin,0.9774339,0,0.9774339,0,TRUE,,,,,,,,,,,,,14,A,2023-09-11_10h38.46.503,exp3,2022.2.2
high_opac_v,0.01,1,0.01,3,0.82,3.5,0.01,0,0.01,4,5,Valid,1,55,164,start,lin,1,1,1,0,TRUE,,,,,,,,,,,,,14,A,2023-09-11_10h38.46.503,exp3,2022.2.2
high_opac_v,0.01,1,0.01,3,0.82,3.5,0.01,0,0.01,4,5,Valid,1,56,165,start,lin,1,0,1,0,TRUE,,,,,,,,,,,,,14,A,2023-09-11_10h38.46.503,exp3,2022.2.2
low_opac_v,0.4,1,0.01,3,0.82,3.5,0.01,0,0.01,4,5,Valid,0,56,166,start,lin,1,0,1,0,TRUE,,,,,,,,,,,,,14,A,2023-09-11_10h38.46.503,exp3,2022.2.2
low_opac_i,0.4,1,0.01,3,0.82,3.5,0.01,0,0.01,4,5,Invalid,2,56,167,start,lin,0.988855081,0.988855081,0.988855081,0,TRUE,,,,,,,,,,,,,14,A,2023-09-11_10h38.46.503,exp3,2022.2.2
low_opac_i,0.4,1,0.01,3,0.82,3.5,0.01,0,0.01,4,5,Invalid,2,57,168,start,lin,1,1,1,0,TRUE,,,,,,,,,,,,,14,A,2023-09-11_10h38.46.503,exp3,2022.2.2
high_opac_v,0.01,1,0.01,3,0.82,3.5,0.01,0,0.01,4,5,Valid,1,57,169,start,lin,1,1,1,0,TRUE,,,,,,,,,,,,,14,A,2023-09-11_10h38.46.503,exp3,2022.2.2
low_opac_v,0.4,1,0.01,3,0.82,3.5,0.01,0,0.01,4,5,Valid,0,57,170,start,lin,1,0,1,0,TRUE,,,,,,,,,,,,,14,A,2023-09-11_10h38.46.503,exp3,2022.2.2
low_opac_i,0.4,1,0.01,3,0.82,3.5,0.01,0,0.01,4,5,Invalid,2,58,171,start,lin,1,1,1,0,TRUE,,,,,,,,,,,,,14,A,2023-09-11_10h38.46.503,exp3,2022.2.2
low_opac_v,0.4,1,0.01,3,0.82,3.5,0.01,0,0.01,4,5,Valid,0,58,172,start,lin,1,1,1,0,TRUE,,,,,,,,,,,,,14,A,2023-09-11_10h38.46.503,exp3,2022.2.2
high_opac_v,0.01,1,0.01,3,0.82,3.5,0.01,0,0.01,4,5,Valid,1,58,173,start,lin,1,1,1,0,TRUE,,,,,,,,,,,,,14,A,2023-09-11_10h38.46.503,exp3,2022.2.2
low_opac_i,0.4,1,0.01,3,0.82,3.5,0.01,0,0.01,4,5,Invalid,2,59,174,start,lin,1,1,1,1,TRUE,,,,,,,,,,,,,14,A,2023-09-11_10h38.46.503,exp3,2022.2.2
low_opac_v,0.4,1,0.01,3,0.82,3.5,0.01,0,0.01,4,5,Valid,0,59,175,start,lin,1,0,1,0,TRUE,,,,,,,,,,,,,14,A,2023-09-11_10h38.46.503,exp3,2022.2.2
high_opac_v,0.01,1,0.01,3,0.82,3.5,0.01,0,0.01,4,5,Valid,1,59,176,start,lin,1,0,1,0,TRUE,,,,,,,,,,,,,14,A,2023-09-11_10h38.46.503,exp3,2022.2.2
low_opac_v,0.4,1,0.01,3,0.82,3.5,0.01,0,0.01,4,5,Valid,0,60,177,start,lin,1,0,1,0,TRUE,,,,,,,,,,,,,14,A,2023-09-11_10h38.46.503,exp3,2022.2.2
high_opac_v,0.01,1,0.01,3,0.82,3.5,0.01,0,0.01,4,5,Valid,1,60,178,start,lin,1,0,1,0,TRUE,,,,,,,,,,,,,14,A,2023-09-11_10h38.46.503,exp3,2022.2.2
low_opac_i,0.4,1,0.01,3,0.82,3.5,0.01,0,0.01,4,5,Invalid,2,60,179,start,lin,1,1,1,0,TRUE,,,,,,,,,,,,,14,A,2023-09-11_10h38.46.503,exp3,2022.2.2
low_opac_i,0.4,1,0.01,3,0.82,3.5,0.01,0,0.01,4,5,Invalid,2,61,180,start,lin,1,1,1,0,TRUE,,,,,,,,,,,,,14,A,2023-09-11_10h38.46.503,exp3,2022.2.2
low_opac_v,0.4,1,0.01,3,0.82,3.5,0.01,0,0.01,4,5,Valid,0,61,181,start,lin,1,0,1,0,TRUE,,,,,,,,,,,,,14,A,2023-09-11_10h38.46.503,exp3,2022.2.2
high_opac_v,0.01,1,0.01,3,0.82,3.5,0.01,0,0.01,4,5,Valid,1,61,182,start,lin,1,0,1,0,TRUE,,,,,,,,,,,,,14,A,2023-09-11_10h38.46.503,exp3,2022.2.2
low_opac_v,0.4,1,0.01,3,0.82,3.5,0.01,0,0.01,4,5,Valid,0,62,183,start,lin,1,0,1,0,TRUE,,,,,,,,,,,,,14,A,2023-09-11_10h38.46.503,exp3,2022.2.2
low_opac_i,0.4,1,0.01,3,0.82,3.5,0.01,0,0.01,4,5,Invalid,2,62,184,start,lin,1,0,1,0,TRUE,,,,,,,,,,,,,14,A,2023-09-11_10h38.46.503,exp3,2022.2.2
high_opac_v,0.01,1,0.01,3,0.82,3.5,0.01,0,0.01,4,5,Valid,1,62,185,start,lin,1,0,1,0,TRUE,,,,,,,,,,,,,14,A,2023-09-11_10h38.46.503,exp3,2022.2.2
low_opac_i,0.4,1,0.01,3,0.82,3.5,0.01,0,0.01,4,5,Invalid,2,63,186,start,lin,1,0,1,0,TRUE,,,,,,,,,,,,,14,A,2023-09-11_10h38.46.503,exp3,2022.2.2
low_opac_v,0.4,1,0.01,3,0.82,3.5,0.01,0,0.01,4,5,Valid,0,63,187,start,lin,1,1,1,0,TRUE,,,,,,,,,,,,,14,A,2023-09-11_10h38.46.503,exp3,2022.2.2
high_opac_v,0.01,1,0.01,3,0.82,3.5,0.01,0,0.01,4,5,Valid,1,63,188,start,lin,1,1,1,0,TRUE,,,,,,,,,,,,,14,A,2023-09-11_10h38.46.503,exp3,2022.2.2
low_opac_v,0.4,1,0.01,3,0.82,3.5,0.01,0,0.01,4,5,Valid,0,64,189,start,lin,1,0,1,0,TRUE,,,,,,,,,,,,,14,A,2023-09-11_10h38.46.503,exp3,2022.2.2
low_opac_i,0.4,1,0.01,3,0.82,3.5,0.01,0,0.01,4,5,Invalid,2,64,190,start,lin,1,1,1,0,TRUE,,,,,,,,,,,,,14,A,2023-09-11_10h38.46.503,exp3,2022.2.2
high_opac_v,0.01,1,0.01,3,0.82,3.5,0.01,0,0.01,4,5,Valid,1,64,191,start,lin,1,0,1,0,TRUE,,,,,,,,,,,,,14,A,2023-09-11_10h38.46.503,exp3,2022.2.2
low_opac_v,0.4,1,0.01,3,0.82,3.5,0.01,0,0.01,4,5,Valid,0,65,192,start,lin,1,1,1,0,TRUE,,,,,,,,,,,,,14,A,2023-09-11_10h38.46.503,exp3,2022.2.2
low_opac_i,0.4,1,0.01,3,0.82,3.5,0.01,0,0.01,4,5,Invalid,2,65,193,start,lin,1,0,1,0,TRUE,,,,,,,,,,,,,14,A,2023-09-11_10h38.46.503,exp3,2022.2.2
high_opac_v,0.01,1,0.01,3,0.82,3.5,0.01,0,0.01,4,5,Valid,1,65,194,start,lin,1,0,1,0,TRUE,,,,,,,,,,,,,14,A,2023-09-11_10h38.46.503,exp3,2022.2.2
low_opac_v,0.4,1,0.01,3,0.82,3.5,0.01,0,0.01,4,5,Valid,0,66,195,start,lin,1,1,1,0,TRUE,,,,,,,,,,,,,14,A,2023-09-11_10h38.46.503,exp3,2022.2.2
high_opac_v,0.01,1,0.01,3,0.82,3.5,0.01,0,0.01,4,5,Valid,1,66,196,start,lin,1,0,1,0,TRUE,,,,,,,,,,,,,14,A,2023-09-11_10h38.46.503,exp3,2022.2.2
low_opac_i,0.4,1,0.01,3,0.82,3.5,0.01,0,0.01,4,5,Invalid,2,66,197,start,lin,1,0,1,0,TRUE,,,,,,,,,,,,,14,A,2023-09-11_10h38.46.503,exp3,2022.2.2
low_opac_i,0.4,1,0.01,3,0.82,3.5,0.01,0,0.01,4,5,Invalid,2,67,198,start,lin,1,0,1,0,TRUE,,,,,,,,,,,,,14,A,2023-09-11_10h38.46.503,exp3,2022.2.2
high_opac_v,0.01,1,0.01,3,0.82,3.5,0.01,0,0.01,4,5,Valid,1,67,199,start,lin,1,0,1,0,TRUE,,,,,,,,,,,,,14,A,2023-09-11_10h38.46.503,exp3,2022.2.2
low_opac_v,0.4,1,0.01,3,0.82,3.5,0.01,0,0.01,4,5,Valid,0,67,200,start,lin,1,1,1,0,TRUE,,,,,,,,,,,,,14,A,2023-09-11_10h38.46.503,exp3,2022.2.2
high_opac_v,0.01,1,0.01,3,0.82,3.5,0.01,0,0.01,4,5,Valid,1,68,201,start,lin,1,1,1,0,TRUE,,,,,,,,,,,,,14,A,2023-09-11_10h38.46.503,exp3,2022.2.2
low_opac_i,0.4,1,0.01,3,0.82,3.5,0.01,0,0.01,4,5,Invalid,2,68,202,start,lin,1,1,1,0,TRUE,,,,,,,,,,,,,14,A,2023-09-11_10h38.46.503,exp3,2022.2.2
low_opac_v,0.4,1,0.01,3,0.82,3.5,0.01,0,0.01,4,5,Valid,0,68,203,start,lin,1,0,1,0,TRUE,,,,,,,,,,,,,14,A,2023-09-11_10h38.46.503,exp3,2022.2.2
high_opac_v,0.01,1,0.01,3,0.82,3.5,0.01,0,0.01,4,5,Valid,1,69,204,start,lin,1,1,1,0,TRUE,,,,,,,,,,,,,14,A,2023-09-11_10h38.46.503,exp3,2022.2.2
low_opac_i,0.4,1,0.01,3,0.82,3.5,0.01,0,0.01,4,5,Invalid,2,69,205,start,lin,1,0,1,0,TRUE,,,,,,,,,,,,,14,A,2023-09-11_10h38.46.503,exp3,2022.2.2
low_opac_v,0.4,1,0.01,3,0.82,3.5,0.01,0,0.01,4,5,Valid,0,69,206,start,lin,1,0,1,0,TRUE,,,,,,,,,,,,,14,A,2023-09-11_10h38.46.503,exp3,2022.2.2
low_opac_v,0.4,1,0.01,3,0.82,3.5,0.01,0,0.01,4,5,Valid,0,70,207,start,lin,1,0,1,0,TRUE,,,,,,,,,,,,,14,A,2023-09-11_10h38.46.503,exp3,2022.2.2
high_opac_v,0.01,1,0.01,3,0.82,3.5,0.01,0,0.01,4,5,Valid,1,70,208,start,lin,1,1,1,0,TRUE,,,,,,,,,,,,,14,A,2023-09-11_10h38.46.503,exp3,2022.2.2
low_opac_i,0.4,1,0.01,3,0.82,3.5,0.01,0,0.01,4,5,Invalid,2,70,209,start,lin,1,0,1,0,TRUE,,,,,,,,,,,,,14,A,2023-09-11_10h38.46.503,exp3,2022.2.2
low_opac_v,0.4,1,0.01,3,0.82,3.5,0.01,0,0.01,4,5,Valid,0,71,210,start,lin,1,0,1,0,TRUE,,,,,,,,,,,,,14,A,2023-09-11_10h38.46.503,exp3,2022.2.2
high_opac_v,0.01,1,0.01,3,0.82,3.5,0.01,0,0.01,4,5,Valid,1,71,211,start,lin,1,0,1,0,TRUE,,,,,,,,,,,,,14,A,2023-09-11_10h38.46.503,exp3,2022.2.2
low_opac_i,0.4,1,0.01,3,0.82,3.5,0.01,0,0.01,4,5,Invalid,2,71,212,start,lin,1,0,1,0,TRUE,,,,,,,,,,,,,14,A,2023-09-11_10h38.46.503,exp3,2022.2.2
high_opac_v,0.01,1,0.01,3,0.82,3.5,0.01,0,0.01,4,5,Valid,1,72,213,start,lin,1,0,1,0,TRUE,,,,,,,,,,,,,14,A,2023-09-11_10h38.46.503,exp3,2022.2.2
low_opac_i,0.4,1,0.01,3,0.82,3.5,0.01,0,0.01,4,5,Invalid,2,72,214,start,lin,1,1,1,0,TRUE,,,,,,,,,,,,,14,A,2023-09-11_10h38.46.503,exp3,2022.2.2
low_opac_v,0.4,1,0.01,3,0.82,3.5,0.01,0,0.01,4,5,Valid,0,72,215,start,lin,1,1,1,0,TRUE,,,,,,,,,,,,,14,A,2023-09-11_10h38.46.503,exp3,2022.2.2
high_opac_v,0.01,1,0.01,3,0.82,3.5,0.01,0,0.01,4,5,Valid,1,73,216,start,lin,1,1,1,0,TRUE,,,,,,,,,,,,,14,A,2023-09-11_10h38.46.503,exp3,2022.2.2
low_opac_i,0.4,1,0.01,3,0.82,3.5,0.01,0,0.01,4,5,Invalid,2,73,217,start,lin,1,1,1,0,TRUE,,,,,,,,,,,,,14,A,2023-09-11_10h38.46.503,exp3,2022.2.2
low_opac_v,0.4,1,0.01,3,0.82,3.5,0.01,0,0.01,4,5,Valid,0,73,218,start,lin,1,1,1,0,TRUE,,,,,,,,,,,,,14,A,2023-09-11_10h38.46.503,exp3,2022.2.2
low_opac_v,0.4,1,0.01,3,0.82,3.5,0.01,0,0.01,4,5,Valid,0,74,219,start,lin,1,1,1,0,TRUE,,,,,,,,,,,,,14,A,2023-09-11_10h38.46.503,exp3,2022.2.2
low_opac_i,0.4,1,0.01,3,0.82,3.5,0.01,0,0.01,4,5,Invalid,2,74,220,start,lin,1,1,1,0,TRUE,,,,,,,,,,,,,14,A,2023-09-11_10h38.46.503,exp3,2022.2.2
high_opac_v,0.01,1,0.01,3,0.82,3.5,0.01,0,0.01,4,5,Valid,1,74,221,start,lin,1,1,1,0,TRUE,,,,,,,,,,,,,14,A,2023-09-11_10h38.46.503,exp3,2022.2.2
low_opac_v,0.4,1,0.01,3,0.82,3.5,0.01,0,0.01,4,5,Valid,0,75,222,start,lin,1,1,1,0,TRUE,,,,,,,,,,,,,14,A,2023-09-11_10h38.46.503,exp3,2022.2.2
high_opac_v,0.01,1,0.01,3,0.82,3.5,0.01,0,0.01,4,5,Valid,1,75,223,start,lin,1,1,1,1,TRUE,,,,,,,,,,,,,14,A,2023-09-11_10h38.46.503,exp3,2022.2.2
low_opac_i,0.4,1,0.01,3,0.82,3.5,0.01,0,0.01,4,5,Invalid,2,75,224,start,lin,1,0,1,0,TRUE,,,,,,,,,,,,,14,A,2023-09-11_10h38.46.503,exp3,2022.2.2
,,,,,,,,,,,,,,,,,,,,,,,0,1158,Valid,noise,0,1,1219.27043,0,2,110.8036566,1,TRUE,14,A,2023-09-11_10h38.46.503,exp3,2022.2.2
,,,,,,,,,,,,,,,,,,,,,,,0,-1158,Invalid,signal,0,2,1408.886051,0,2,85.5283434,2,TRUE,14,A,2023-09-11_10h38.46.503,exp3,2022.2.2
,,,,,,,,,,,,,,,,,,,,,,,0,1158,Invalid,noise,0,1,1416.790678,0,2,4.4461627,1,TRUE,14,A,2023-09-11_10h38.46.503,exp3,2022.2.2
,,,,,,,,,,,,,,,,,,,,,,,0,1716,Valid,noise,0,1,1424.502778,0,2,5.8815801,1,TRUE,14,A,2023-09-11_10h38.46.503,exp3,2022.2.2
,,,,,,,,,,,,,,,,,,,,,,,0,557,Valid,signal,0,2,1428.902212,0,3,5.2636509,1,TRUE,14,A,2023-09-11_10h38.46.503,exp3,2022.2.2
,,,,,,,,,,,,,,,,,,,,,,,0,1716,Valid,noise,0,1,1435.638997,0,2,3.1124936,1,TRUE,14,A,2023-09-11_10h38.46.503,exp3,2022.2.2
,,,,,,,,,,,,,,,,,,,,,,,0,-1158,Valid,signal,0,2,1439.285873,0,2,3.4127665,1,TRUE,14,A,2023-09-11_10h38.46.503,exp3,2022.2.2
,,,,,,,,,,,,,,,,,,,,,,,0,1716,Valid,noise,0,1,1445.015022,0,3,4.5473821,1,TRUE,14,A,2023-09-11_10h38.46.503,exp3,2022.2.2
,,,,,,,,,,,,,,,,,,,,,,,0,1716,Valid,noise,0,1,1450.758784,0,2,4.3296003,1,TRUE,14,A,2023-09-11_10h38.46.503,exp3,2022.2.2
,,,,,,,,,,,,,,,,,,,,,,,0,-1158,Valid,noise,0,1,1456.839073,0,2,5.263456,1,TRUE,14,A,2023-09-11_10h38.46.503,exp3,2022.2.2
,,,,,,,,,,,,,,,,,,,,,,,0,-1158,Valid,noise,0,1,1462.438034,0,2,4.8968378,1,TRUE,14,A,2023-09-11_10h38.46.503,exp3,2022.2.2
,,,,,,,,,,,,,,,,,,,,,,,0,-1716,Invalid,noise,0,2,1467.351034,1,2,3.4471934,1,TRUE,14,A,2023-09-11_10h38.46.503,exp3,2022.2.2
,,,,,,,,,,,,,,,,,,,,,,,0,1716,Invalid,noise,0,1,1473.525973,0,2,5.0300391,1,TRUE,14,A,2023-09-11_10h38.46.503,exp3,2022.2.2
,,,,,,,,,,,,,,,,,,,,,,,0,-1158,Valid,noise,0,2,1480.279063,1,3,6.2971519,1,TRUE,14,A,2023-09-11_10h38.46.503,exp3,2022.2.2
,,,,,,,,,,,,,,,,,,,,,,,0,2274,Valid,noise,0,1,1487.189935,0,1,6.3643263,1,TRUE,14,A,2023-09-11_10h38.46.503,exp3,2022.2.2
,,,,,,,,,,,,,,,,,,,,,,,0,557,Valid,signal,0,2,1492.581807,0,2,3.4966178,1,TRUE,14,A,2023-09-11_10h38.46.503,exp3,2022.2.2
,,,,,,,,,,,,,,,,,,,,,,,0,-557,Invalid,signal,0,1,1499.222191,1,2,5.3805401,1,TRUE,14,A,2023-09-11_10h38.46.503,exp3,2022.2.2
,,,,,,,,,,,,,,,,,,,,,,,0,-1716,Valid,noise,0,2,1504.038323,1,2,4.1799535,1,TRUE,14,A,2023-09-11_10h38.46.503,exp3,2022.2.2
,,,,,,,,,,,,,,,,,,,,,,,0,1716,Valid,signal,0,1,1510.199,1,3,5.3970631,1,TRUE,14,A,2023-09-11_10h38.46.503,exp3,2022.2.2
,,,,,,,,,,,,,,,,,,,,,,,0,1158,Valid,noise,0,2,1515.398441,1,2,3.7468731,1,TRUE,14,A,2023-09-11_10h38.46.503,exp3,2022.2.2
,,,,,,,,,,,,,,,,,,,,,,,0,557,Valid,noise,0,2,1519.959029,1,3,3.8129586,1,TRUE,14,A,2023-09-11_10h38.46.503,exp3,2022.2.2
,,,,,,,,,,,,,,,,,,,,,,,0,-1158,Valid,signal,0,2,1525.078877,0,2,4.0464877,1,TRUE,14,A,2023-09-11_10h38.46.503,exp3,2022.2.2
,,,,,,,,,,,,,,,,,,,,,,,0,2274,Valid,noise,0,2,1531.62229,1,1,5.814272,1,TRUE,14,A,2023-09-11_10h38.46.503,exp3,2022.2.2
,,,,,,,,,,,,,,,,,,,,,,,0,1158,Valid,noise,0,2,1536.359107,1,2,3.0298774,1,TRUE,14,A,2023-09-11_10h38.46.503,exp3,2022.2.2
,,,,,,,,,,,,,,,,,,,,,,,0,-557,Valid,signal,0,1,1542.166435,1,2,4.7633202,1,TRUE,14,A,2023-09-11_10h38.46.503,exp3,2022.2.2
,,,,,,,,,,,,,,,,,,,,,,,0,557,Valid,signal,0,2,1546.13441,0,2,4.5301767,1,TRUE,14,A,2023-09-11_10h38.46.503,exp3,2022.2.2
,,,,,,,,,,,,,,,,,,,,,,,0,-2274,Valid,noise,0,1,1552.407013,0,1,3.9299513,1,TRUE,14,A,2023-09-11_10h38.46.503,exp3,2022.2.2
,,,,,,,,,,,,,,,,,,,,,,,0,1716,Valid,signal,0,2,1558.406235,0,1,5.3636212,1,TRUE,14,A,2023-09-11_10h38.46.503,exp3,2022.2.2
,,,,,,,,,,,,,,,,,,,,,,,0,-1158,Invalid,noise,0,2,1564.102005,1,2,5.146833,1,TRUE,14,A,2023-09-11_10h38.46.503,exp3,2022.2.2
,,,,,,,,,,,,,,,,,,,,,,,0,1158,Valid,signal,0,2,1570.422536,0,2,4.5796035,1,TRUE,14,A,2023-09-11_10h38.46.503,exp3,2022.2.2
,,,,,,,,,,,,,,,,,,,,,,,0,2274,Valid,noise,0,2,1574.966673,1,1,4.3969599,1,TRUE,14,A,2023-09-11_10h38.46.503,exp3,2022.2.2
,,,,,,,,,,,,,,,,,,,,,,,0,1716,Invalid,signal,0,1,1583.478104,1,2,6.7981827,1,TRUE,14,A,2023-09-11_10h38.46.503,exp3,2022.2.2
,,,,,,,,,,,,,,,,,,,,,,,0,1716,Valid,noise,0,2,1588.77382,1,2,4.1135987,1,TRUE,14,A,2023-09-11_10h38.46.503,exp3,2022.2.2
,,,,,,,,,,,,,,,,,,,,,,,0,-1716,Invalid,noise,0,1,1594.6306,0,2,5.2634068,1,TRUE,14,A,2023-09-11_10h38.46.503,exp3,2022.2.2
,,,,,,,,,,,,,,,,,,,,,,,0,-1716,Valid,signal,0,1,1599.975143,1,2,3.8138108,1,TRUE,14,A,2023-09-11_10h38.46.503,exp3,2022.2.2
,,,,,,,,,,,,,,,,,,,,,,,0,1158,Valid,noise,0,2,1604.021893,1,2,3.1627457,1,TRUE,14,A,2023-09-11_10h38.46.503,exp3,2022.2.2
,,,,,,,,,,,,,,,,,,,,,,,0,1158,Valid,noise,0,1,1609.02982,0,2,3.8798993,1,TRUE,14,A,2023-09-11_10h38.46.503,exp3,2022.2.2
,,,,,,,,,,,,,,,,,,,,,,,0,2274,Valid,signal,0,1,1613.142213,1,1,3.2463001,1,TRUE,14,A,2023-09-11_10h38.46.503,exp3,2022.2.2
,,,,,,,,,,,,,,,,,,,,,,,0,557,Invalid,signal,0,1,1619.19043,1,2,5.9475012,1,TRUE,14,A,2023-09-11_10h38.46.503,exp3,2022.2.2
,,,,,,,,,,,,,,,,,,,,,,,0,-2274,Valid,noise,0,2,1624.614147,1,2,3.5628979,1,TRUE,14,A,2023-09-11_10h38.46.503,exp3,2022.2.2
,,,,,,,,,,,,,,,,,,,,,,,0,-1158,Valid,noise,0,1,1632.629901,0,2,6.8976032,1,TRUE,14,A,2023-09-11_10h38.46.503,exp3,2022.2.2
,,,,,,,,,,,,,,,,,,,,,,,0,557,Valid,noise,0,2,1636.725702,1,2,3.0961189,1,TRUE,14,A,2023-09-11_10h38.46.503,exp3,2022.2.2
,,,,,,,,,,,,,,,,,,,,,,,0,1716,Valid,signal,0,2,1642.230099,0,2,4.3136187,1,TRUE,14,A,2023-09-11_10h38.46.503,exp3,2022.2.2
,,,,,,,,,,,,,,,,,,,,,,,0,-557,Valid,signal,0,1,1646.037746,1,2,3.2128285,1,TRUE,14,A,2023-09-11_10h38.46.503,exp3,2022.2.2
,,,,,,,,,,,,,,,,,,,,,,,0,557,Valid,signal,0,2,1652.390403,0,2,5.1139584,1,TRUE,14,A,2023-09-11_10h38.46.503,exp3,2022.2.2
,,,,,,,,,,,,,,,,,,,,,,,0,-2274,Valid,signal,0,1,1662.070322,1,2,9.0811198,1,TRUE,14,A,2023-09-11_10h38.46.503,exp3,2022.2.2
,,,,,,,,,,,,,,,,,,,,,,,0,1158,Valid,signal,0,1,1668.694094,1,2,6.8815009,1,TRUE,14,A,2023-09-11_10h38.46.503,exp3,2022.2.2
,,,,,,,,,,,,,,,,,,,,,,,0,1716,Valid,signal,0,2,1675.190108,0,2,3.7460422,1,TRUE,14,A,2023-09-11_10h38.46.503,exp3,2022.2.2
,,,,,,,,,,,,,,,,,,,,,,,0,-1158,Valid,signal,0,1,1681.239157,1,2,5.0310654,1,TRUE,14,A,2023-09-11_10h38.46.503,exp3,2022.2.2
,,,,,,,,,,,,,,,,,,,,,,,0,1716,Valid,noise,0,1,1685.559011,0,2,3.3292847,1,TRUE,14,A,2023-09-11_10h38.46.503,exp3,2022.2.2
,,,,,,,,,,,,,,,,,,,,,,,0,2274,Valid,noise,0,2,1690.149828,1,1,5.5971124,1,TRUE,14,A,2023-09-11_10h38.46.503,exp3,2022.2.2
,,,,,,,,,,,,,,,,,,,,,,,0,-557,Valid,signal,0,2,1696.711088,0,2,3.9298372,1,TRUE,14,A,2023-09-11_10h38.46.503,exp3,2022.2.2
,,,,,,,,,,,,,,,,,,,,,,,0,-2274,Valid,signal,0,2,1705.078664,0,1,7.064348,1,TRUE,14,A,2023-09-11_10h38.46.503,exp3,2022.2.2
,,,,,,,,,,,,,,,,,,,,,,,0,2274,Valid,signal,0,2,1709.04622,0,1,3.1460445,1,TRUE,14,A,2023-09-11_10h38.46.503,exp3,2022.2.2
,,,,,,,,,,,,,,,,,,,,,,,0,557,Valid,signal,0,2,1713.334515,0,2,3.4796757,1,TRUE,14,A,2023-09-11_10h38.46.503,exp3,2022.2.2
,,,,,,,,,,,,,,,,,,,,,,,0,557,Invalid,noise,0,1,1718.885755,0,3,4.6638783,1,TRUE,14,A,2023-09-11_10h38.46.503,exp3,2022.2.2
,,,,,,,,,,,,,,,,,,,,,,,0,-2274,Valid,signal,0,2,1726.742122,0,2,6.5143082,1,TRUE,14,A,2023-09-11_10h38.46.503,exp3,2022.2.2
,,,,,,,,,,,,,,,,,,,,,,,0,-1158,Valid,signal,0,2,1731.542507,0,1,4.7805414,1,TRUE,14,A,2023-09-11_10h38.46.503,exp3,2022.2.2
,,,,,,,,,,,,,,,,,,,,,,,0,1716,Valid,signal,0,2,1737.478141,0,2,3.7960811,1,TRUE,14,A,2023-09-11_10h38.46.503,exp3,2022.2.2
,,,,,,,,,,,,,,,,,,,,,,,0,1716,Valid,signal,0,2,1745.702972,0,2,7.2314768,1,TRUE,14,A,2023-09-11_10h38.46.503,exp3,2022.2.2
,,,,,,,,,,,,,,,,,,,,,,,0,-557,Invalid,noise,0,1,1750.454337,0,2,3.9966077,1,TRUE,14,A,2023-09-11_10h38.46.503,exp3,2022.2.2
,,,,,,,,,,,,,,,,,,,,,,,0,557,Valid,noise,0,2,1755.381787,1,2,3.6126095,1,TRUE,14,A,2023-09-11_10h38.46.503,exp3,2022.2.2
,,,,,,,,,,,,,,,,,,,,,,,0,-2274,Valid,noise,0,1,1760.470476,0,1,4.3968703,1,TRUE,14,A,2023-09-11_10h38.46.503,exp3,2022.2.2
,,,,,,,,,,,,,,,,,,,,,,,0,2274,Valid,signal,0,2,1765.7181,0,1,6.530966,1,TRUE,14,A,2023-09-11_10h38.46.503,exp3,2022.2.2
,,,,,,,,,,,,,,,,,,,,,,,0,-1716,Valid,noise,0,1,1773.590384,0,1,5.0306357,1,TRUE,14,A,2023-09-11_10h38.46.503,exp3,2022.2.2
,,,,,,,,,,,,,,,,,,,,,,,0,2274,Valid,signal,0,2,1778.518371,0,1,3.0626548,1,TRUE,14,A,2023-09-11_10h38.46.503,exp3,2022.2.2
,,,,,,,,,,,,,,,,,,,,,,,0,2274,Invalid,noise,0,1,1782.791114,0,2,3.6298451,1,TRUE,14,A,2023-09-11_10h38.46.503,exp3,2022.2.2
,,,,,,,,,,,,,,,,,,,,,,,0,557,Valid,noise,0,2,1788.981967,1,1,5.7139228,1,TRUE,14,A,2023-09-11_10h38.46.503,exp3,2022.2.2
,,,,,,,,,,,,,,,,,,,,,,,0,1716,Invalid,signal,0,2,1794.02288,0,2,4.4632364,1,TRUE,14,A,2023-09-11_10h38.46.503,exp3,2022.2.2
,,,,,,,,,,,,,,,,,,,,,,,0,-557,Valid,noise,0,2,1800.567103,1,2,4.4302724,1,TRUE,14,A,2023-09-11_10h38.46.503,exp3,2022.2.2
,,,,,,,,,,,,,,,,,,,,,,,0,1716,Valid,noise,0,2,1805.622389,1,2,3.8134125,1,TRUE,14,A,2023-09-11_10h38.46.503,exp3,2022.2.2
,,,,,,,,,,,,,,,,,,,,,,,0,2274,Valid,signal,0,2,1810.790434,0,1,7.5810604,1,TRUE,14,A,2023-09-11_10h38.46.503,exp3,2022.2.2
,,,,,,,,,,,,,,,,,,,,,,,0,1716,Valid,signal,0,1,1817.991123,1,3,3.4462809,1,TRUE,14,A,2023-09-11_10h38.46.503,exp3,2022.2.2
,,,,,,,,,,,,,,,,,,,,,,,0,-1716,Valid,signal,0,1,1824.486236,1,2,5.1140862,1,TRUE,14,A,2023-09-11_10h38.46.503,exp3,2022.2.2
,,,,,,,,,,,,,,,,,,,,,,,0,1158,Valid,noise,0,2,1828.966929,1,2,3.2459183,1,TRUE,14,A,2023-09-11_10h38.46.503,exp3,2022.2.2
,,,,,,,,,,,,,,,,,,,,,,,0,1716,Valid,noise,0,2,1833.462915,1,2,3.5301572,1,TRUE,14,A,2023-09-11_10h38.46.503,exp3,2022.2.2
,,,,,,,,,,,,,,,,,,,,,,,0,-557,Valid,signal,0,2,1839.734099,0,2,5.9972147,1,TRUE,14,A,2023-09-11_10h38.46.503,exp3,2022.2.2
,,,,,,,,,,,,,,,,,,,,,,,0,-1716,Valid,noise,0,1,1844.422458,0,2,2.7963271,1,TRUE,14,A,2023-09-11_10h38.46.503,exp3,2022.2.2
,,,,,,,,,,,,,,,,,,,,,,,0,-1158,Valid,noise,0,2,1848.8388,1,2,3.5297163,1,TRUE,14,A,2023-09-11_10h38.46.503,exp3,2022.2.2
,,,,,,,,,,,,,,,,,,,,,,,0,2274,Invalid,signal,0,2,1853.54287,0,1,4.1470984,1,TRUE,14,A,2023-09-11_10h38.46.503,exp3,2022.2.2
,,,,,,,,,,,,,,,,,,,,,,,0,-1158,Valid,noise,0,2,1858.839133,1,2,4.0799502,1,TRUE,14,A,2023-09-11_10h38.46.503,exp3,2022.2.2
,,,,,,,,,,,,,,,,,,,,,,,0,557,Valid,noise,0,1,1864.613954,0,3,4.8799409,1,TRUE,14,A,2023-09-11_10h38.46.503,exp3,2022.2.2
,,,,,,,,,,,,,,,,,,,,,,,0,557,Valid,noise,0,2,1869.206917,1,2,3.3799956,1,TRUE,14,A,2023-09-11_10h38.46.503,exp3,2022.2.2
,,,,,,,,,,,,,,,,,,,,,,,0,1158,Valid,signal,0,1,1875.494697,1,2,5.396637,1,TRUE,14,A,2023-09-11_10h38.46.503,exp3,2022.2.2
,,,,,,,,,,,,,,,,,,,,,,,0,-557,Valid,signal,0,2,1881.382631,0,2,4.846872,1,TRUE,14,A,2023-09-11_10h38.46.503,exp3,2022.2.2
,,,,,,,,,,,,,,,,,,,,,,,0,-2274,Invalid,noise,0,1,1885.926151,0,1,3.7805294,1,TRUE,14,A,2023-09-11_10h38.46.503,exp3,2022.2.2
,,,,,,,,,,,,,,,,,,,,,,,0,-2274,Valid,signal,0,2,1892.277775,0,1,4.9299217,1,TRUE,14,A,2023-09-11_10h38.46.503,exp3,2022.2.2
,,,,,,,,,,,,,,,,,,,,,,,0,-1716,Valid,signal,0,2,1897.494701,0,2,4.8137927,1,TRUE,14,A,2023-09-11_10h38.46.503,exp3,2022.2.2
,,,,,,,,,,,,,,,,,,,,,,,0,1716,Valid,noise,0,2,1903.574026,1,2,4.4634412,1,TRUE,14,A,2023-09-11_10h38.46.503,exp3,2022.2.2
,,,,,,,,,,,,,,,,,,,,,,,0,-1716,Valid,noise,0,2,1908.47084,1,2,3.813215,1,TRUE,14,A,2023-09-11_10h38.46.503,exp3,2022.2.2
,,,,,,,,,,,,,,,,,,,,,,,0,1158,Valid,signal,0,2,1915.84711,0,2,6.4310673,1,TRUE,14,A,2023-09-11_10h38.46.503,exp3,2022.2.2
,,,,,,,,,,,,,,,,,,,,,,,0,1158,Invalid,signal,0,2,1920.838146,0,1,4.9969664,1,TRUE,14,A,2023-09-11_10h38.46.503,exp3,2022.2.2
,,,,,,,,,,,,,,,,,,,,,,,0,-1716,Invalid,signal,0,1,1927.190673,1,2,4.8975109,1,TRUE,14,A,2023-09-11_10h38.46.503,exp3,2022.2.2
,,,,,,,,,,,,,,,,,,,,,,,0,-1716,Valid,noise,0,2,1935.638159,1,2,6.8971159,1,TRUE,14,A,2023-09-11_10h38.46.503,exp3,2022.2.2
,,,,,,,,,,,,,,,,,,,,,,,0,-1158,Valid,noise,0,2,1939.542118,1,2,2.8799566,1,TRUE,14,A,2023-09-11_10h38.46.503,exp3,2022.2.2
,,,,,,,,,,,,,,,,,,,,,,,0,1158,Valid,signal,0,1,1944.166331,1,2,3.5130081,1,TRUE,14,A,2023-09-11_10h38.46.503,exp3,2022.2.2
,,,,,,,,,,,,,,,,,,,,,,,0,-557,Invalid,signal,0,2,1948.918152,0,2,4.0296846,1,TRUE,14,A,2023-09-11_10h38.46.503,exp3,2022.2.2
,,,,,,,,,,,,,,,,,,,,,,,0,-1716,Valid,signal,0,2,1956.055158,0,1,6.7649136,1,TRUE,14,A,2023-09-11_10h38.46.503,exp3,2022.2.2
,,,,,,,,,,,,,,,,,,,,,,,0,-2274,Valid,signal,0,2,1961.51104,0,1,3.5130042,1,TRUE,14,A,2023-09-11_10h38.46.503,exp3,2022.2.2
,,,,,,,,,,,,,,,,,,,,,,,0,557,Valid,noise,0,2,1966.630664,1,2,4.4301403,1,TRUE,14,A,2023-09-11_10h38.46.503,exp3,2022.2.2
,,,,,,,,,,,,,,,,,,,,,,,0,-1716,Valid,noise,0,2,1971.574882,1,2,3.6293891,1,TRUE,14,A,2023-09-11_10h38.46.503,exp3,2022.2.2
,,,,,,,,,,,,,,,,,,,,,,,0,-557,Valid,noise,0,1,1976.086762,0,3,4.0637004,1,TRUE,14,A,2023-09-11_10h38.46.503,exp3,2022.2.2
,,,,,,,,,,,,,,,,,,,,,,,0,-557,Valid,noise,0,1,1980.71067,0,3,3.0458754,1,TRUE,14,A,2023-09-11_10h38.46.503,exp3,2022.2.2
,,,,,,,,,,,,,,,,,,,,,,,0,-557,Valid,noise,0,1,1986.485821,0,2,5.1139942,1,TRUE,14,A,2023-09-11_10h38.46.503,exp3,2022.2.2
,,,,,,,,,,,,,,,,,,,,,,,0,1158,Valid,noise,0,2,1991.462528,1,2,4.2633147,1,TRUE,14,A,2023-09-11_10h38.46.503,exp3,2022.2.2
,,,,,,,,,,,,,,,,,,,,,,,0,-1158,Valid,signal,0,1,1996.918432,1,2,3.7465001,1,TRUE,14,A,2023-09-11_10h38.46.503,exp3,2022.2.2
,,,,,,,,,,,,,,,,,,,,,,,0,-1158,Valid,signal,0,1,2001.414669,1,2,3.5297715,1,TRUE,14,A,2023-09-11_10h38.46.503,exp3,2022.2.2
,,,,,,,,,,,,,,,,,,,,,,,0,557,Valid,signal,0,2,2005.013998,0,2,3.0794461,1,TRUE,14,A,2023-09-11_10h38.46.503,exp3,2022.2.2
,,,,,,,,,,,,,,,,,,,,,,,0,-1158,Valid,noise,0,1,2009.879115,0,2,4.1465045,1,TRUE,14,A,2023-09-11_10h38.46.503,exp3,2022.2.2
,,,,,,,,,,,,,,,,,,,,,,,0,-1158,Invalid,noise,0,1,2014.407003,0,3,3.8132215,1,TRUE,14,A,2023-09-11_10h38.46.503,exp3,2022.2.2
,,,,,,,,,,,,,,,,,,,,,,,0,2274,Invalid,noise,0,1,2020.039061,0,2,4.2136761,1,TRUE,14,A,2023-09-11_10h38.46.503,exp3,2022.2.2
,,,,,,,,,,,,,,,,,,,,,,,0,1158,Valid,signal,0,2,2025.318414,0,2,3.9794464,1,TRUE,14,A,2023-09-11_10h38.46.503,exp3,2022.2.2
,,,,,,,,,,,,,,,,,,,,,,,0,557,Valid,signal,0,2,2031.319027,0,2,4.747036,1,TRUE,14,A,2023-09-11_10h38.46.503,exp3,2022.2.2
,,,,,,,,,,,,,,,,,,,,,,,0,-2274,Valid,noise,0,2,2035.446994,1,2,3.3135734,1,TRUE,14,A,2023-09-11_10h38.46.503,exp3,2022.2.2
,,,,,,,,,,,,,,,,,,,,,,,0,1158,Invalid,signal,0,2,2043.430132,0,2,7.1310015,1,TRUE,14,A,2023-09-11_10h38.46.503,exp3,2022.2.2
,,,,,,,,,,,,,,,,,,,,,,,0,-557,Valid,noise,0,1,2049.542109,0,2,5.11345,1,TRUE,14,A,2023-09-11_10h38.46.503,exp3,2022.2.2
,,,,,,,,,,,,,,,,,,,,,,,0,1158,Valid,noise,0,1,2054.375064,0,2,3.729872,1,TRUE,14,A,2023-09-11_10h38.46.503,exp3,2022.2.2
,,,,,,,,,,,,,,,,,,,,,,,0,-1716,Valid,signal,0,2,2059.190214,0,2,3.4629254,1,TRUE,14,A,2023-09-11_10h38.46.503,exp3,2022.2.2
,,,,,,,,,,,,,,,,,,,,,,,0,1158,Valid,noise,0,2,2063.382228,1,2,3.1632915,1,TRUE,14,A,2023-09-11_10h38.46.503,exp3,2022.2.2
,,,,,,,,,,,,,,,,,,,,,,,0,-1716,Valid,signal,0,2,2067.414668,0,2,2.9462239,1,TRUE,14,A,2023-09-11_10h38.46.503,exp3,2022.2.2
,,,,,,,,,,,,,,,,,,,,,,,0,2274,Valid,signal,0,2,2071.526119,0,1,4.8476862,1,TRUE,14,A,2023-09-11_10h38.46.503,exp3,2022.2.2
,,,,,,,,,,,,,,,,,,,,,,,0,557,Valid,signal,0,1,2080.629943,1,2,6.9139819,1,TRUE,14,A,2023-09-11_10h38.46.503,exp3,2022.2.2
,,,,,,,,,,,,,,,,,,,,,,,0,-1716,Invalid,signal,0,1,2086.054019,1,2,5.7641159,1,TRUE,14,A,2023-09-11_10h38.46.503,exp3,2022.2.2
,,,,,,,,,,,,,,,,,,,,,,,0,2274,Valid,noise,0,1,2094.294141,0,2,5.8304259,1,TRUE,14,A,2023-09-11_10h38.46.503,exp3,2022.2.2
,,,,,,,,,,,,,,,,,,,,,,,0,-2274,Valid,noise,0,2,2099.286632,1,2,5.4473056,1,TRUE,14,A,2023-09-11_10h38.46.503,exp3,2022.2.2
,,,,,,,,,,,,,,,,,,,,,,,0,-2274,Valid,signal,0,1,2105.638938,1,1,4.7974892,1,TRUE,14,A,2023-09-11_10h38.46.503,exp3,2022.2.2
,,,,,,,,,,,,,,,,,,,,,,,0,-557,Invalid,noise,0,1,2111.686145,0,3,4.1962683,1,TRUE,14,A,2023-09-11_10h38.46.503,exp3,2022.2.2
,,,,,,,,,,,,,,,,,,,,,,,0,2274,Valid,noise,0,2,2117.126967,1,1,5.8310961,1,TRUE,14,A,2023-09-11_10h38.46.503,exp3,2022.2.2
,,,,,,,,,,,,,,,,,,,,,,,0,2274,Valid,noise,0,2,2123.750452,1,2,6.5973658,1,TRUE,14,A,2023-09-11_10h38.46.503,exp3,2022.2.2
,,,,,,,,,,,,,,,,,,,,,,,0,-1716,Valid,signal,0,1,2130.342041,1,3,3.6803266,1,TRUE,14,A,2023-09-11_10h38.46.503,exp3,2022.2.2
,,,,,,,,,,,,,,,,,,,,,,,0,-2274,Valid,signal,0,2,2136.007225,0,1,5.0303459,1,TRUE,14,A,2023-09-11_10h38.46.503,exp3,2022.2.2
,,,,,,,,,,,,,,,,,,,,,,,0,-2274,Valid,signal,0,2,2141.799147,0,1,4.5632916,1,TRUE,14,A,2023-09-11_10h38.46.503,exp3,2022.2.2
,,,,,,,,,,,,,,,,,,,,,,,0,-2274,Invalid,signal,0,1,2148.91924,1,2,5.3641008,1,TRUE,14,A,2023-09-11_10h38.46.503,exp3,2022.2.2
,,,,,,,,,,,,,,,,,,,,,,,0,-1716,Valid,noise,0,1,2153.079005,0,2,3.3796507,1,TRUE,14,A,2023-09-11_10h38.46.503,exp3,2022.2.2
,,,,,,,,,,,,,,,,,,,,,,,0,-1716,Valid,signal,0,1,2160.726304,1,1,6.3482799,1,TRUE,14,A,2023-09-11_10h38.46.503,exp3,2022.2.2
,,,,,,,,,,,,,,,,,,,,,,,0,-557,Valid,signal,0,1,2165.11073,1,3,3.5462101,1,TRUE,14,A,2023-09-11_10h38.46.503,exp3,2022.2.2
,,,,,,,,,,,,,,,,,,,,,,,0,2274,Valid,noise,0,1,2169.622547,0,1,5.2802997,1,TRUE,14,A,2023-09-11_10h38.46.503,exp3,2022.2.2
,,,,,,,,,,,,,,,,,,,,,,,0,-2274,Invalid,signal,0,2,2177.222635,0,1,4.4469316,1,TRUE,14,A,2023-09-11_10h38.46.503,exp3,2022.2.2
,,,,,,,,,,,,,,,,,,,,,,,0,2274,Valid,signal,0,2,2182.69425,0,2,5.4473052,1,TRUE,14,A,2023-09-11_10h38.46.503,exp3,2022.2.2
,,,,,,,,,,,,,,,,,,,,,,,0,557,Valid,noise,0,2,2187.86306,1,3,4.846288,1,TRUE,14,A,2023-09-11_10h38.46.503,exp3,2022.2.2
,,,,,,,,,,,,,,,,,,,,,,,0,1158,Valid,signal,0,1,2195.942375,1,2,5.6472326,1,TRUE,14,A,2023-09-11_10h38.46.503,exp3,2022.2.2
,,,,,,,,,,,,,,,,,,,,,,,0,-2274,Valid,signal,0,1,2200.758592,1,1,4.2795157,1,TRUE,14,A,2023-09-11_10h38.46.503,exp3,2022.2.2
,,,,,,,,,,,,,,,,,,,,,,,0,557,Valid,noise,0,2,2205.590252,1,2,3.5129846,1,TRUE,14,A,2023-09-11_10h38.46.503,exp3,2022.2.2
,,,,,,,,,,,,,,,,,,,,,,,0,1716,Valid,signal,0,1,2209.639074,1,2,4.7137119,1,TRUE,14,A,2023-09-11_10h38.46.503,exp3,2022.2.2
,,,,,,,,,,,,,,,,,,,,,,,0,1158,Invalid,noise,0,1,2217.38231,0,2,4.7972642,1,TRUE,14,A,2023-09-11_10h38.46.503,exp3,2022.2.2
,,,,,,,,,,,,,,,,,,,,,,,0,-557,Valid,signal,0,1,2221.543137,1,2,3.5795644,1,TRUE,14,A,2023-09-11_10h38.46.503,exp3,2022.2.2
,,,,,,,,,,,,,,,,,,,,,,,0,-1158,Valid,signal,0,1,2227.078033,1,2,4.1134697,1,TRUE,14,A,2023-09-11_10h38.46.503,exp3,2022.2.2
,,,,,,,,,,,,,,,,,,,,,,,0,-1158,Valid,signal,0,1,2231.367168,1,2,3.0625341,1,TRUE,14,A,2023-09-11_10h38.46.503,exp3,2022.2.2
,,,,,,,,,,,,,,,,,,,,,,,0,-557,Valid,signal,0,2,2235.654524,0,2,3.3472508,1,TRUE,14,A,2023-09-11_10h38.46.503,exp3,2022.2.2
,,,,,,,,,,,,,,,,,,,,,,,0,-1158,Valid,signal,0,1,2240.29409,1,2,3.7957035,1,TRUE,14,A,2023-09-11_10h38.46.503,exp3,2022.2.2
,,,,,,,,,,,,,,,,,,,,,,,0,1158,Valid,signal,0,1,2244.727035,1,4,3.746782,1,TRUE,14,A,2023-09-11_10h38.46.503,exp3,2022.2.2
,,,,,,,,,,,,,,,,,,,,,,,0,-2274,Valid,noise,0,2,2250.278122,1,1,5.8810908,1,TRUE,14,A,2023-09-11_10h38.46.503,exp3,2022.2.2
,,,,,,,,,,,,,,,,,,,,,,,0,-2274,Invalid,noise,0,2,2258.038581,1,1,5.8300913,1,TRUE,14,A,2023-09-11_10h38.46.503,exp3,2022.2.2
,,,,,,,,,,,,,,,,,,,,,,,0,557,Invalid,signal,0,1,2264.534439,1,2,5.1638209,1,TRUE,14,A,2023-09-11_10h38.46.503,exp3,2022.2.2
,,,,,,,,,,,,,,,,,,,,,,,0,-1158,Invalid,signal,0,2,2269.095006,0,2,3.8630391,1,TRUE,14,A,2023-09-11_10h38.46.503,exp3,2022.2.2
,,,,,,,,,,,,,,,,,,,,,,,0,-2274,Valid,noise,0,1,2276.998648,0,2,6.2808274,1,TRUE,14,A,2023-09-11_10h38.46.503,exp3,2022.2.2
,,,,,,,,,,,,,,,,,,,,,,,0,-557,Valid,noise,0,1,2281.7819,0,2,3.547564,1,TRUE,14,A,2023-09-11_10h38.46.503,exp3,2022.2.2
,,,,,,,,,,,,,,,,,,,,,,,0,-2274,Valid,noise,0,2,2286.422236,1,1,4.2464387,1,TRUE,14,A,2023-09-11_10h38.46.503,exp3,2022.2.2
,,,,,,,,,,,,,,,,,,,,,,,0,-557,Valid,noise,0,1,2290.774591,0,3,3.0291557,1,TRUE,14,A,2023-09-11_10h38.46.503,exp3,2022.2.2
,,,,,,,,,,,,,,,,,,,,,,,0,1158,Valid,signal,0,2,2297.111037,0,1,5.3968058,1,TRUE,14,A,2023-09-11_10h38.46.503,exp3,2022.2.2
,,,,,,,,,,,,,,,,,,,,,,,0,2274,Invalid,signal,0,2,2303.975189,0,1,6.3310035,1,TRUE,14,A,2023-09-11_10h38.46.503,exp3,2022.2.2
,,,,,,,,,,,,,,,,,,,,,,,0,1716,Valid,signal,0,2,2310.502984,0,2,5.0969388,1,TRUE,14,A,2023-09-11_10h38.46.503,exp3,2022.2.2
,,,,,,,,,,,,,,,,,,,,,,,0,2274,Valid,signal,0,1,2314.630789,1,2,2.713057,1,TRUE,14,A,2023-09-11_10h38.46.503,exp3,2022.2.2
,,,,,,,,,,,,,,,,,,,,,,,0,-1716,Valid,noise,0,1,2318.758779,0,2,3.0623142,1,TRUE,14,A,2023-09-11_10h38.46.503,exp3,2022.2.2
,,,,,,,,,,,,,,,,,,,,,,,0,557,Valid,signal,0,2,2327.382517,0,2,7.9649324,2,TRUE,14,A,2023-09-11_10h38.46.503,exp3,2022.2.2
,,,,,,,,,,,,,,,,,,,,,,,0,2274,Valid,signal,0,2,2332.646007,0,2,4.0630647,1,TRUE,14,A,2023-09-11_10h38.46.503,exp3,2022.2.2
,,,,,,,,,,,,,,,,,,,,,,,0,-1158,Valid,noise,0,2,2336.677997,1,2,3.7635238,1,TRUE,14,A,2023-09-11_10h38.46.503,exp3,2022.2.2
,,,,,,,,,,,,,,,,,,,,,,,0,-1716,Valid,noise,0,2,2342.101941,1,2,3.429951,1,TRUE,14,A,2023-09-11_10h38.46.503,exp3,2022.2.2
,,,,,,,,,,,,,,,,,,,,,,,0,557,Invalid,noise,0,1,2345.68643,0,2,2.94539,1,TRUE,14,A,2023-09-11_10h38.46.503,exp3,2022.2.2
,,,,,,,,,,,,,,,,,,,,,,,0,-1716,Valid,signal,0,2,2349.55828,0,2,2.7294191,1,TRUE,14,A,2023-09-11_10h38.46.503,exp3,2022.2.2
,,,,,,,,,,,,,,,,,,,,,,,0,-557,Valid,signal,0,1,2354.16695,1,2,3.9800606,1,TRUE,14,A,2023-09-11_10h38.46.503,exp3,2022.2.2
,,,,,,,,,,,,,,,,,,,,,,,0,2274,Valid,noise,0,2,2358.63075,1,2,3.046778,1,TRUE,14,A,2023-09-11_10h38.46.503,exp3,2022.2.2
,,,,,,,,,,,,,,,,,,,,,,,0,-2274,Valid,noise,0,2,2365.542764,1,2,6.3136929,1,TRUE,14,A,2023-09-11_10h38.46.503,exp3,2022.2.2
,,,,,,,,,,,,,,,,,,,,,,,0,-557,Valid,noise,0,1,2369.606417,0,2,2.4464087,1,TRUE,14,A,2023-09-11_10h38.46.503,exp3,2022.2.2
,,,,,,,,,,,,,,,,,,,,,,,0,-557,Valid,noise,0,2,2373.078155,1,2,2.7958096,1,TRUE,14,A,2023-09-11_10h38.46.503,exp3,2022.2.2
,,,,,,,,,,,,,,,,,,,,,,,0,1716,Invalid,noise,0,1,2377.750561,0,3,4.7795605,1,TRUE,14,A,2023-09-11_10h38.46.503,exp3,2022.2.2
,,,,,,,,,,,,,,,,,,,,,,,1,557,Invalid,noise,0,1,2573.399299,0,2,22.8356048,2,TRUE,14,A,2023-09-11_10h38.46.503,exp3,2022.2.2
,,,,,,,,,,,,,,,,,,,,,,,2,-1716,Valid,signal,0,1,2588.790128,1,2,4.8798087,1,TRUE,14,A,2023-09-11_10h38.46.503,exp3,2022.2.2
,,,,,,,,,,,,,,,,,,,,,,,3,2274,Valid,noise,0,1,2596.535167,0,2,6.1639468,1,TRUE,14,A,2023-09-11_10h38.46.503,exp3,2022.2.2
,,,,,,,,,,,,,,,,,,,,,,,4,557,Valid,signal,0,2,2601.718152,0,3,4.5469921,1,TRUE,14,A,2023-09-11_10h38.46.503,exp3,2022.2.2
,,,,,,,,,,,,,,,,,,,,,,,5,1158,Valid,signal,0,2,2609.797934,0,2,7.5813569,1,TRUE,14,A,2023-09-11_10h38.46.503,exp3,2022.2.2
,,,,,,,,,,,,,,,,,,,,,,,6,-557,Valid,noise,0,1,2615.446688,0,3,4.1801012,1,TRUE,14,A,2023-09-11_10h38.46.503,exp3,2022.2.2
,,,,,,,,,,,,,,,,,,,,,,,7,2274,Invalid,signal,0,1,2623.350241,1,1,5.9138929,1,TRUE,14,A,2023-09-11_10h38.46.503,exp3,2022.2.2
,,,,,,,,,,,,,,,,,,,,,,,8,-1716,Valid,noise,0,1,2628.502225,0,2,4.2637933,1,TRUE,14,A,2023-09-11_10h38.46.503,exp3,2022.2.2
,,,,,,,,,,,,,,,,,,,,,,,9,2274,Valid,noise,0,2,2632.56722,1,2,2.8964339,1,TRUE,14,A,2023-09-11_10h38.46.503,exp3,2022.2.2
,,,,,,,,,,,,,,,,,,,,,,,10,-557,Valid,signal,0,2,2643.878155,0,1,11.4660323,2,TRUE,14,A,2023-09-11_10h38.46.503,exp3,2022.2.2
,,,,,,,,,,,,,,,,,,,,,,,11,-557,Valid,noise,0,1,2649.574958,0,3,4.0472708,1,TRUE,14,A,2023-09-11_10h38.46.503,exp3,2022.2.2
,,,,,,,,,,,,,,,,,,,,,,,12,-557,Valid,noise,0,1,2655.39899,0,3,4.0961344,1,TRUE,14,A,2023-09-11_10h38.46.503,exp3,2022.2.2
,,,,,,,,,,,,,,,,,,,,,,,13,557,Valid,signal,0,2,2659.55882,0,2,3.7467252,1,TRUE,14,A,2023-09-11_10h38.46.503,exp3,2022.2.2
,,,,,,,,,,,,,,,,,,,,,,,14,1158,Valid,noise,0,2,2667.334124,1,2,7.414717,1,TRUE,14,A,2023-09-11_10h38.46.503,exp3,2022.2.2
,,,,,,,,,,,,,,,,,,,,,,,15,-1158,Valid,signal,0,1,2672.662458,1,3,3.7464951,1,TRUE,14,A,2023-09-11_10h38.46.503,exp3,2022.2.2
,,,,,,,,,,,,,,,,,,,,,,,16,-2274,Valid,noise,0,1,2677.782446,0,2,4.8470687,1,TRUE,14,A,2023-09-11_10h38.46.503,exp3,2022.2.2
,,,,,,,,,,,,,,,,,,,,,,,17,-2274,Valid,noise,0,1,2685.190929,0,2,5.0972031,1,TRUE,14,A,2023-09-11_10h38.46.503,exp3,2022.2.2
,,,,,,,,,,,,,,,,,,,,,,,18,-1158,Invalid,signal,0,2,2689.030794,0,2,2.7633145,1,TRUE,14,A,2023-09-11_10h38.46.503,exp3,2022.2.2
,,,,,,,,,,,,,,,,,,,,,,,19,557,Valid,noise,0,2,2692.807084,1,3,3.3292866,1,TRUE,14,A,2023-09-11_10h38.46.503,exp3,2022.2.2
,,,,,,,,,,,,,,,,,,,,,,,20,-557,Valid,noise,0,2,2697.926652,1,3,3.6137495,1,TRUE,14,A,2023-09-11_10h38.46.503,exp3,2022.2.2
,,,,,,,,,,,,,,,,,,,,,,,21,-557,Valid,signal,0,1,2702.854585,1,2,4.5298464,1,TRUE,14,A,2023-09-11_10h38.46.503,exp3,2022.2.2
,,,,,,,,,,,,,,,,,,,,,,,22,-2274,Valid,signal,0,1,2707.54285,1,3,3.3624953,1,TRUE,14,A,2023-09-11_10h38.46.503,exp3,2022.2.2
,,,,,,,,,,,,,,,,,,,,,,,23,-1158,Invalid,noise,0,1,2711.894402,0,3,3.2465611,1,TRUE,14,A,2023-09-11_10h38.46.503,exp3,2022.2.2
,,,,,,,,,,,,,,,,,,,,,,,24,1716,Invalid,noise,0,1,2716.63104,0,2,3.6466208,1,TRUE,14,A,2023-09-11_10h38.46.503,exp3,2022.2.2
,,,,,,,,,,,,,,,,,,,,,,,25,-1158,Valid,signal,0,1,2722.599184,1,2,5.2474698,1,TRUE,14,A,2023-09-11_10h38.46.503,exp3,2022.2.2
,,,,,,,,,,,,,,,,,,,,,,,26,-557,Valid,noise,0,1,2727.238644,0,2,3.7127557,1,TRUE,14,A,2023-09-11_10h38.46.503,exp3,2022.2.2
,,,,,,,,,,,,,,,,,,,,,,,27,-2274,Valid,signal,0,1,2731.895109,1,1,4.3472003,1,TRUE,14,A,2023-09-11_10h38.46.503,exp3,2022.2.2
,,,,,,,,,,,,,,,,,,,,,,,28,1716,Valid,signal,0,2,2749.350209,0,2,15.9340579,2,TRUE,14,A,2023-09-11_10h38.46.503,exp3,2022.2.2
,,,,,,,,,,,,,,,,,,,,,,,29,557,Valid,noise,0,2,2754.550758,1,2,3.9137632,1,TRUE,14,A,2023-09-11_10h38.46.503,exp3,2022.2.2
,,,,,,,,,,,,,,,,,,,,,,,30,2274,Valid,signal,0,2,2758.630845,0,2,2.679322,1,TRUE,14,A,2023-09-11_10h38.46.503,exp3,2022.2.2
,,,,,,,,,,,,,,,,,,,,,,,31,-1158,Valid,signal,0,2,2762.950364,0,2,3.1964743,1,TRUE,14,A,2023-09-11_10h38.46.503,exp3,2022.2.2
,,,,,,,,,,,,,,,,,,,,,,,32,1158,Valid,signal,0,1,2766.406781,1,2,2.4790158,1,TRUE,14,A,2023-09-11_10h38.46.503,exp3,2022.2.2
,,,,,,,,,,,,,,,,,,,,,,,33,-2274,Valid,signal,0,2,2770.134877,0,2,2.9303414,1,TRUE,14,A,2023-09-11_10h38.46.503,exp3,2022.2.2
,,,,,,,,,,,,,,,,,,,,,,,34,-1716,Invalid,noise,0,1,2774.102454,0,2,4.2460372,1,TRUE,14,A,2023-09-11_10h38.46.503,exp3,2022.2.2
,,,,,,,,,,,,,,,,,,,,,,,35,-2274,Invalid,noise,0,2,2780.135232,1,2,3.5299509,1,TRUE,14,A,2023-09-11_10h38.46.503,exp3,2022.2.2
,,,,,,,,,,,,,,,,,,,,,,,36,-2274,Valid,noise,0,1,2783.735352,0,2,2.5297273,1,TRUE,14,A,2023-09-11_10h38.46.503,exp3,2022.2.2
,,,,,,,,,,,,,,,,,,,,,,,37,-1716,Invalid,signal,0,2,2787.239239,0,2,2.4957216,1,TRUE,14,A,2023-09-11_10h38.46.503,exp3,2022.2.2
,,,,,,,,,,,,,,,,,,,,,,,38,-1158,Valid,noise,0,2,2790.630254,1,2,2.3794113,1,TRUE,14,A,2023-09-11_10h38.46.503,exp3,2022.2.2
,,,,,,,,,,,,,,,,,,,,,,,39,-557,Invalid,noise,0,1,2794.150296,0,2,2.6462103,1,TRUE,14,A,2023-09-11_10h38.46.503,exp3,2022.2.2
,,,,,,,,,,,,,,,,,,,,,,,40,-1716,Valid,signal,0,2,2798.406479,0,2,3.1799847,1,TRUE,14,A,2023-09-11_10h38.46.503,exp3,2022.2.2
,,,,,,,,,,,,,,,,,,,,,,,41,557,Invalid,signal,0,2,2803.094812,0,2,4.6639311,1,TRUE,14,A,2023-09-11_10h38.46.503,exp3,2022.2.2
,,,,,,,,,,,,,,,,,,,,,,,42,-1716,Valid,signal,0,1,2810.215128,1,2,5.3466065,1,TRUE,14,A,2023-09-11_10h38.46.503,exp3,2022.2.2
,,,,,,,,,,,,,,,,,,,,,,,43,557,Valid,noise,0,2,2820.967383,1,2,12.0999418,4,TRUE,14,A,2023-09-11_10h38.46.503,exp3,2022.2.2
,,,,,,,,,,,,,,,,,,,,,,,44,-1158,Valid,noise,0,1,2829.33452,0,2,6.0473079,2,TRUE,14,A,2023-09-11_10h38.46.503,exp3,2022.2.2
,,,,,,,,,,,,,,,,,,,,,,,45,2274,Valid,signal,0,2,2834.214918,0,2,2.9131257,1,TRUE,14,A,2023-09-11_10h38.46.503,exp3,2022.2.2
,,,,,,,,,,,,,,,,,,,,,,,46,-2274,Valid,signal,0,1,2838.150344,1,2,2.8629105,1,TRUE,14,A,2023-09-11_10h38.46.503,exp3,2022.2.2
,,,,,,,,,,,,,,,,,,,,,,,47,-1716,Valid,noise,0,2,2841.910806,1,2,2.7964162,1,TRUE,14,A,2023-09-11_10h38.46.503,exp3,2022.2.2
,,,,,,,,,,,,,,,,,,,,,,,48,-2274,Invalid,noise,0,1,2846.422638,0,2,3.4966651,1,TRUE,14,A,2023-09-11_10h38.46.503,exp3,2022.2.2
,,,,,,,,,,,,,,,,,,,,,,,49,1158,Invalid,signal,0,2,2852.583021,0,2,5.1631006,1,TRUE,14,A,2023-09-11_10h38.46.503,exp3,2022.2.2
,,,,,,,,,,,,,,,,,,,,,,,50,1716,Valid,signal,0,2,2858.18251,0,2,4.4974645,1,TRUE,14,A,2023-09-11_10h38.46.503,exp3,2022.2.2
,,,,,,,,,,,,,,,,,,,,,,,51,557,Valid,signal,0,1,2862.294411,1,2,3.1455661,1,TRUE,14,A,2023-09-11_10h38.46.503,exp3,2022.2.2
,,,,,,,,,,,,,,,,,,,,,,,52,-1716,Valid,noise,0,1,2865.991008,0,2,2.7298549,1,TRUE,14,A,2023-09-11_10h38.46.503,exp3,2022.2.2
,,,,,,,,,,,,,,,,,,,,,,,53,1716,Valid,noise,0,1,2874.294772,0,2,7.2650357,2,TRUE,14,A,2023-09-11_10h38.46.503,exp3,2022.2.2
,,,,,,,,,,,,,,,,,,,,,,,54,2274,Valid,signal,0,2,2883.254957,0,2,7.8972823,2,TRUE,14,A,2023-09-11_10h38.46.503,exp3,2022.2.2
,,,,,,,,,,,,,,,,,,,,,,,55,1158,Valid,noise,0,1,2887.942232,0,2,3.7799859,1,TRUE,14,A,2023-09-11_10h38.46.503,exp3,2022.2.2
,,,,,,,,,,,,,,,,,,,,,,,56,-1158,Valid,noise,0,2,2899.04737,1,2,10.0995389,4,TRUE,14,A,2023-09-11_10h38.46.503,exp3,2022.2.2
,,,,,,,,,,,,,,,,,,,,,,,57,557,Valid,noise,0,2,2903.079192,1,2,3.1455774,1,TRUE,14,A,2023-09-11_10h38.46.503,exp3,2022.2.2
,,,,,,,,,,,,,,,,,,,,,,,58,1716,Valid,signal,0,1,2912.038367,1,2,7.7984635,3,TRUE,14,A,2023-09-11_10h38.46.503,exp3,2022.2.2
,,,,,,,,,,,,,,,,,,,,,,,59,2274,Invalid,noise,0,1,2916.502794,0,2,3.4458548,1,TRUE,14,A,2023-09-11_10h38.46.503,exp3,2022.2.2
,,,,,,,,,,,,,,,,,,,,,,,60,1716,Valid,signal,0,1,2925.014038,1,3,9.7324128,2,TRUE,14,A,2023-09-11_10h38.46.503,exp3,2022.2.2
,,,,,,,,,,,,,,,,,,,,,,,61,1158,Valid,noise,0,2,2940.070533,1,2,12.1830006,4,TRUE,14,A,2023-09-11_10h38.46.503,exp3,2022.2.2
,,,,,,,,,,,,,,,,,,,,,,,62,-1158,Invalid,signal,0,2,2944.327291,0,2,4.3630984,1,TRUE,14,A,2023-09-11_10h38.46.503,exp3,2022.2.2
,,,,,,,,,,,,,,,,,,,,,,,63,1716,Valid,noise,0,1,2968.406643,0,2,23.1044793,11,TRUE,14,A,2023-09-11_10h38.46.503,exp3,2022.2.2
,,,,,,,,,,,,,,,,,,,,,,,64,-557,Invalid,noise,0,2,2993.975143,1,2,24.9716824,12,TRUE,14,A,2023-09-11_10h38.46.503,exp3,2022.2.2
,,,,,,,,,,,,,,,,,,,,,,,65,-1716,Valid,signal,0,2,3004.055441,0,2,7.4309891,3,TRUE,14,A,2023-09-11_10h38.46.503,exp3,2022.2.2
,,,,,,,,,,,,,,,,,,,,,,,66,-1158,Valid,signal,0,2,3007.799313,0,1,3.8631353,1,TRUE,14,A,2023-09-11_10h38.46.503,exp3,2022.2.2
,,,,,,,,,,,,,,,,,,,,,,,67,-2274,Valid,signal,0,2,3013.462529,0,1,4.3306721,1,TRUE,14,A,2023-09-11_10h38.46.503,exp3,2022.2.2
,,,,,,,,,,,,,,,,,,,,,,,68,-557,Valid,noise,0,1,3021.654195,0,2,7.7975916,3,TRUE,14,A,2023-09-11_10h38.46.503,exp3,2022.2.2
,,,,,,,,,,,,,,,,,,,,,,,69,2274,Valid,noise,0,1,3030.502445,0,1,7.1981435,2,TRUE,14,A,2023-09-11_10h38.46.503,exp3,2022.2.2
,,,,,,,,,,,,,,,,,,,,,,,70,1158,Valid,noise,0,2,3037.206959,1,2,5.780224,2,TRUE,14,A,2023-09-11_10h38.46.503,exp3,2022.2.2
,,,,,,,,,,,,,,,,,,,,,,,71,557,Valid,signal,0,1,3062.518315,1,2,24.9549382,11,TRUE,14,A,2023-09-11_10h38.46.503,exp3,2022.2.2
,,,,,,,,,,,,,,,,,,,,,,,72,1158,Valid,noise,0,1,3087.382332,0,2,23.3546519,9,TRUE,14,A,2023-09-11_10h38.46.503,exp3,2022.2.2
,,,,,,,,,,,,,,,,,,,,,,,73,1716,Valid,signal,0,2,3092.294265,0,1,4.0798455,1,TRUE,14,A,2023-09-11_10h38.46.503,exp3,2022.2.2
,,,,,,,,,,,,,,,,,,,,,,,74,557,Valid,signal,0,2,3099.766207,0,2,5.9969406,2,TRUE,14,A,2023-09-11_10h38.46.503,exp3,2022.2.2
,,,,,,,,,,,,,,,,,,,,,,,75,-557,Invalid,signal,0,2,3106.51842,0,1,5.914118,2,TRUE,14,A,2023-09-11_10h38.46.503,exp3,2022.2.2
,,,,,,,,,,,,,,,,,,,,,,,76,-1716,Valid,noise,0,2,3113.86255,1,1,7.5146586,2,TRUE,14,A,2023-09-11_10h38.46.503,exp3,2022.2.2
,,,,,,,,,,,,,,,,,,,,,,,77,-1716,Valid,noise,0,1,3121.494557,0,2,5.4135363,2,TRUE,14,A,2023-09-11_10h38.46.503,exp3,2022.2.2
,,,,,,,,,,,,,,,,,,,,,,,78,-1716,Valid,signal,0,2,3145.542665,0,2,23.6377159,11,TRUE,14,A,2023-09-11_10h38.46.503,exp3,2022.2.2
,,,,,,,,,,,,,,,,,,,,,,,79,1158,Valid,signal,0,1,3159.350618,1,1,13.7673288,4,TRUE,14,A,2023-09-11_10h38.46.503,exp3,2022.2.2
,,,,,,,,,,,,,,,,,,,,,,,80,1158,Valid,noise,0,2,3165.975281,1,1,4.0630395,1,TRUE,14,A,2023-09-11_10h38.46.503,exp3,2022.2.2
,,,,,,,,,,,,,,,,,,,,,,,81,-1158,Valid,noise,0,1,3172.774455,0,2,5.7138586,2,TRUE,14,A,2023-09-11_10h38.46.503,exp3,2022.2.2
,,,,,,,,,,,,,,,,,,,,,,,82,557,Invalid,signal,0,1,3186.93412,1,2,19.0524827,5,TRUE,14,A,2023-09-11_10h38.46.503,exp3,2022.2.2
,,,,,,,,,,,,,,,,,,,,,,,83,-2274,Valid,signal,0,1,3203.958365,1,1,10.1818826,3,TRUE,14,A,2023-09-11_10h38.46.503,exp3,2022.2.2
,,,,,,,,,,,,,,,,,,,,,,,84,1716,Valid,signal,0,1,3209.671267,1,1,4.530364,1,TRUE,14,A,2023-09-11_10h38.46.503,exp3,2022.2.2
,,,,,,,,,,,,,,,,,,,,,,,85,1716,Invalid,signal,0,2,3243.302358,0,2,34.2252785,15,TRUE,14,A,2023-09-11_10h38.46.503,exp3,2022.2.2
,,,,,,,,,,,,,,,,,,,,,,,86,-2274,Valid,signal,0,1,3250.406439,1,3,4.880647,1,TRUE,14,A,2023-09-11_10h38.46.503,exp3,2022.2.2
,,,,,,,,,,,,,,,,,,,,,,,87,1158,Valid,noise,0,1,3282.438958,0,2,30.4729447,15,TRUE,14,A,2023-09-11_10h38.46.503,exp3,2022.2.2
,,,,,,,,,,,,,,,,,,,,,,,88,1158,Valid,signal,0,2,3288.839557,0,2,4.7639638,2,TRUE,14,A,2023-09-11_10h38.46.503,exp3,2022.2.2
,,,,,,,,,,,,,,,,,,,,,,,89,1716,Invalid,noise,0,1,3292.422168,0,2,2.5796104,1,TRUE,14,A,2023-09-11_10h38.46.503,exp3,2022.2.2
,,,,,,,,,,,,,,,,,,,,,,,90,-2274,Valid,noise,0,2,3296.870455,1,2,4.4630159,1,TRUE,14,A,2023-09-11_10h38.46.503,exp3,2022.2.2
,,,,,,,,,,,,,,,,,,,,,,,91,1716,Valid,noise,0,2,3301.975379,1,2,3.5294723,1,TRUE,14,A,2023-09-11_10h38.46.503,exp3,2022.2.2
,,,,,,,,,,,,,,,,,,,,,,,92,557,Valid,signal,0,2,3310.247589,0,2,8.7158315,3,TRUE,14,A,2023-09-11_10h38.46.503,exp3,2022.2.2
,,,,,,,,,,,,,,,,,,,,,,,93,557,Invalid,noise,0,1,3316.118395,0,3,3.6457082,1,TRUE,14,A,2023-09-11_10h38.46.503,exp3,2022.2.2
,,,,,,,,,,,,,,,,,,,,,,,94,2274,Valid,noise,0,1,3321.07863,0,2,4.2641048,1,TRUE,14,A,2023-09-11_10h38.46.503,exp3,2022.2.2
,,,,,,,,,,,,,,,,,,,,,,,95,-1158,Valid,noise,0,1,3328.150843,0,2,6.5638779,2,TRUE,14,A,2023-09-11_10h38.46.503,exp3,2022.2.2
,,,,,,,,,,,,,,,,,,,,,,,96,-1158,Valid,noise,0,2,3337.799143,1,3,7.9812039,3,TRUE,14,A,2023-09-11_10h38.46.503,exp3,2022.2.2
,,,,,,,,,,,,,,,,,,,,,,,97,557,Valid,noise,0,2,3342.87057,1,3,3.9299697,1,TRUE,14,A,2023-09-11_10h38.46.503,exp3,2022.2.2
,,,,,,,,,,,,,,,,,,,,,,,98,-1158,Valid,signal,0,1,3354.582369,1,3,10.5491952,5,TRUE,14,A,2023-09-11_10h38.46.503,exp3,2022.2.2
,,,,,,,,,,,,,,,,,,,,,,,99,-557,Valid,noise,0,1,3358.870285,0,4,4.7473569,1,TRUE,14,A,2023-09-11_10h38.46.503,exp3,2022.2.2
,,,,,,,,,,,,,,,,,,,,,,,100,2274,Valid,noise,0,1,3366.183343,0,1,9.0314347,1,TRUE,14,A,2023-09-11_10h38.46.503,exp3,2022.2.2
,,,,,,,,,,,,,,,,,,,,,,,101,-1716,Valid,noise,0,2,3374.838759,1,2,3.6464815,1,TRUE,14,A,2023-09-11_10h38.46.503,exp3,2022.2.2
,,,,,,,,,,,,,,,,,,,,,,,102,1158,Invalid,signal,0,2,3382.311257,0,2,5.780468,2,TRUE,14,A,2023-09-11_10h38.46.503,exp3,2022.2.2
,,,,,,,,,,,,,,,,,,,,,,,103,-2274,Valid,noise,0,1,3393.78316,0,3,10.9826164,5,TRUE,14,A,2023-09-11_10h38.46.503,exp3,2022.2.2
,,,,,,,,,,,,,,,,,,,,,,,104,-1716,Valid,signal,0,2,3398.56728,0,2,4.2132109,1,TRUE,14,A,2023-09-11_10h38.46.503,exp3,2022.2.2
,,,,,,,,,,,,,,,,,,,,,,,105,-1158,Valid,noise,0,2,3417.254979,1,3,18.4356208,9,TRUE,14,A,2023-09-11_10h38.46.503,exp3,2022.2.2
,,,,,,,,,,,,,,,,,,,,,,,106,1716,Valid,noise,0,2,3425.190734,1,2,6.4140966,2,TRUE,14,A,2023-09-11_10h38.46.503,exp3,2022.2.2
,,,,,,,,,,,,,,,,,,,,,,,107,2274,Invalid,signal,0,2,3434.16702,0,2,6.9642145,3,TRUE,14,A,2023-09-11_10h38.46.503,exp3,2022.2.2
,,,,,,,,,,,,,,,,,,,,,,,108,1716,Valid,noise,0,1,3438.167311,0,3,3.6295657,1,TRUE,14,A,2023-09-11_10h38.46.503,exp3,2022.2.2
,,,,,,,,,,,,,,,,,,,,,,,109,557,Valid,noise,0,2,3452.839115,1,3,13.4501975,6,TRUE,14,A,2023-09-11_10h38.46.503,exp3,2022.2.2
,,,,,,,,,,,,,,,,,,,,,,,110,-557,Valid,signal,0,1,3458.150621,1,2,4.5469233,1,TRUE,14,A,2023-09-11_10h38.46.503,exp3,2022.2.2
,,,,,,,,,,,,,,,,,,,,,,,111,-1158,Invalid,noise,0,1,3464.902982,0,4,7.3147772,2,TRUE,14,A,2023-09-11_10h38.46.503,exp3,2022.2.2
,,,,,,,,,,,,,,,,,,,,,,,112,2274,Valid,noise,0,1,3478.71034,0,2,12.2832215,5,TRUE,14,A,2023-09-11_10h38.46.503,exp3,2022.2.2
,,,,,,,,,,,,,,,,,,,,,,,113,1158,Valid,signal,0,1,3486.663548,1,2,6.1477841,2,TRUE,14,A,2023-09-11_10h38.46.503,exp3,2022.2.2
,,,,,,,,,,,,,,,,,,,,,,,114,1158,Invalid,noise,0,1,3495.831129,0,2,7.8309806,3,TRUE,14,A,2023-09-11_10h38.46.503,exp3,2022.2.2
,,,,,,,,,,,,,,,,,,,,,,,115,2274,Valid,signal,0,2,3511.543253,0,1,15.9515932,6,TRUE,14,A,2023-09-11_10h38.46.503,exp3,2022.2.2
,,,,,,,,,,,,,,,,,,,,,,,116,2274,Invalid,noise,0,1,3517.510556,0,2,3.3630883,1,TRUE,14,A,2023-09-11_10h38.46.503,exp3,2022.2.2
,,,,,,,,,,,,,,,,,,,,,,,117,-1716,Valid,noise,0,1,3534.471503,0,1,17.0014505,8,TRUE,14,A,2023-09-11_10h38.46.503,exp3,2022.2.2
,,,,,,,,,,,,,,,,,,,,,,,118,-557,Valid,signal,0,2,3547.687213,0,2,13.6827054,5,TRUE,14,A,2023-09-11_10h38.46.503,exp3,2022.2.2
,,,,,,,,,,,,,,,,,,,,,,,119,1158,Valid,signal,0,2,3615.766595,0,2,65.2873137,30,TRUE,14,A,2023-09-11_10h38.46.503,exp3,2022.2.2
,,,,,,,,,,,,,,,,,,,,,,,120,-1158,Valid,signal,0,1,3621.303225,1,3,4.3141876,1,TRUE,14,A,2023-09-11_10h38.46.503,exp3,2022.2.2
,,,,,,,,,,,,,,,,,,,,,,,121,-557,Valid,signal,0,2,3626.326274,0,2,3.6125152,1,TRUE,14,A,2023-09-11_10h38.46.503,exp3,2022.2.2
,,,,,,,,,,,,,,,,,,,,,,,122,-2274,Invalid,signal,0,1,3631.110446,1,1,5.99746,1,TRUE,14,A,2023-09-11_10h38.46.503,exp3,2022.2.2
,,,,,,,,,,,,,,,,,,,,,,,123,-2274,Invalid,signal,0,1,3637.959026,1,1,3.0800541,1,TRUE,14,A,2023-09-11_10h38.46.503,exp3,2022.2.2
,,,,,,,,,,,,,,,,,,,,,,,124,-1716,Valid,signal,0,2,3643.238502,0,2,4.596015,2,TRUE,14,A,2023-09-11_10h38.46.503,exp3,2022.2.2
,,,,,,,,,,,,,,,,,,,,,,,125,1716,Valid,signal,0,1,3647.063079,1,2,2.9464106,1,TRUE,14,A,2023-09-11_10h38.46.503,exp3,2022.2.2
,,,,,,,,,,,,,,,,,,,,,,,126,1158,Valid,signal,0,1,3651.287405,1,1,5.58073,1,TRUE,14,A,2023-09-11_10h38.46.503,exp3,2022.2.2
,,,,,,,,,,,,,,,,,,,,,,,127,-557,Valid,signal,0,1,3660.342414,1,1,8.5484335,1,TRUE,14,A,2023-09-11_10h38.46.503,exp3,2022.2.2
,,,,,,,,,,,,,,,,,,,,,,,128,1716,Valid,noise,0,2,3667.95939,1,3,3.9633666,1,TRUE,14,A,2023-09-11_10h38.46.503,exp3,2022.2.2
,,,,,,,,,,,,,,,,,,,,,,,129,1158,Valid,signal,0,2,3677.078298,0,2,8.3972929,3,TRUE,14,A,2023-09-11_10h38.46.503,exp3,2022.2.2
,,,,,,,,,,,,,,,,,,,,,,,130,1716,Valid,signal,0,2,3688.102465,0,2,11.4495119,4,TRUE,14,A,2023-09-11_10h38.46.503,exp3,2022.2.2
,,,,,,,,,,,,,,,,,,,,,,,131,1158,Valid,signal,0,1,3697.543356,1,2,6.8147495,2,TRUE,14,A,2023-09-11_10h38.46.503,exp3,2022.2.2
,,,,,,,,,,,,,,,,,,,,,,,132,1158,Valid,noise,0,2,3713.702227,1,2,15.9014546,8,TRUE,14,A,2023-09-11_10h38.46.503,exp3,2022.2.2
,,,,,,,,,,,,,,,,,,,,,,,133,2274,Valid,signal,0,2,3720.999365,0,2,6.3968779,1,TRUE,14,A,2023-09-11_10h38.46.503,exp3,2022.2.2
,,,,,,,,,,,,,,,,,,,,,,,134,2274,Valid,noise,0,2,3750.662815,1,1,28.006119,14,TRUE,14,A,2023-09-11_10h38.46.503,exp3,2022.2.2
,,,,,,,,,,,,,,,,,,,,,,,135,557,Valid,noise,0,2,3771.527464,1,2,20.8200168,10,TRUE,14,A,2023-09-11_10h38.46.503,exp3,2022.2.2
,,,,,,,,,,,,,,,,,,,,,,,136,-1158,Valid,noise,0,2,3777.190584,1,3,3.0292066,1,TRUE,14,A,2023-09-11_10h38.46.503,exp3,2022.2.2
,,,,,,,,,,,,,,,,,,,,,,,137,2274,Valid,signal,0,1,3781.46279,1,1,3.7127582,1,TRUE,14,A,2023-09-11_10h38.46.503,exp3,2022.2.2
,,,,,,,,,,,,,,,,,,,,,,,138,-1716,Valid,noise,0,2,3786.135618,1,3,3.6300447,1,TRUE,14,A,2023-09-11_10h38.46.503,exp3,2022.2.2
,,,,,,,,,,,,,,,,,,,,,,,139,-2274,Valid,signal,0,2,3790.630567,0,3,4.9807357,1,TRUE,14,A,2023-09-11_10h38.46.503,exp3,2022.2.2
,,,,,,,,,,,,,,,,,,,,,,,140,-557,Valid,signal,0,1,3796.502396,1,3,3.77977,1,TRUE,14,A,2023-09-11_10h38.46.503,exp3,2022.2.2
,,,,,,,,,,,,,,,,,,,,,,,141,2274,Valid,signal,0,2,3806.903044,0,1,8.7814513,3,TRUE,14,A,2023-09-11_10h38.46.503,exp3,2022.2.2
,,,,,,,,,,,,,,,,,,,,,,,142,1716,Valid,noise,0,1,3811.654461,0,2,5.7807214,1,TRUE,14,A,2023-09-11_10h38.46.503,exp3,2022.2.2
,,,,,,,,,,,,,,,,,,,,,,,143,2274,Valid,signal,0,2,3817.975037,0,3,3.0127694,1,TRUE,14,A,2023-09-11_10h38.46.503,exp3,2022.2.2
,,,,,,,,,,,,,,,,,,,,,,,144,-1716,Invalid,noise,0,1,3822.5505,0,2,3.8973776,1,TRUE,14,A,2023-09-11_10h38.46.503,exp3,2022.2.2
,,,,,,,,,,,,,,,,,,,,,,,145,557,Valid,noise,0,2,3828.903494,1,2,5.8302366,2,TRUE,14,A,2023-09-11_10h38.46.503,exp3,2022.2.2
,,,,,,,,,,,,,,,,,,,,,,,146,2274,Valid,signal,0,2,3833.815253,0,2,2.7961005,1,TRUE,14,A,2023-09-11_10h38.46.503,exp3,2022.2.2
,,,,,,,,,,,,,,,,,,,,,,,147,-557,Valid,signal,0,1,3837.191001,1,2,2.8133086,1,TRUE,14,A,2023-09-11_10h38.46.503,exp3,2022.2.2
,,,,,,,,,,,,,,,,,,,,,,,148,-2274,Valid,signal,0,2,3848.407044,0,1,9.9981458,3,TRUE,14,A,2023-09-11_10h38.46.503,exp3,2022.2.2
,,,,,,,,,,,,,,,,,,,,,,,149,1158,Invalid,noise,0,2,3855.206324,1,2,6.1975138,2,TRUE,14,A,2023-09-11_10h38.46.503,exp3,2022.2.2
,,,,,,,,,,,,,,,,,,,,,,,150,-2274,Valid,noise,0,1,3860.167054,0,1,4.0631639,1,TRUE,14,A,2023-09-11_10h38.46.503,exp3,2022.2.2
,,,,,,,,,,,,,,,,,,,,,,,151,1716,Valid,noise,0,1,3868.566435,0,2,8.2154605,2,TRUE,14,A,2023-09-11_10h38.46.503,exp3,2022.2.2
,,,,,,,,,,,,,,,,,,,,,,,152,-1158,Valid,signal,0,2,3876.599117,0,1,6.2971514,1,TRUE,14,A,2023-09-11_10h38.46.503,exp3,2022.2.2
,,,,,,,,,,,,,,,,,,,,,,,153,-1158,Valid,signal,0,1,3881.70364,1,2,4.8470808,1,TRUE,14,A,2023-09-11_10h38.46.503,exp3,2022.2.2
,,,,,,,,,,,,,,,,,,,,,,,154,-1716,Valid,signal,0,1,3887.606759,1,2,3.6462815,1,TRUE,14,A,2023-09-11_10h38.46.503,exp3,2022.2.2
,,,,,,,,,,,,,,,,,,,,,,,155,-1158,Valid,noise,0,2,3898.358845,1,2,10.1660573,2,TRUE,14,A,2023-09-11_10h38.46.503,exp3,2022.2.2
,,,,,,,,,,,,,,,,,,,,,,,156,-1158,Valid,signal,0,2,3903.22363,0,2,3.1459965,1,TRUE,14,A,2023-09-11_10h38.46.503,exp3,2022.2.2
,,,,,,,,,,,,,,,,,,,,,,,157,-557,Invalid,signal,0,1,3910.263615,1,2,6.7141718,2,TRUE,14,A,2023-09-11_10h38.46.503,exp3,2022.2.2
,,,,,,,,,,,,,,,,,,,,,,,158,1716,Valid,signal,0,2,3917.702447,0,2,6.3141598,2,TRUE,14,A,2023-09-11_10h38.46.503,exp3,2022.2.2
,,,,,,,,,,,,,,,,,,,,,,,159,-557,Valid,signal,0,2,3923.30238,0,1,4.8303692,1,TRUE,14,A,2023-09-11_10h38.46.503,exp3,2022.2.2
,,,,,,,,,,,,,,,,,,,,,,,160,557,Valid,signal,0,1,3933.527488,1,2,8.9488159,3,TRUE,14,A,2023-09-11_10h38.46.503,exp3,2022.2.2
,,,,,,,,,,,,,,,,,,,,,,,161,557,Valid,signal,0,2,3937.590543,0,2,3.046364,1,TRUE,14,A,2023-09-11_10h38.46.503,exp3,2022.2.2
,,,,,,,,,,,,,,,,,,,,,,,162,-557,Valid,noise,0,2,3943.78352,1,2,5.929996,2,TRUE,14,A,2023-09-11_10h38.46.503,exp3,2022.2.2
,,,,,,,,,,,,,,,,,,,,,,,163,-1716,Valid,noise,0,2,3948.839146,1,2,2.7468617,1,TRUE,14,A,2023-09-11_10h38.46.503,exp3,2022.2.2
,,,,,,,,,,,,,,,,,,,,,,,164,557,Valid,signal,0,2,3952.983384,0,2,3.1121681,1,TRUE,14,A,2023-09-11_10h38.46.503,exp3,2022.2.2
,,,,,,,,,,,,,,,,,,,,,,,165,557,Valid,noise,0,1,3957.687007,0,2,3.7966658,2,TRUE,14,A,2023-09-11_10h38.46.503,exp3,2022.2.2
,,,,,,,,,,,,,,,,,,,,,,,166,-557,Valid,noise,0,1,3961.127222,0,2,2.4463116,1,TRUE,14,A,2023-09-11_10h38.46.503,exp3,2022.2.2
,,,,,,,,,,,,,,,,,,,,,,,167,1716,Invalid,signal,0,1,3966.215117,1,3,4.1627691,1,TRUE,14,A,2023-09-11_10h38.46.503,exp3,2022.2.2
,,,,,,,,,,,,,,,,,,,,,,,168,-2274,Valid,noise,0,1,3970.598276,0,3,3.2797282,1,TRUE,14,A,2023-09-11_10h38.46.503,exp3,2022.2.2
,,,,,,,,,,,,,,,,,,,,,,,169,-1716,Valid,signal,0,2,3987.894737,0,3,16.3347397,10,TRUE,14,A,2023-09-11_10h38.46.503,exp3,2022.2.2
,,,,,,,,,,,,,,,,,,,,,,,170,-2274,Valid,noise,0,2,4008.838567,1,1,21.1197465,10,TRUE,14,A,2023-09-11_10h38.46.503,exp3,2022.2.2
,,,,,,,,,,,,,,,,,,,,,,,171,1158,Valid,noise,0,1,4014.150732,0,1,4.6811459,1,TRUE,14,A,2023-09-11_10h38.46.503,exp3,2022.2.2
,,,,,,,,,,,,,,,,,,,,,,,172,-2274,Valid,noise,0,2,4019.543682,1,1,3.0125931,1,TRUE,14,A,2023-09-11_10h38.46.503,exp3,2022.2.2
,,,,,,,,,,,,,,,,,,,,,,,173,1716,Valid,noise,0,2,4026.21477,1,2,5.8309584,2,TRUE,14,A,2023-09-11_10h38.46.503,exp3,2022.2.2
,,,,,,,,,,,,,,,,,,,,,,,174,-1716,Invalid,signal,0,1,4031.046616,1,2,5.6969307,1,TRUE,14,A,2023-09-11_10h38.46.503,exp3,2022.2.2
,,,,,,,,,,,,,,,,,,,,,,,175,2274,Valid,noise,0,1,4049.350377,0,1,16.0845368,8,TRUE,14,A,2023-09-11_10h38.46.503,exp3,2022.2.2
,,,,,,,,,,,,,,,,,,,,,,,176,2274,Valid,noise,0,1,4084.4557,0,1,33.4245914,17,TRUE,14,A,2023-09-11_10h38.46.503,exp3,2022.2.2
,,,,,,,,,,,,,,,,,,,,,,,2,-1158,Valid,signal,0,1,4259.622705,1,2,12.281751,2,TRUE,14,A,2023-09-11_10h38.46.503,exp3,2022.2.2
,,,,,,,,,,,,,,,,,,,,,,,4,-1716,Valid,signal,0,2,4270.279594,0,2,3.0296328,1,TRUE,14,A,2023-09-11_10h38.46.503,exp3,2022.2.2
,,,,,,,,,,,,,,,,,,,,,,,6,1716,Invalid,noise,0,2,4274.775215,1,2,3.5800109,1,TRUE,14,A,2023-09-11_10h38.46.503,exp3,2022.2.2
,,,,,,,,,,,,,,,,,,,,,,,8,557,Valid,noise,0,2,4280.775607,1,3,6.6640429,2,TRUE,14,A,2023-09-11_10h38.46.503,exp3,2022.2.2
,,,,,,,,,,,,,,,,,,,,,,,10,1716,Valid,signal,0,2,4293.302523,0,3,9.7329918,5,TRUE,14,A,2023-09-11_10h38.46.503,exp3,2022.2.2
,,,,,,,,,,,,,,,,,,,,,,,12,557,Invalid,noise,0,1,4296.791328,0,2,2.7286662,1,TRUE,14,A,2023-09-11_10h38.46.503,exp3,2022.2.2
,,,,,,,,,,,,,,,,,,,,,,,14,557,Valid,signal,0,2,4300.599779,0,3,2.8795555,1,TRUE,14,A,2023-09-11_10h38.46.503,exp3,2022.2.2
,,,,,,,,,,,,,,,,,,,,,,,16,2274,Valid,signal,0,2,4326.423095,0,1,26.2048939,15,TRUE,14,A,2023-09-11_10h38.46.503,exp3,2022.2.2
,,,,,,,,,,,,,,,,,,,,,,,18,-1716,Valid,noise,0,2,4333.51034,1,2,6.3471482,2,TRUE,14,A,2023-09-11_10h38.46.503,exp3,2022.2.2
,,,,,,,,,,,,,,,,,,,,,,,20,1716,Valid,signal,0,1,4364.982693,1,2,29.3733618,13,TRUE,14,A,2023-09-11_10h38.46.503,exp3,2022.2.2
,,,,,,,,,,,,,,,,,,,,,,,22,557,Valid,signal,0,2,4371.495307,0,3,5.8804626,2,TRUE,14,A,2023-09-11_10h38.46.503,exp3,2022.2.2
,,,,,,,,,,,,,,,,,,,,,,,24,2274,Valid,signal,0,1,4430.519556,1,2,58.0346343,27,TRUE,14,A,2023-09-11_10h38.46.503,exp3,2022.2.2
,,,,,,,,,,,,,,,,,,,,,,,26,-1716,Valid,noise,0,2,4435.559682,1,3,3.6131073,1,TRUE,14,A,2023-09-11_10h38.46.503,exp3,2022.2.2
,,,,,,,,,,,,,,,,,,,,,,,28,2274,Invalid,signal,0,2,4443.270713,0,2,7.0808106,2,TRUE,14,A,2023-09-11_10h38.46.503,exp3,2022.2.2
,,,,,,,,,,,,,,,,,,,,,,,30,-1716,Valid,signal,0,1,4461.847755,1,2,17.0022544,8,TRUE,14,A,2023-09-11_10h38.46.503,exp3,2022.2.2
,,,,,,,,,,,,,,,,,,,,,,,32,557,Valid,noise,0,2,4481.799332,1,2,18.6180818,9,TRUE,14,A,2023-09-11_10h38.46.503,exp3,2022.2.2
,,,,,,,,,,,,,,,,,,,,,,,34,1716,Invalid,noise,0,1,4485.831327,0,2,2.8800275,1,TRUE,14,A,2023-09-11_10h38.46.503,exp3,2022.2.2
,,,,,,,,,,,,,,,,,,,,,,,36,557,Valid,signal,0,2,4491.606449,0,2,4.5970112,2,TRUE,14,A,2023-09-11_10h38.46.503,exp3,2022.2.2
,,,,,,,,,,,,,,,,,,,,,,,38,1158,Valid,signal,0,2,4497.590774,0,1,6.1805348,1,TRUE,14,A,2023-09-11_10h38.46.503,exp3,2022.2.2
,,,,,,,,,,,,,,,,,,,,,,,40,1158,Invalid,signal,0,1,4507.991281,1,2,9.0159155,4,TRUE,14,A,2023-09-11_10h38.46.503,exp3,2022.2.2
,,,,,,,,,,,,,,,,,,,,,,,42,1716,Valid,signal,0,1,4516.806535,1,3,8.1144115,3,TRUE,14,A,2023-09-11_10h38.46.503,exp3,2022.2.2
,,,,,,,,,,,,,,,,,,,,,,,44,1158,Valid,signal,0,1,4527.174535,1,3,8.264225,4,TRUE,14,A,2023-09-11_10h38.46.503,exp3,2022.2.2
,,,,,,,,,,,,,,,,,,,,,,,46,-1716,Valid,signal,0,1,4531.863104,1,1,4.1133214,1,TRUE,14,A,2023-09-11_10h38.46.503,exp3,2022.2.2
,,,,,,,,,,,,,,,,,,,,,,,48,557,Invalid,noise,0,1,4543.60752,0,3,12.750599,5,TRUE,14,A,2023-09-11_10h38.46.503,exp3,2022.2.2
,,,,,,,,,,,,,,,,,,,,,,,50,1716,Valid,noise,0,2,4549.798849,1,2,3.0790233,1,TRUE,14,A,2023-09-11_10h38.46.503,exp3,2022.2.2
,,,,,,,,,,,,,,,,,,,,,,,52,-557,Valid,signal,0,1,4555.07928,1,2,5.0968339,1,TRUE,14,A,2023-09-11_10h38.46.503,exp3,2022.2.2
,,,,,,,,,,,,,,,,,,,,,,,54,-557,Valid,noise,0,2,4559.766539,1,2,3.9300372,1,TRUE,14,A,2023-09-11_10h38.46.503,exp3,2022.2.2
,,,,,,,,,,,,,,,,,,,,,,,56,2274,Valid,noise,0,1,4567.303001,0,2,5.097222,2,TRUE,14,A,2023-09-11_10h38.46.503,exp3,2022.2.2
,,,,,,,,,,,,,,,,,,,,,,,58,-2274,Valid,noise,0,2,4570.406802,1,1,2.4296033,1,TRUE,14,A,2023-09-11_10h38.46.503,exp3,2022.2.2
,,,,,,,,,,,,,,,,,,,,,,,60,-1716,Invalid,signal,0,2,4574.167541,0,1,2.4791413,1,TRUE,14,A,2023-09-11_10h38.46.503,exp3,2022.2.2
,,,,,,,,,,,,,,,,,,,,,,,62,-1158,Invalid,noise,0,1,4577.383725,0,3,2.1296969,1,TRUE,14,A,2023-09-11_10h38.46.503,exp3,2022.2.2
,,,,,,,,,,,,,,,,,,,,,,,64,2274,Invalid,signal,0,2,4581.39871,0,2,3.6296318,1,TRUE,14,A,2023-09-11_10h38.46.503,exp3,2022.2.2
,,,,,,,,,,,,,,,,,,,,,,,66,-1716,Invalid,noise,0,2,4585.574514,1,2,3.9800166,1,TRUE,14,A,2023-09-11_10h38.46.503,exp3,2022.2.2
,,,,,,,,,,,,,,,,,,,,,,,68,-1716,Valid,noise,0,1,4592.151734,0,2,4.246842,1,TRUE,14,A,2023-09-11_10h38.46.503,exp3,2022.2.2
,,,,,,,,,,,,,,,,,,,,,,,70,1158,Valid,noise,0,1,4598.566416,0,2,5.6970045,1,TRUE,14,A,2023-09-11_10h38.46.503,exp3,2022.2.2
,,,,,,,,,,,,,,,,,,,,,,,72,1158,Valid,noise,0,2,4604.663401,1,3,5.5305712,2,TRUE,14,A,2023-09-11_10h38.46.503,exp3,2022.2.2
,,,,,,,,,,,,,,,,,,,,,,,74,557,Valid,signal,0,2,4611.670501,0,3,6.4316546,2,TRUE,14,A,2023-09-11_10h38.46.503,exp3,2022.2.2
,,,,,,,,,,,,,,,,,,,,,,,76,2274,Invalid,noise,0,1,4616.791624,0,1,3.5291088,1,TRUE,14,A,2023-09-11_10h38.46.503,exp3,2022.2.2
,,,,,,,,,,,,,,,,,,,,,,,78,1716,Valid,noise,0,2,4621.479215,1,1,4.6797554,1,TRUE,14,A,2023-09-11_10h38.46.503,exp3,2022.2.2
,,,,,,,,,,,,,,,,,,,,,,,80,-2274,Invalid,signal,0,1,4629.543089,1,2,6.6645182,2,TRUE,14,A,2023-09-11_10h38.46.503,exp3,2022.2.2
,,,,,,,,,,,,,,,,,,,,,,,82,-2274,Valid,noise,0,1,4634.695331,0,3,4.5971144,1,TRUE,14,A,2023-09-11_10h38.46.503,exp3,2022.2.2
,,,,,,,,,,,,,,,,,,,,,,,84,1158,Valid,noise,0,1,4643.782582,0,3,6.9813756,3,TRUE,14,A,2023-09-11_10h38.46.503,exp3,2022.2.2
,,,,,,,,,,,,,,,,,,,,,,,86,-1716,Valid,noise,0,1,4648.007214,0,2,3.2461372,1,TRUE,14,A,2023-09-11_10h38.46.503,exp3,2022.2.2
,,,,,,,,,,,,,,,,,,,,,,,88,1716,Valid,noise,0,1,4656.662917,0,2,8.1813904,3,TRUE,14,A,2023-09-11_10h38.46.503,exp3,2022.2.2
,,,,,,,,,,,,,,,,,,,,,,,90,1158,Valid,signal,0,1,4661.366974,1,2,2.4796921,1,TRUE,14,A,2023-09-11_10h38.46.503,exp3,2022.2.2
,,,,,,,,,,,,,,,,,,,,,,,92,-1158,Valid,signal,0,2,4665.030985,0,2,2.8794092,1,TRUE,14,A,2023-09-11_10h38.46.503,exp3,2022.2.2
,,,,,,,,,,,,,,,,,,,,,,,94,-557,Valid,signal,0,1,4669.702947,1,2,3.7965814,1,TRUE,14,A,2023-09-11_10h38.46.503,exp3,2022.2.2
,,,,,,,,,,,,,,,,,,,,,,,96,1716,Invalid,signal,0,2,4673.830815,0,2,3.8962998,1,TRUE,14,A,2023-09-11_10h38.46.503,exp3,2022.2.2
,,,,,,,,,,,,,,,,,,,,,,,98,-2274,Valid,noise,0,1,4680.710786,0,2,4.9805532,2,TRUE,14,A,2023-09-11_10h38.46.503,exp3,2022.2.2
,,,,,,,,,,,,,,,,,,,,,,,100,-1716,Valid,signal,0,2,4685.302678,0,2,3.4970478,1,TRUE,14,A,2023-09-11_10h38.46.503,exp3,2022.2.2
,,,,,,,,,,,,,,,,,,,,,,,102,-2274,Valid,signal,0,1,4689.543167,1,2,3.3791274,1,TRUE,14,A,2023-09-11_10h38.46.503,exp3,2022.2.2
,,,,,,,,,,,,,,,,,,,,,,,104,1158,Valid,signal,0,1,4693.847826,1,4,3.4463345,1,TRUE,14,A,2023-09-11_10h38.46.503,exp3,2022.2.2
,,,,,,,,,,,,,,,,,,,,,,,106,2274,Valid,signal,0,1,4697.959039,1,1,3.4296632,1,TRUE,14,A,2023-09-11_10h38.46.503,exp3,2022.2.2
,,,,,,,,,,,,,,,,,,,,,,,108,-1716,Valid,signal,0,1,4702.75947,1,3,4.3970356,1,TRUE,14,A,2023-09-11_10h38.46.503,exp3,2022.2.2
,,,,,,,,,,,,,,,,,,,,,,,110,-557,Valid,signal,0,2,4708.439867,0,2,4.3802945,1,TRUE,14,A,2023-09-11_10h38.46.503,exp3,2022.2.2
,,,,,,,,,,,,,,,,,,,,,,,112,2274,Valid,noise,0,2,4715.702931,1,2,5.2301429,2,TRUE,14,A,2023-09-11_10h38.46.503,exp3,2022.2.2
,,,,,,,,,,,,,,,,,,,,,,,114,-2274,Valid,signal,0,1,4718.871469,1,2,2.0629406,1,TRUE,14,A,2023-09-11_10h38.46.503,exp3,2022.2.2
,,,,,,,,,,,,,,,,,,,,,,,116,-1716,Valid,noise,0,2,4726.039839,1,1,7.5311893,1,TRUE,14,A,2023-09-11_10h38.46.503,exp3,2022.2.2
,,,,,,,,,,,,,,,,,,,,,,,118,-1158,Invalid,signal,0,1,4731.334894,1,3,3.7969554,1,TRUE,14,A,2023-09-11_10h38.46.503,exp3,2022.2.2
,,,,,,,,,,,,,,,,,,,,,,,120,1716,Valid,noise,0,2,4744.423906,1,2,12.4660267,6,TRUE,14,A,2023-09-11_10h38.46.503,exp3,2022.2.2
,,,,,,,,,,,,,,,,,,,,,,,122,-557,Invalid,signal,0,1,4749.318469,1,2,3.0133373,1,TRUE,14,A,2023-09-11_10h38.46.503,exp3,2022.2.2
,,,,,,,,,,,,,,,,,,,,,,,124,1158,Valid,noise,0,2,4753.239436,1,2,2.5953014,1,TRUE,14,A,2023-09-11_10h38.46.503,exp3,2022.2.2
,,,,,,,,,,,,,,,,,,,,,,,126,1158,Valid,signal,0,1,4757.559005,1,3,4.1634431,1,TRUE,14,A,2023-09-11_10h38.46.503,exp3,2022.2.2
,,,,,,,,,,,,,,,,,,,,,,,128,557,Valid,signal,0,2,4765.159637,0,3,6.3312199,2,TRUE,14,A,2023-09-11_10h38.46.503,exp3,2022.2.2
,,,,,,,,,,,,,,,,,,,,,,,130,-557,Valid,signal,0,1,4773.143318,1,2,7.23053,3,TRUE,14,A,2023-09-11_10h38.46.503,exp3,2022.2.2
,,,,,,,,,,,,,,,,,,,,,,,132,-1716,Valid,signal,0,2,4781.399291,0,2,6.6646321,4,TRUE,14,A,2023-09-11_10h38.46.503,exp3,2022.2.2
,,,,,,,,,,,,,,,,,,,,,,,134,1716,Valid,signal,0,1,4786.998802,1,2,4.6303396,1,TRUE,14,A,2023-09-11_10h38.46.503,exp3,2022.2.2
,,,,,,,,,,,,,,,,,,,,,,,136,2274,Valid,signal,0,2,4795.062627,0,1,7.1475363,3,TRUE,14,A,2023-09-11_10h38.46.503,exp3,2022.2.2
,,,,,,,,,,,,,,,,,,,,,,,138,-557,Valid,noise,0,2,4806.246532,1,3,10.9499087,4,TRUE,14,A,2023-09-11_10h38.46.503,exp3,2022.2.2
,,,,,,,,,,,,,,,,,,,,,,,140,1158,Invalid,noise,0,2,4815.127681,1,2,7.9638247,3,TRUE,14,A,2023-09-11_10h38.46.503,exp3,2022.2.2
,,,,,,,,,,,,,,,,,,,,,,,142,-557,Invalid,signal,0,1,4820.454607,1,3,4.6801228,1,TRUE,14,A,2023-09-11_10h38.46.503,exp3,2022.2.2
,,,,,,,,,,,,,,,,,,,,,,,144,1716,Invalid,signal,0,2,4826.11854,0,2,3.7804334,1,TRUE,14,A,2023-09-11_10h38.46.503,exp3,2022.2.2
,,,,,,,,,,,,,,,,,,,,,,,146,-1716,Valid,noise,0,1,4830.471833,0,2,2.6952565,1,TRUE,14,A,2023-09-11_10h38.46.503,exp3,2022.2.2
,,,,,,,,,,,,,,,,,,,,,,,148,1158,Valid,noise,0,1,4838.262951,0,3,7.1649503,3,TRUE,14,A,2023-09-11_10h38.46.503,exp3,2022.2.2
,,,,,,,,,,,,,,,,,,,,,,,150,2274,Valid,noise,0,1,4842.583049,0,3,2.8627665,1,TRUE,14,A,2023-09-11_10h38.46.503,exp3,2022.2.2
,,,,,,,,,,,,,,,,,,,,,,,152,-2274,Valid,noise,0,1,4847.046761,0,1,4.7799743,1,TRUE,14,A,2023-09-11_10h38.46.503,exp3,2022.2.2
,,,,,,,,,,,,,,,,,,,,,,,154,557,Valid,signal,0,2,4852.087763,0,3,4.1798793,1,TRUE,14,A,2023-09-11_10h38.46.503,exp3,2022.2.2
,,,,,,,,,,,,,,,,,,,,,,,156,2274,Valid,signal,0,1,4857.92768,1,3,4.1301777,1,TRUE,14,A,2023-09-11_10h38.46.503,exp3,2022.2.2
,,,,,,,,,,,,,,,,,,,,,,,158,-1158,Valid,noise,0,2,4866.503567,1,2,7.4983405,3,TRUE,14,A,2023-09-11_10h38.46.503,exp3,2022.2.2
,,,,,,,,,,,,,,,,,,,,,,,160,-1716,Valid,signal,0,2,4871.79958,0,2,3.6622916,1,TRUE,14,A,2023-09-11_10h38.46.503,exp3,2022.2.2
,,,,,,,,,,,,,,,,,,,,,,,162,-2274,Valid,signal,0,1,4875.463791,1,2,2.5127553,1,TRUE,14,A,2023-09-11_10h38.46.503,exp3,2022.2.2
,,,,,,,,,,,,,,,,,,,,,,,164,557,Valid,signal,0,2,4896.198549,0,2,23.1375372,11,TRUE,14,A,2023-09-11_10h38.46.503,exp3,2022.2.2
,,,,,,,,,,,,,,,,,,,,,,,166,-557,Valid,noise,0,1,4905.718639,0,2,5.6478465,2,TRUE,14,A,2023-09-11_10h38.46.503,exp3,2022.2.2
,,,,,,,,,,,,,,,,,,,,,,,168,557,Valid,signal,0,2,4909.926578,0,2,2.8788615,1,TRUE,14,A,2023-09-11_10h38.46.503,exp3,2022.2.2
,,,,,,,,,,,,,,,,,,,,,,,170,-1716,Valid,signal,0,1,4914.406699,1,2,3.4130616,1,TRUE,14,A,2023-09-11_10h38.46.503,exp3,2022.2.2
,,,,,,,,,,,,,,,,,,,,,,,172,2274,Valid,noise,0,2,4918.263926,1,2,2.7626927,1,TRUE,14,A,2023-09-11_10h38.46.503,exp3,2022.2.2
,,,,,,,,,,,,,,,,,,,,,,,174,-2274,Valid,signal,0,1,4921.607741,1,2,2.3297977,1,TRUE,14,A,2023-09-11_10h38.46.503,exp3,2022.2.2
,,,,,,,,,,,,,,,,,,,,,,,176,-1158,Valid,signal,0,1,4925.670542,1,2,3.112963,1,TRUE,14,A,2023-09-11_10h38.46.503,exp3,2022.2.2
,,,,,,,,,,,,,,,,,,,,,,,178,-1158,Valid,noise,0,2,4929.207431,1,3,3.5132605,1,TRUE,14,A,2023-09-11_10h38.46.503,exp3,2022.2.2
,,,,,,,,,,,,,,,,,,,,,,,180,-557,Valid,signal,0,1,4934.215275,1,3,2.9627482,1,TRUE,14,A,2023-09-11_10h38.46.503,exp3,2022.2.2
,,,,,,,,,,,,,,,,,,,,,,,182,1158,Valid,noise,0,2,4938.00685,1,3,2.9127758,1,TRUE,14,A,2023-09-11_10h38.46.503,exp3,2022.2.2
,,,,,,,,,,,,,,,,,,,,,,,184,1716,Valid,noise,0,1,4941.927197,0,2,3.5296278,1,TRUE,14,A,2023-09-11_10h38.46.503,exp3,2022.2.2
,,,,,,,,,,,,,,,,,,,,,,,186,2274,Valid,signal,0,1,4947.350601,1,1,5.6644426,1,TRUE,14,A,2023-09-11_10h38.46.503,exp3,2022.2.2
,,,,,,,,,,,,,,,,,,,,,,,188,2274,Valid,noise,0,2,4955.014555,1,1,5.4299293,2,TRUE,14,A,2023-09-11_10h38.46.503,exp3,2022.2.2
,,,,,,,,,,,,,,,,,,,,,,,190,-1158,Valid,noise,0,2,4959.97472,1,1,4.0464966,1,TRUE,14,A,2023-09-11_10h38.46.503,exp3,2022.2.2
,,,,,,,,,,,,,,,,,,,,,,,192,-557,Valid,noise,0,1,4964.567054,0,2,3.7962189,1,TRUE,14,A,2023-09-11_10h38.46.503,exp3,2022.2.2
,,,,,,,,,,,,,,,,,,,,,,,194,557,Invalid,signal,0,1,4969.095798,1,2,2.4627679,1,TRUE,14,A,2023-09-11_10h38.46.503,exp3,2022.2.2
,,,,,,,,,,,,,,,,,,,,,,,196,-1158,Invalid,signal,0,2,4973.047419,0,2,3.0462333,1,TRUE,14,A,2023-09-11_10h38.46.503,exp3,2022.2.2
,,,,,,,,,,,,,,,,,,,,,,,198,1716,Valid,signal,0,1,4977.447068,1,2,3.2797968,1,TRUE,14,A,2023-09-11_10h38.46.503,exp3,2022.2.2
,,,,,,,,,,,,,,,,,,,,,,,200,-557,Invalid,noise,0,1,4981.959055,0,2,4.046685,1,TRUE,14,A,2023-09-11_10h38.46.503,exp3,2022.2.2
,,,,,,,,,,,,,,,,,,,,,,,202,557,Valid,noise,0,2,4985.959881,1,2,2.429107,1,TRUE,14,A,2023-09-11_10h38.46.503,exp3,2022.2.2
,,,,,,,,,,,,,,,,,,,,,,,204,-1158,Valid,signal,0,1,4988.998813,1,2,2.1124131,1,TRUE,14,A,2023-09-11_10h38.46.503,exp3,2022.2.2
,,,,,,,,,,,,,,,,,,,,,,,206,-1158,Valid,signal,0,1,4992.534842,1,2,2.3295124,1,TRUE,14,A,2023-09-11_10h38.46.503,exp3,2022.2.2
,,,,,,,,,,,,,,,,,,,,,,,208,-2274,Valid,noise,0,2,4996.407413,1,1,3.0627304,1,TRUE,14,A,2023-09-11_10h38.46.503,exp3,2022.2.2
,,,,,,,,,,,,,,,,,,,,,,,210,2274,Valid,signal,0,2,4999.654588,0,1,2.1125971,1,TRUE,14,A,2023-09-11_10h38.46.503,exp3,2022.2.2
,,,,,,,,,,,,,,,,,,,,,,,212,-557,Valid,noise,0,1,5003.335063,0,1,2.8128632,1,TRUE,14,A,2023-09-11_10h38.46.503,exp3,2022.2.2
,,,,,,,,,,,,,,,,,,,,,,,214,2274,Valid,noise,0,1,5007.783678,0,2,3.813293,1,TRUE,14,A,2023-09-11_10h38.46.503,exp3,2022.2.2
,,,,,,,,,,,,,,,,,,,,,,,216,1158,Valid,signal,0,1,5012.647208,1,3,4.463628,1,TRUE,14,A,2023-09-11_10h38.46.503,exp3,2022.2.2
,,,,,,,,,,,,,,,,,,,,,,,218,-2274,Valid,signal,0,2,5017.031111,0,2,2.4959321,1,TRUE,14,A,2023-09-11_10h38.46.503,exp3,2022.2.2
,,,,,,,,,,,,,,,,,,,,,,,220,557,Valid,noise,0,2,5021.60673,1,3,4.3302331,1,TRUE,14,A,2023-09-11_10h38.46.503,exp3,2022.2.2
,,,,,,,,,,,,,,,,,,,,,,,222,-1158,Valid,noise,0,2,5026.326534,1,3,3.0461622,1,TRUE,14,A,2023-09-11_10h38.46.503,exp3,2022.2.2
,,,,,,,,,,,,,,,,,,,,,,,224,-1158,Valid,noise,0,2,5030.198751,1,3,2.4461274,1,TRUE,14,A,2023-09-11_10h38.46.503,exp3,2022.2.2
,,,,,,,,,,,,,,,,,,,,,,,226,557,Valid,noise,0,2,5034.135083,1,3,3.1465191,1,TRUE,14,A,2023-09-11_10h38.46.503,exp3,2022.2.2
,,,,,,,,,,,,,,,,,,,,,,,228,-1716,Invalid,noise,0,1,5037.926575,0,2,3.2130595,1,TRUE,14,A,2023-09-11_10h38.46.503,exp3,2022.2.2
,,,,,,,,,,,,,,,,,,,,,,,230,-2274,Invalid,noise,0,1,5042.391532,0,1,2.9132407,1,TRUE,14,A,2023-09-11_10h38.46.503,exp3,2022.2.2
,,,,,,,,,,,,,,,,,,,,,,,232,-2274,Valid,noise,0,2,5045.60725,1,1,2.2122141,1,TRUE,14,A,2023-09-11_10h38.46.503,exp3,2022.2.2
,,,,,,,,,,,,,,,,,,,,,,,234,2274,Valid,noise,0,1,5049.382758,0,1,2.7964685,1,TRUE,14,A,2023-09-11_10h38.46.503,exp3,2022.2.2
,,,,,,,,,,,,,,,,,,,,,,,236,-557,Valid,signal,0,2,5052.903067,0,2,3.1458741,1,TRUE,14,A,2023-09-11_10h38.46.503,exp3,2022.2.2
,,,,,,,,,,,,,,,,,,,,,,,238,1716,Valid,signal,0,1,5057.190971,1,2,2.79631,1,TRUE,14,A,2023-09-11_10h38.46.503,exp3,2022.2.2
,,,,,,,,,,,,,,,,,,,,,,,240,-1158,Valid,noise,0,2,5061.158668,1,2,2.9129418,1,TRUE,14,A,2023-09-11_10h38.46.503,exp3,2022.2.2
,,,,,,,,,,,,,,,,,,,,,,,242,-2274,Valid,noise,0,1,5064.82257,0,3,2.8292388,1,TRUE,14,A,2023-09-11_10h38.46.503,exp3,2022.2.2
,,,,,,,,,,,,,,,,,,,,,,,244,-1716,Invalid,signal,0,2,5068.870824,0,2,3.0120794,1,TRUE,14,A,2023-09-11_10h38.46.503,exp3,2022.2.2
,,,,,,,,,,,,,,,,,,,,,,,246,1158,Invalid,signal,0,1,5072.823138,1,2,2.6797395,1,TRUE,14,A,2023-09-11_10h38.46.503,exp3,2022.2.2
,,,,,,,,,,,,,,,,,,,,,,,248,-557,Invalid,noise,0,2,5077.239721,1,3,3.3297928,1,TRUE,14,A,2023-09-11_10h38.46.503,exp3,2022.2.2
,,,,,,,,,,,,,,,,,,,,,,,250,-2274,Valid,noise,0,1,5080.711669,0,2,2.579013,1,TRUE,14,A,2023-09-11_10h38.46.503,exp3,2022.2.2
,,,,,,,,,,,,,,,,,,,,,,,252,-2274,Valid,signal,0,2,5084.246749,0,2,2.4461554,1,TRUE,14,A,2023-09-11_10h38.46.503,exp3,2022.2.2
,,,,,,,,,,,,,,,,,,,,,,,254,557,Valid,noise,0,2,5087.607481,1,2,2.3957845,1,TRUE,14,A,2023-09-11_10h38.46.503,exp3,2022.2.2
,,,,,,,,,,,,,,,,,,,,,,,256,557,Valid,signal,0,2,5091.654763,0,3,3.8636098,1,TRUE,14,A,2023-09-11_10h38.46.503,exp3,2022.2.2
,,,,,,,,,,,,,,,,,,,,,,,258,-1158,Valid,signal,0,1,5096.039608,1,3,2.6124987,1,TRUE,14,A,2023-09-11_10h38.46.503,exp3,2022.2.2
,,,,,,,,,,,,,,,,,,,,,,,260,-1158,Valid,signal,0,1,5102.215237,1,2,5.564329,2,TRUE,14,A,2023-09-11_10h38.46.503,exp3,2022.2.2
,,,,,,,,,,,,,,,,,,,,,,,262,2274,Valid,noise,0,2,5106.8554,1,2,3.3630548,1,TRUE,14,A,2023-09-11_10h38.46.503,exp3,2022.2.2
,,,,,,,,,,,,,,,,,,,,,,,264,1158,Valid,noise,0,1,5113.127362,0,3,5.7974716,2,TRUE,14,A,2023-09-11_10h38.46.503,exp3,2022.2.2
,,,,,,,,,,,,,,,,,,,,,,,266,-557,Valid,signal,0,1,5117.446608,1,2,3.1466779,1,TRUE,14,A,2023-09-11_10h38.46.503,exp3,2022.2.2
,,,,,,,,,,,,,,,,,,,,,,,268,1716,Valid,noise,0,1,5123.735175,0,2,5.0128812,2,TRUE,14,A,2023-09-11_10h38.46.503,exp3,2022.2.2
,,,,,,,,,,,,,,,,,,,,,,,270,-2274,Invalid,signal,0,1,5127.719829,1,2,2.8298353,1,TRUE,14,A,2023-09-11_10h38.46.503,exp3,2022.2.2
,,,,,,,,,,,,,,,,,,,,,,,272,1716,Valid,noise,0,2,5131.366625,1,2,2.8625002,1,TRUE,14,A,2023-09-11_10h38.46.503,exp3,2022.2.2
,,,,,,,,,,,,,,,,,,,,,,,274,-1716,Valid,noise,0,2,5137.111043,1,2,4.7472416,2,TRUE,14,A,2023-09-11_10h38.46.503,exp3,2022.2.2
,,,,,,,,,,,,,,,,,,,,,,,276,-1158,Valid,noise,0,1,5142.886735,0,3,5.347006,2,TRUE,14,A,2023-09-11_10h38.46.503,exp3,2022.2.2
,,,,,,,,,,,,,,,,,,,,,,,278,-557,Valid,noise,0,2,5149.095668,1,3,5.6813412,2,TRUE,14,A,2023-09-11_10h38.46.503,exp3,2022.2.2
,,,,,,,,,,,,,,,,,,,,,,,280,-1158,Valid,signal,0,1,5154.071301,1,2,2.8291389,1,TRUE,14,A,2023-09-11_10h38.46.503,exp3,2022.2.2
,,,,,,,,,,,,,,,,,,,,,,,282,-1158,Valid,signal,0,2,5157.975889,0,2,2.7793894,1,TRUE,14,A,2023-09-11_10h38.46.503,exp3,2022.2.2
,,,,,,,,,,,,,,,,,,,,,,,284,1716,Valid,noise,0,1,5162.822771,0,1,4.7634571,1,TRUE,14,A,2023-09-11_10h38.46.503,exp3,2022.2.2
,,,,,,,,,,,,,,,,,,,,,,,286,1158,Valid,noise,0,2,5167.814609,1,3,3.7968899,1,TRUE,14,A,2023-09-11_10h38.46.503,exp3,2022.2.2
,,,,,,,,,,,,,,,,,,,,,,,288,557,Valid,noise,0,2,5173.799311,1,2,4.3963052,2,TRUE,14,A,2023-09-11_10h38.46.503,exp3,2022.2.2
,,,,,,,,,,,,,,,,,,,,,,,290,-2274,Invalid,noise,0,1,5180.295092,0,1,6.0141794,2,TRUE,14,A,2023-09-11_10h38.46.503,exp3,2022.2.2
,,,,,,,,,,,,,,,,,,,,,,,292,557,Invalid,signal,0,2,5186.455975,0,3,6.2139446,2,TRUE,14,A,2023-09-11_10h38.46.503,exp3,2022.2.2
,,,,,,,,,,,,,,,,,,,,,,,294,1716,Valid,signal,0,1,5192.199121,1,1,4.3467875,1,TRUE,14,A,2023-09-11_10h38.46.503,exp3,2022.2.2
,,,,,,,,,,,,,,,,,,,,,,,296,2274,Valid,signal,0,2,5198.135242,0,2,5.730458,1,TRUE,14,A,2023-09-11_10h38.46.503,exp3,2022.2.2
,,,,,,,,,,,,,,,,,,,,,,,298,1716,Valid,signal,0,1,5204.310919,1,3,3.963894,1,TRUE,14,A,2023-09-11_10h38.46.503,exp3,2022.2.2
,,,,,,,,,,,,,,,,,,,,,,,300,1158,Valid,signal,0,1,5208.871455,1,2,2.762486,1,TRUE,14,A,2023-09-11_10h38.46.503,exp3,2022.2.2
,,,,,,,,,,,,,,,,,,,,,,,302,1158,Invalid,noise,0,2,5223.543022,1,2,15.0506516,7,TRUE,14,A,2023-09-11_10h38.46.503,exp3,2022.2.2
,,,,,,,,,,,,,,,,,,,,,,,304,-1716,Valid,signal,0,2,5229.143136,0,3,4.6139356,1,TRUE,14,A,2023-09-11_10h38.46.503,exp3,2022.2.2
,,,,,,,,,,,,,,,,,,,,,,,306,557,Valid,noise,0,2,5236.599599,1,3,5.9137471,2,TRUE,14,A,2023-09-11_10h38.46.503,exp3,2022.2.2
,,,,,,,,,,,,,,,,,,,,,,,308,-2274,Valid,signal,0,1,5243.063873,1,2,4.6135573,2,TRUE,14,A,2023-09-11_10h38.46.503,exp3,2022.2.2
,,,,,,,,,,,,,,,,,,,,,,,310,-557,Valid,noise,0,2,5248.583905,1,3,5.0302753,2,TRUE,14,A,2023-09-11_10h38.46.503,exp3,2022.2.2
,,,,,,,,,,,,,,,,,,,,,,,312,-557,Valid,noise,0,1,5278.42344,0,3,30.1563366,15,TRUE,14,A,2023-09-11_10h38.46.503,exp3,2022.2.2
,,,,,,,,,,,,,,,,,,,,,,,314,2274,Valid,signal,0,2,5284.711402,0,1,3.9801223,1,TRUE,14,A,2023-09-11_10h38.46.503,exp3,2022.2.2
,,,,,,,,,,,,,,,,,,,,,,,316,1716,Valid,signal,0,1,5289.798669,1,2,4.2637262,1,TRUE,14,A,2023-09-11_10h38.46.503,exp3,2022.2.2
,,,,,,,,,,,,,,,,,,,,,,,318,-557,Valid,signal,0,1,5294.870985,1,2,3.2134211,1,TRUE,14,A,2023-09-11_10h38.46.503,exp3,2022.2.2
,,,,,,,,,,,,,,,,,,,,,,,320,557,Valid,noise,0,2,5299.031388,1,2,3.4289719,1,TRUE,14,A,2023-09-11_10h38.46.503,exp3,2022.2.2
,,,,,,,,,,,,,,,,,,,,,,,322,-1158,Valid,noise,0,2,5307.862857,1,1,8.114982,4,TRUE,14,A,2023-09-11_10h38.46.503,exp3,2022.2.2
,,,,,,,,,,,,,,,,,,,,,,,324,1158,Valid,noise,0,1,5314.151771,0,2,7.0813661,2,TRUE,14,A,2023-09-11_10h38.46.503,exp3,2022.2.2
,,,,,,,,,,,,,,,,,,,,,,,326,-1158,Valid,noise,0,2,5322.310919,1,3,5.3637225,2,TRUE,14,A,2023-09-11_10h38.46.503,exp3,2022.2.2
,,,,,,,,,,,,,,,,,,,,,,,328,-557,Valid,noise,0,1,5332.599441,0,2,9.8485056,4,TRUE,14,A,2023-09-11_10h38.46.503,exp3,2022.2.2
,,,,,,,,,,,,,,,,,,,,,,,330,2274,Valid,noise,0,2,5337.95949,1,1,3.8968672,1,TRUE,14,A,2023-09-11_10h38.46.503,exp3,2022.2.2
,,,,,,,,,,,,,,,,,,,,,,,332,-557,Valid,signal,0,1,5342.631352,1,3,3.3131563,1,TRUE,14,A,2023-09-11_10h38.46.503,exp3,2022.2.2
,,,,,,,,,,,,,,,,,,,,,,,334,2274,Invalid,noise,0,1,5348.343963,0,2,4.5301358,2,TRUE,14,A,2023-09-11_10h38.46.503,exp3,2022.2.2
,,,,,,,,,,,,,,,,,,,,,,,336,-2274,Valid,signal,0,2,5352.471347,0,1,3.4635604,1,TRUE,14,A,2023-09-11_10h38.46.503,exp3,2022.2.2
,,,,,,,,,,,,,,,,,,,,,,,338,-2274,Valid,noise,0,2,5356.038863,1,1,1.8617305,1,TRUE,14,A,2023-09-11_10h38.46.503,exp3,2022.2.2
,,,,,,,,,,,,,,,,,,,,,,,340,-2274,Valid,signal,0,1,5360.45501,1,1,4.3308209,1,TRUE,14,A,2023-09-11_10h38.46.503,exp3,2022.2.2
,,,,,,,,,,,,,,,,,,,,,,,342,1158,Valid,signal,0,1,5367.351525,1,3,5.6299456,2,TRUE,14,A,2023-09-11_10h38.46.503,exp3,2022.2.2
,,,,,,,,,,,,,,,,,,,,,,,344,-1716,Valid,noise,0,2,5371.543191,1,2,2.6962132,1,TRUE,14,A,2023-09-11_10h38.46.503,exp3,2022.2.2
,,,,,,,,,,,,,,,,,,,,,,,346,-1158,Invalid,noise,0,1,5375.175375,0,2,2.7291383,1,TRUE,14,A,2023-09-11_10h38.46.503,exp3,2022.2.2
