trials.label,trials.startVal,trials.maxVal,trials.minVal,trials.startValSd,trials.pthreshold,trials.beta,trials.delta,trials.gamma,trials.grain,trials.stepSize,trials.range,trials.cue,trials.thisIndex,trials.thisRepN,trials.thisN,trials.direction,trials.stepType,trials.intensity,signalOpacity,level,trials.response,stair_eye_ok,nTrial,position,validity,Stimulus,orientation,response_key,response_rt,response_correct,confidence,confidence_rt,curr_trial_rep,eye_ok,participant,session,date,expName,psychopyVersion,
low_opac_i,0.4,1,0.01,3,0.82,3.5,0.01,0,0.01,4,5,Invalid,2,1,0,start,lin,0.4,0.4,0.4,1,True,,,,,,,,,,,,,12,A,2023-09-09_11h50.39.139,exp3,2022.2.2,
high_opac_v,0.01,1,0.01,3,0.82,3.5,0.01,0,0.01,4,5,Valid,1,1,1,start,lin,0.01,0,0.01,1,True,,,,,,,,,,,,,12,A,2023-09-09_11h50.39.139,exp3,2022.2.2,
low_opac_v,0.4,1,0.01,3,0.82,3.5,0.01,0,0.01,4,5,Valid,0,1,2,start,lin,0.4,0.4,0.4,1,True,,,,,,,,,,,,,12,A,2023-09-09_11h50.39.139,exp3,2022.2.2,
low_opac_i,0.4,1,0.01,3,0.82,3.5,0.01,0,0.01,4,5,Invalid,2,2,3,start,lin,0.01,0,0.01,1,True,,,,,,,,,,,,,12,A,2023-09-09_11h50.39.139,exp3,2022.2.2,
high_opac_v,0.01,1,0.01,3,0.82,3.5,0.01,0,0.01,4,5,Valid,1,2,4,start,lin,0.01,0,0.01,1,True,,,,,,,,,,,,,12,A,2023-09-09_11h50.39.139,exp3,2022.2.2,
low_opac_v,0.4,1,0.01,3,0.82,3.5,0.01,0,0.01,4,5,Valid,0,2,5,start,lin,0.01,0.01,0.01,1,True,,,,,,,,,,,,,12,A,2023-09-09_11h50.39.139,exp3,2022.2.2,
high_opac_v,0.01,1,0.01,3,0.82,3.5,0.01,0,0.01,4,5,Valid,1,3,6,start,lin,0.01,0,0.01,1,True,,,,,,,,,,,,,12,A,2023-09-09_11h50.39.139,exp3,2022.2.2,
low_opac_v,0.4,1,0.01,3,0.82,3.5,0.01,0,0.01,4,5,Valid,0,3,7,start,lin,0.01,0,0.01,1,True,,,,,,,,,,,,,12,A,2023-09-09_11h50.39.139,exp3,2022.2.2,
low_opac_i,0.4,1,0.01,3,0.82,3.5,0.01,0,0.01,4,5,Invalid,2,3,8,start,lin,0.01,0,0.01,1,True,,,,,,,,,,,,,12,A,2023-09-09_11h50.39.139,exp3,2022.2.2,
high_opac_v,0.01,1,0.01,3,0.82,3.5,0.01,0,0.01,4,5,Valid,1,4,9,start,lin,0.01,0.01,0.01,1,True,,,,,,,,,,,,,12,A,2023-09-09_11h50.39.139,exp3,2022.2.2,
low_opac_i,0.4,1,0.01,3,0.82,3.5,0.01,0,0.01,4,5,Invalid,2,4,10,start,lin,0.01,0,0.01,1,True,,,,,,,,,,,,,12,A,2023-09-09_11h50.39.139,exp3,2022.2.2,
low_opac_v,0.4,1,0.01,3,0.82,3.5,0.01,0,0.01,4,5,Valid,0,4,11,start,lin,0.01,0,0.01,0,True,,,,,,,,,,,,,12,A,2023-09-09_11h50.39.139,exp3,2022.2.2,
low_opac_i,0.4,1,0.01,3,0.82,3.5,0.01,0,0.01,4,5,Invalid,2,5,12,start,lin,0.01,0,0.01,0,True,,,,,,,,,,,,,12,A,2023-09-09_11h50.39.139,exp3,2022.2.2,
high_opac_v,0.01,1,0.01,3,0.82,3.5,0.01,0,0.01,4,5,Valid,1,5,13,start,lin,0.01,0.01,0.01,0,True,,,,,,,,,,,,,12,A,2023-09-09_11h50.39.139,exp3,2022.2.2,
low_opac_v,0.4,1,0.01,3,0.82,3.5,0.01,0,0.01,4,5,Valid,0,5,14,start,lin,0.0158587974367983,0.0158587974367983,0.0158587974367983,0,True,,,,,,,,,,,,,12,A,2023-09-09_11h50.39.139,exp3,2022.2.2,
low_opac_v,0.4,1,0.01,3,0.82,3.5,0.01,0,0.01,4,5,Valid,0,6,15,start,lin,0.13783782732809702,0.13783782732809702,0.13783782732809702,1,True,,,,,,,,,,,,,12,A,2023-09-09_11h50.39.139,exp3,2022.2.2,
low_opac_i,0.4,1,0.01,3,0.82,3.5,0.01,0,0.01,4,5,Invalid,2,6,16,start,lin,0.01,0,0.01,0,True,,,,,,,,,,,,,12,A,2023-09-09_11h50.39.139,exp3,2022.2.2,
high_opac_v,0.01,1,0.01,3,0.82,3.5,0.01,0,0.01,4,5,Valid,1,6,17,start,lin,0.01,0,0.01,1,True,,,,,,,,,,,,,12,A,2023-09-09_11h50.39.139,exp3,2022.2.2,
low_opac_i,0.4,1,0.01,3,0.82,3.5,0.01,0,0.01,4,5,Invalid,2,7,18,start,lin,0.09211722752377788,0.09211722752377788,0.09211722752377788,1,True,,,,,,,,,,,,,12,A,2023-09-09_11h50.39.139,exp3,2022.2.2,
low_opac_v,0.4,1,0.01,3,0.82,3.5,0.01,0,0.01,4,5,Valid,0,7,19,start,lin,0.11402074894106817,0.11402074894106817,0.11402074894106817,1,True,,,,,,,,,,,,,12,A,2023-09-09_11h50.39.139,exp3,2022.2.2,
high_opac_v,0.01,1,0.01,3,0.82,3.5,0.01,0,0.01,4,5,Valid,1,7,20,start,lin,0.01,0,0.01,1,True,,,,,,,,,,,,,12,A,2023-09-09_11h50.39.139,exp3,2022.2.2,
high_opac_v,0.01,1,0.01,3,0.82,3.5,0.01,0,0.01,4,5,Valid,1,8,21,start,lin,0.01,0.01,0.01,1,True,,,,,,,,,,,,,12,A,2023-09-09_11h50.39.139,exp3,2022.2.2,
low_opac_i,0.4,1,0.01,3,0.82,3.5,0.01,0,0.01,4,5,Invalid,2,8,22,start,lin,0.07413750903451344,0,0.07413750903451344,0,True,,,,,,,,,,,,,12,A,2023-09-09_11h50.39.139,exp3,2022.2.2,
low_opac_v,0.4,1,0.01,3,0.82,3.5,0.01,0,0.01,4,5,Valid,0,8,23,start,lin,0.09512474627273354,0.09512474627273354,0.09512474627273354,0,True,,,,,,,,,,,,,12,A,2023-09-09_11h50.39.139,exp3,2022.2.2,
high_opac_v,0.01,1,0.01,3,0.82,3.5,0.01,0,0.01,4,5,Valid,1,9,24,start,lin,0.01,0,0.01,0,True,,,,,,,,,,,,,12,A,2023-09-09_11h50.39.139,exp3,2022.2.2,
low_opac_i,0.4,1,0.01,3,0.82,3.5,0.01,0,0.01,4,5,Invalid,2,9,25,start,lin,0.12455654084450357,0.12455654084450357,0.12455654084450357,0,True,,,,,,,,,,,,,12,A,2023-09-09_11h50.39.139,exp3,2022.2.2,
low_opac_v,0.4,1,0.01,3,0.82,3.5,0.01,0,0.01,4,5,Valid,0,9,26,start,lin,0.1495848970792541,0.1495848970792541,0.1495848970792541,1,True,,,,,,,,,,,,,12,A,2023-09-09_11h50.39.139,exp3,2022.2.2,
high_opac_v,0.01,1,0.01,3,0.82,3.5,0.01,0,0.01,4,5,Valid,1,10,27,start,lin,0.011666663859978832,0,0.011666663859978832,0,True,,,,,,,,,,,,,12,A,2023-09-09_11h50.39.139,exp3,2022.2.2,
low_opac_i,0.4,1,0.01,3,0.82,3.5,0.01,0,0.01,4,5,Invalid,2,10,28,start,lin,0.1704558836683386,0.1704558836683386,0.1704558836683386,1,True,,,,,,,,,,,,,12,A,2023-09-09_11h50.39.139,exp3,2022.2.2,
low_opac_v,0.4,1,0.01,3,0.82,3.5,0.01,0,0.01,4,5,Valid,0,10,29,start,lin,0.13652159285731114,0.13652159285731114,0.13652159285731114,0,True,,,,,,,,,,,,,12,A,2023-09-09_11h50.39.139,exp3,2022.2.2,
low_opac_v,0.4,1,0.01,3,0.82,3.5,0.01,0,0.01,4,5,Valid,0,11,30,start,lin,0.17855880853527567,0.17855880853527567,0.17855880853527567,0,True,,,,,,,,,,,,,12,A,2023-09-09_11h50.39.139,exp3,2022.2.2,
low_opac_i,0.4,1,0.01,3,0.82,3.5,0.01,0,0.01,4,5,Invalid,2,11,31,start,lin,0.15811607099197478,0.15811607099197478,0.15811607099197478,1,True,,,,,,,,,,,,,12,A,2023-09-09_11h50.39.139,exp3,2022.2.2,
high_opac_v,0.01,1,0.01,3,0.82,3.5,0.01,0,0.01,4,5,Valid,1,11,32,start,lin,0.052677497657970154,0,0.052677497657970154,1,True,,,,,,,,,,,,,12,A,2023-09-09_11h50.39.139,exp3,2022.2.2,
high_opac_v,0.01,1,0.01,3,0.82,3.5,0.01,0,0.01,4,5,Valid,1,12,33,start,lin,0.04455518933785708,0,0.04455518933785708,1,True,,,,,,,,,,,,,12,A,2023-09-09_11h50.39.139,exp3,2022.2.2,
low_opac_i,0.4,1,0.01,3,0.82,3.5,0.01,0,0.01,4,5,Invalid,2,12,34,start,lin,0.1478432423042474,0,0.1478432423042474,0,True,,,,,,,,,,,,,12,A,2023-09-09_11h50.39.139,exp3,2022.2.2,
low_opac_v,0.4,1,0.01,3,0.82,3.5,0.01,0,0.01,4,5,Valid,0,12,35,start,lin,0.21770687693233678,0.21770687693233678,0.21770687693233678,1,True,,,,,,,,,,,,,12,A,2023-09-09_11h50.39.139,exp3,2022.2.2,
high_opac_v,0.01,1,0.01,3,0.82,3.5,0.01,0,0.01,4,5,Valid,1,13,36,start,lin,0.037061109472214825,0.037061109472214825,0.037061109472214825,1,True,,,,,,,,,,,,,12,A,2023-09-09_11h50.39.139,exp3,2022.2.2,
low_opac_v,0.4,1,0.01,3,0.82,3.5,0.01,0,0.01,4,5,Valid,0,13,37,start,lin,0.2080037282991299,0,0.2080037282991299,0,True,,,,,,,,,,,,,12,A,2023-09-09_11h50.39.139,exp3,2022.2.2,
low_opac_i,0.4,1,0.01,3,0.82,3.5,0.01,0,0.01,4,5,Invalid,2,13,38,start,lin,0.18269862020400435,0,0.18269862020400435,0,True,,,,,,,,,,,,,12,A,2023-09-09_11h50.39.139,exp3,2022.2.2,
high_opac_v,0.01,1,0.01,3,0.82,3.5,0.01,0,0.01,4,5,Valid,1,14,39,start,lin,0.030575603209664973,0,0.030575603209664973,0,True,,,,,,,,,,,,,12,A,2023-09-09_11h50.39.139,exp3,2022.2.2,
low_opac_v,0.4,1,0.01,3,0.82,3.5,0.01,0,0.01,4,5,Valid,0,14,40,start,lin,0.24134909201689134,0,0.24134909201689134,1,True,,,,,,,,,,,,,12,A,2023-09-09_11h50.39.139,exp3,2022.2.2,
low_opac_i,0.4,1,0.01,3,0.82,3.5,0.01,0,0.01,4,5,Invalid,2,14,41,start,lin,0.21501263521142902,0,0.21501263521142902,1,True,,,,,,,,,,,,,12,A,2023-09-09_11h50.39.139,exp3,2022.2.2,
high_opac_v,0.01,1,0.01,3,0.82,3.5,0.01,0,0.01,4,5,Valid,1,15,42,start,lin,0.054354981324762505,0,0.054354981324762505,0,True,,,,,,,,,,,,,12,A,2023-09-09_11h50.39.139,exp3,2022.2.2,
low_opac_v,0.4,1,0.01,3,0.82,3.5,0.01,0,0.01,4,5,Valid,0,15,43,start,lin,0.23300991217250303,0.23300991217250303,0.23300991217250303,1,True,,,,,,,,,,,,,12,A,2023-09-09_11h50.39.139,exp3,2022.2.2,
low_opac_i,0.4,1,0.01,3,0.82,3.5,0.01,0,0.01,4,5,Invalid,2,15,44,start,lin,0.20701207803182545,0,0.20701207803182545,0,True,,,,,,,,,,,,,12,A,2023-09-09_11h50.39.139,exp3,2022.2.2,
low_opac_i,0.4,1,0.01,3,0.82,3.5,0.01,0,0.01,4,5,Invalid,2,16,45,start,lin,0.23618112229764085,0.23618112229764085,0.23618112229764085,1,True,,,,,,,,,,,,,12,A,2023-09-09_11h50.39.139,exp3,2022.2.2,
high_opac_v,0.01,1,0.01,3,0.82,3.5,0.01,0,0.01,4,5,Valid,1,16,46,start,lin,0.07564387275380624,0.07564387275380624,0.07564387275380624,0,True,,,,,,,,,,,,,12,A,2023-09-09_11h50.39.139,exp3,2022.2.2,
low_opac_v,0.4,1,0.01,3,0.82,3.5,0.01,0,0.01,4,5,Valid,0,16,47,start,lin,0.22544298532183216,0.22544298532183216,0.22544298532183216,1,True,,,,,,,,,,,,,12,A,2023-09-09_11h50.39.139,exp3,2022.2.2,
low_opac_v,0.4,1,0.01,3,0.82,3.5,0.01,0,0.01,4,5,Valid,0,17,48,start,lin,0.21897089160223054,0.21897089160223054,0.21897089160223054,1,True,,,,,,,,,,,,,12,A,2023-09-09_11h50.39.139,exp3,2022.2.2,
low_opac_i,0.4,1,0.01,3,0.82,3.5,0.01,0,0.01,4,5,Invalid,2,17,49,start,lin,0.2292269808785246,0.2292269808785246,0.2292269808785246,1,True,,,,,,,,,,,,,12,A,2023-09-09_11h50.39.139,exp3,2022.2.2,
high_opac_v,0.01,1,0.01,3,0.82,3.5,0.01,0,0.01,4,5,Valid,1,17,50,start,lin,0.09736428080007006,0.09736428080007006,0.09736428080007006,1,True,,,,,,,,,,,,,12,A,2023-09-09_11h50.39.139,exp3,2022.2.2,
high_opac_v,0.01,1,0.01,3,0.82,3.5,0.01,0,0.01,4,5,Valid,1,18,51,start,lin,0.09227313106692155,0.09227313106692155,0.09227313106692155,1,True,,,,,,,,,,,,,12,A,2023-09-09_11h50.39.139,exp3,2022.2.2,
low_opac_i,0.4,1,0.01,3,0.82,3.5,0.01,0,0.01,4,5,Invalid,2,18,52,start,lin,0.2227946856089772,0.2227946856089772,0.2227946856089772,1,True,,,,,,,,,,,,,12,A,2023-09-09_11h50.39.139,exp3,2022.2.2,
low_opac_v,0.4,1,0.01,3,0.82,3.5,0.01,0,0.01,4,5,Valid,0,18,53,start,lin,0.2128891822097111,0,0.2128891822097111,0,True,,,,,,,,,,,,,12,A,2023-09-09_11h50.39.139,exp3,2022.2.2,
high_opac_v,0.01,1,0.01,3,0.82,3.5,0.01,0,0.01,4,5,Valid,1,19,54,start,lin,0.08731665357308929,0.08731665357308929,0.08731665357308929,0,True,,,,,,,,,,,,,12,A,2023-09-09_11h50.39.139,exp3,2022.2.2,
low_opac_i,0.4,1,0.01,3,0.82,3.5,0.01,0,0.01,4,5,Invalid,2,19,55,start,lin,0.21669804067509404,0,0.21669804067509404,0,True,,,,,,,,,,,,,12,A,2023-09-09_11h50.39.139,exp3,2022.2.2,
low_opac_v,0.4,1,0.01,3,0.82,3.5,0.01,0,0.01,4,5,Valid,0,19,56,start,lin,0.23465827574316622,0,0.23465827574316622,0,True,,,,,,,,,,,,,12,A,2023-09-09_11h50.39.139,exp3,2022.2.2,
high_opac_v,0.01,1,0.01,3,0.82,3.5,0.01,0,0.01,4,5,Valid,1,20,57,start,lin,0.10563231845554136,0.10563231845554136,0.10563231845554136,0,True,,,,,,,,,,,,,12,A,2023-09-09_11h50.39.139,exp3,2022.2.2,
low_opac_v,0.4,1,0.01,3,0.82,3.5,0.01,0,0.01,4,5,Valid,0,20,58,start,lin,0.25514916685871125,0,0.25514916685871125,1,True,,,,,,,,,,,,,12,A,2023-09-09_11h50.39.139,exp3,2022.2.2,
low_opac_i,0.4,1,0.01,3,0.82,3.5,0.01,0,0.01,4,5,Invalid,2,20,59,start,lin,0.2387046638966189,0,0.2387046638966189,0,True,,,,,,,,,,,,,12,A,2023-09-09_11h50.39.139,exp3,2022.2.2,
low_opac_v,0.4,1,0.01,3,0.82,3.5,0.01,0,0.01,4,5,Valid,0,21,60,start,lin,0.2501579884648425,0,0.2501579884648425,1,True,,,,,,,,,,,,,12,A,2023-09-09_11h50.39.139,exp3,2022.2.2,
low_opac_i,0.4,1,0.01,3,0.82,3.5,0.01,0,0.01,4,5,Invalid,2,21,61,start,lin,0.25959594784719714,0,0.25959594784719714,0,True,,,,,,,,,,,,,12,A,2023-09-09_11h50.39.139,exp3,2022.2.2,
high_opac_v,0.01,1,0.01,3,0.82,3.5,0.01,0,0.01,4,5,Valid,1,21,62,start,lin,0.12370336838916915,0.12370336838916915,0.12370336838916915,1,True,,,,,,,,,,,,,12,A,2023-09-09_11h50.39.139,exp3,2022.2.2,
low_opac_i,0.4,1,0.01,3,0.82,3.5,0.01,0,0.01,4,5,Invalid,2,22,63,start,lin,0.279746154640919,0,0.279746154640919,0,True,,,,,,,,,,,,,12,A,2023-09-09_11h50.39.139,exp3,2022.2.2,
low_opac_v,0.4,1,0.01,3,0.82,3.5,0.01,0,0.01,4,5,Valid,0,22,64,start,lin,0.24532816442830985,0,0.24532816442830985,0,True,,,,,,,,,,,,,12,A,2023-09-09_11h50.39.139,exp3,2022.2.2,
high_opac_v,0.01,1,0.01,3,0.82,3.5,0.01,0,0.01,4,5,Valid,1,22,65,start,lin,0.11922900876064066,0.11922900876064066,0.11922900876064066,1,True,,,,,,,,,,,,,12,A,2023-09-09_11h50.39.139,exp3,2022.2.2,
high_opac_v,0.01,1,0.01,3,0.82,3.5,0.01,0,0.01,4,5,Valid,1,23,66,start,lin,0.1152152961959353,0,0.1152152961959353,1,True,,,,,,,,,,,,,12,A,2023-09-09_11h50.39.139,exp3,2022.2.2,
low_opac_i,0.4,1,0.01,3,0.82,3.5,0.01,0,0.01,4,5,Invalid,2,23,67,start,lin,0.29939097314535074,0.29939097314535074,0.29939097314535074,1,True,,,,,,,,,,,,,12,A,2023-09-09_11h50.39.139,exp3,2022.2.2,
low_opac_v,0.4,1,0.01,3,0.82,3.5,0.01,0,0.01,4,5,Valid,0,23,68,start,lin,0.26385343855878096,0,0.26385343855878096,1,True,,,,,,,,,,,,,12,A,2023-09-09_11h50.39.139,exp3,2022.2.2,
low_opac_v,0.4,1,0.01,3,0.82,3.5,0.01,0,0.01,4,5,Valid,0,24,69,start,lin,0.2593239018557221,0,0.2593239018557221,0,True,,,,,,,,,,,,,12,A,2023-09-09_11h50.39.139,exp3,2022.2.2,
low_opac_i,0.4,1,0.01,3,0.82,3.5,0.01,0,0.01,4,5,Invalid,2,24,70,start,lin,0.2945847696583287,0.2945847696583287,0.2945847696583287,0,True,,,,,,,,,,,,,12,A,2023-09-09_11h50.39.139,exp3,2022.2.2,
high_opac_v,0.01,1,0.01,3,0.82,3.5,0.01,0,0.01,4,5,Valid,1,24,71,start,lin,0.11154023570258537,0,0.11154023570258537,1,True,,,,,,,,,,,,,12,A,2023-09-09_11h50.39.139,exp3,2022.2.2,
high_opac_v,0.01,1,0.01,3,0.82,3.5,0.01,0,0.01,4,5,Valid,1,25,72,start,lin,0.1078345183370238,0.1078345183370238,0.1078345183370238,1,True,,,,,,,,,,,,,12,A,2023-09-09_11h50.39.139,exp3,2022.2.2,
low_opac_v,0.4,1,0.01,3,0.82,3.5,0.01,0,0.01,4,5,Valid,0,25,73,start,lin,0.2757979411505935,0.2757979411505935,0.2757979411505935,1,True,,,,,,,,,,,,,12,A,2023-09-09_11h50.39.139,exp3,2022.2.2,
low_opac_i,0.4,1,0.01,3,0.82,3.5,0.01,0,0.01,4,5,Invalid,2,25,74,start,lin,0.31201403387168797,0.31201403387168797,0.31201403387168797,1,True,,,,,,,,,,,,,12,A,2023-09-09_11h50.39.139,exp3,2022.2.2,
low_opac_v,0.4,1,0.01,3,0.82,3.5,0.01,0,0.01,4,5,Valid,0,26,75,start,lin,0.27195553673561434,0.27195553673561434,0.27195553673561434,1,True,,,,,,,,,,,,,12,A,2023-09-09_11h50.39.139,exp3,2022.2.2,
low_opac_i,0.4,1,0.01,3,0.82,3.5,0.01,0,0.01,4,5,Invalid,2,26,76,start,lin,0.3074924161192659,0.3074924161192659,0.3074924161192659,1,True,,,,,,,,,,,,,12,A,2023-09-09_11h50.39.139,exp3,2022.2.2,
high_opac_v,0.01,1,0.01,3,0.82,3.5,0.01,0,0.01,4,5,Valid,1,26,77,start,lin,0.10445869477508389,0,0.10445869477508389,1,True,,,,,,,,,,,,,12,A,2023-09-09_11h50.39.139,exp3,2022.2.2,
low_opac_i,0.4,1,0.01,3,0.82,3.5,0.01,0,0.01,4,5,Invalid,2,27,78,start,lin,0.3034428987792631,0.3034428987792631,0.3034428987792631,1,True,,,,,,,,,,,,,12,A,2023-09-09_11h50.39.139,exp3,2022.2.2,
high_opac_v,0.01,1,0.01,3,0.82,3.5,0.01,0,0.01,4,5,Valid,1,27,79,start,lin,0.10103453962580328,0.10103453962580328,0.10103453962580328,1,True,,,,,,,,,,,,,12,A,2023-09-09_11h50.39.139,exp3,2022.2.2,
low_opac_v,0.4,1,0.01,3,0.82,3.5,0.01,0,0.01,4,5,Valid,0,27,80,start,lin,0.2680873534628456,0.2680873534628456,0.2680873534628456,1,True,,,,,,,,,,,,,12,A,2023-09-09_11h50.39.139,exp3,2022.2.2,
high_opac_v,0.01,1,0.01,3,0.82,3.5,0.01,0,0.01,4,5,Valid,1,28,81,start,lin,0.09782120087983899,0.09782120087983899,0.09782120087983899,1,True,,,,,,,,,,,,,12,A,2023-09-09_11h50.39.139,exp3,2022.2.2,
low_opac_i,0.4,1,0.01,3,0.82,3.5,0.01,0,0.01,4,5,Invalid,2,28,82,start,lin,0.299384795601539,0,0.299384795601539,1,True,,,,,,,,,,,,,12,A,2023-09-09_11h50.39.139,exp3,2022.2.2,
low_opac_v,0.4,1,0.01,3,0.82,3.5,0.01,0,0.01,4,5,Valid,0,28,83,start,lin,0.26457181705801724,0,0.26457181705801724,1,True,,,,,,,,,,,,,12,A,2023-09-09_11h50.39.139,exp3,2022.2.2,
low_opac_v,0.4,1,0.01,3,0.82,3.5,0.01,0,0.01,4,5,Valid,0,29,84,start,lin,0.26101756497516587,0.26101756497516587,0.26101756497516587,1,True,,,,,,,,,,,,,12,A,2023-09-09_11h50.39.139,exp3,2022.2.2,
low_opac_i,0.4,1,0.01,3,0.82,3.5,0.01,0,0.01,4,5,Invalid,2,29,85,start,lin,0.2957022047923875,0,0.2957022047923875,1,True,,,,,,,,,,,,,12,A,2023-09-09_11h50.39.139,exp3,2022.2.2,
high_opac_v,0.01,1,0.01,3,0.82,3.5,0.01,0,0.01,4,5,Valid,1,29,86,start,lin,0.0948613280802112,0,0.0948613280802112,0,True,,,,,,,,,,,,,12,A,2023-09-09_11h50.39.139,exp3,2022.2.2,
high_opac_v,0.01,1,0.01,3,0.82,3.5,0.01,0,0.01,4,5,Valid,1,30,87,start,lin,0.10622054561881704,0,0.10622054561881704,1,True,,,,,,,,,,,,,12,A,2023-09-09_11h50.39.139,exp3,2022.2.2,
low_opac_i,0.4,1,0.01,3,0.82,3.5,0.01,0,0.01,4,5,Invalid,2,30,88,start,lin,0.29231189447076106,0,0.29231189447076106,1,True,,,,,,,,,,,,,12,A,2023-09-09_11h50.39.139,exp3,2022.2.2,
low_opac_v,0.4,1,0.01,3,0.82,3.5,0.01,0,0.01,4,5,Valid,0,30,89,start,lin,0.25769193422804926,0.25769193422804926,0.25769193422804926,1,True,,,,,,,,,,,,,12,A,2023-09-09_11h50.39.139,exp3,2022.2.2,
high_opac_v,0.01,1,0.01,3,0.82,3.5,0.01,0,0.01,4,5,Valid,1,31,90,start,lin,0.10350487733702368,0.10350487733702368,0.10350487733702368,1,True,,,,,,,,,,,,,12,A,2023-09-09_11h50.39.139,exp3,2022.2.2,
low_opac_i,0.4,1,0.01,3,0.82,3.5,0.01,0,0.01,4,5,Invalid,2,31,91,start,lin,0.28884857972093636,0,0.28884857972093636,0,True,,,,,,,,,,,,,12,A,2023-09-09_11h50.39.139,exp3,2022.2.2,
low_opac_v,0.4,1,0.01,3,0.82,3.5,0.01,0,0.01,4,5,Valid,0,31,92,start,lin,0.25463320041136733,0.25463320041136733,0.25463320041136733,1,True,,,,,,,,,,,,,12,A,2023-09-09_11h50.39.139,exp3,2022.2.2,
low_opac_i,0.4,1,0.01,3,0.82,3.5,0.01,0,0.01,4,5,Invalid,2,32,93,start,lin,0.30192544893150197,0,0.30192544893150197,0,True,,,,,,,,,,,,,12,A,2023-09-09_11h50.39.139,exp3,2022.2.2,
low_opac_v,0.4,1,0.01,3,0.82,3.5,0.01,0,0.01,4,5,Valid,0,32,94,start,lin,0.25150804664600024,0,0.25150804664600024,0,True,,,,,,,,,,,,,12,A,2023-09-09_11h50.39.139,exp3,2022.2.2,
high_opac_v,0.01,1,0.01,3,0.82,3.5,0.01,0,0.01,4,5,Valid,1,32,95,start,lin,0.10069244644777824,0.10069244644777824,0.10069244644777824,1,True,,,,,,,,,,,,,12,A,2023-09-09_11h50.39.139,exp3,2022.2.2,
low_opac_v,0.4,1,0.01,3,0.82,3.5,0.01,0,0.01,4,5,Valid,0,33,96,start,lin,0.26308792113601154,0.26308792113601154,0.26308792113601154,1,True,,,,,,,,,,,,,12,A,2023-09-09_11h50.39.139,exp3,2022.2.2,
high_opac_v,0.01,1,0.01,3,0.82,3.5,0.01,0,0.01,4,5,Valid,1,33,97,start,lin,0.09802038223969703,0.09802038223969703,0.09802038223969703,1,True,,,,,,,,,,,,,12,A,2023-09-09_11h50.39.139,exp3,2022.2.2,
low_opac_i,0.4,1,0.01,3,0.82,3.5,0.01,0,0.01,4,5,Invalid,2,33,98,start,lin,0.3143469345433939,0.3143469345433939,0.3143469345433939,1,True,,,,,,,,,,,,,12,A,2023-09-09_11h50.39.139,exp3,2022.2.2,
low_opac_i,0.4,1,0.01,3,0.82,3.5,0.01,0,0.01,4,5,Invalid,2,34,99,start,lin,0.3111853607196287,0.3111853607196287,0.3111853607196287,1,True,,,,,,,,,,,,,12,A,2023-09-09_11h50.39.139,exp3,2022.2.2,
high_opac_v,0.01,1,0.01,3,0.82,3.5,0.01,0,0.01,4,5,Valid,1,34,100,start,lin,0.09553511990928581,0,0.09553511990928581,0,True,,,,,,,,,,,,,12,A,2023-09-09_11h50.39.139,exp3,2022.2.2,
low_opac_v,0.4,1,0.01,3,0.82,3.5,0.01,0,0.01,4,5,Valid,0,34,101,start,lin,0.26019246972342724,0,0.26019246972342724,1,True,,,,,,,,,,,,,12,A,2023-09-09_11h50.39.139,exp3,2022.2.2,
low_opac_i,0.4,1,0.01,3,0.82,3.5,0.01,0,0.01,4,5,Invalid,2,35,102,start,lin,0.30820275154496374,0,0.30820275154496374,0,True,,,,,,,,,,,,,12,A,2023-09-09_11h50.39.139,exp3,2022.2.2,
low_opac_v,0.4,1,0.01,3,0.82,3.5,0.01,0,0.01,4,5,Valid,0,35,103,start,lin,0.25746685696609894,0.25746685696609894,0.25746685696609894,1,True,,,,,,,,,,,,,12,A,2023-09-09_11h50.39.139,exp3,2022.2.2,
high_opac_v,0.01,1,0.01,3,0.82,3.5,0.01,0,0.01,4,5,Valid,1,35,104,start,lin,0.10582546148620721,0,0.10582546148620721,1,True,,,,,,,,,,,,,12,A,2023-09-09_11h50.39.139,exp3,2022.2.2,
low_opac_i,0.4,1,0.01,3,0.82,3.5,0.01,0,0.01,4,5,Invalid,2,36,105,start,lin,0.3197108265376172,0.3197108265376172,0.3197108265376172,1,True,,,,,,,,,,,,,12,A,2023-09-09_11h50.39.139,exp3,2022.2.2,
high_opac_v,0.01,1,0.01,3,0.82,3.5,0.01,0,0.01,4,5,Valid,1,36,106,start,lin,0.10354162528287822,0.10354162528287822,0.10354162528287822,1,True,,,,,,,,,,,,,12,A,2023-09-09_11h50.39.139,exp3,2022.2.2,
low_opac_v,0.4,1,0.01,3,0.82,3.5,0.01,0,0.01,4,5,Valid,0,36,107,start,lin,0.25492872315404663,0.25492872315404663,0.25492872315404663,1,True,,,,,,,,,,,,,12,A,2023-09-09_11h50.39.139,exp3,2022.2.2,
low_opac_v,0.4,1,0.01,3,0.82,3.5,0.01,0,0.01,4,5,Valid,0,37,108,start,lin,0.2523116237981802,0.2523116237981802,0.2523116237981802,1,True,,,,,,,,,,,,,12,A,2023-09-09_11h50.39.139,exp3,2022.2.2,
low_opac_i,0.4,1,0.01,3,0.82,3.5,0.01,0,0.01,4,5,Invalid,2,37,109,start,lin,0.31696681995799103,0,0.31696681995799103,0,True,,,,,,,,,,,,,12,A,2023-09-09_11h50.39.139,exp3,2022.2.2,
high_opac_v,0.01,1,0.01,3,0.82,3.5,0.01,0,0.01,4,5,Valid,1,37,110,start,lin,0.10115404860562212,0,0.10115404860562212,1,True,,,,,,,,,,,,,12,A,2023-09-09_11h50.39.139,exp3,2022.2.2,
high_opac_v,0.01,1,0.01,3,0.82,3.5,0.01,0,0.01,4,5,Valid,1,38,111,start,lin,0.09884626605100351,0,0.09884626605100351,1,True,,,,,,,,,,,,,12,A,2023-09-09_11h50.39.139,exp3,2022.2.2,
low_opac_i,0.4,1,0.01,3,0.82,3.5,0.01,0,0.01,4,5,Invalid,2,38,112,start,lin,0.3279120096607841,0,0.3279120096607841,0,True,,,,,,,,,,,,,12,A,2023-09-09_11h50.39.139,exp3,2022.2.2,
low_opac_v,0.4,1,0.01,3,0.82,3.5,0.01,0,0.01,4,5,Valid,0,38,113,start,lin,0.24978526337784013,0.24978526337784013,0.24978526337784013,1,True,,,,,,,,,,,,,12,A,2023-09-09_11h50.39.139,exp3,2022.2.2,
low_opac_i,0.4,1,0.01,3,0.82,3.5,0.01,0,0.01,4,5,Invalid,2,39,114,start,lin,0.3385906615311025,0,0.3385906615311025,0,True,,,,,,,,,,,,,12,A,2023-09-09_11h50.39.139,exp3,2022.2.2,
low_opac_v,0.4,1,0.01,3,0.82,3.5,0.01,0,0.01,4,5,Valid,0,39,115,start,lin,0.24739699570425822,0.24739699570425822,0.24739699570425822,1,True,,,,,,,,,,,,,12,A,2023-09-09_11h50.39.139,exp3,2022.2.2,
high_opac_v,0.01,1,0.01,3,0.82,3.5,0.01,0,0.01,4,5,Valid,1,39,116,start,lin,0.09668292274394737,0.09668292274394737,0.09668292274394737,1,True,,,,,,,,,,,,,12,A,2023-09-09_11h50.39.139,exp3,2022.2.2,
high_opac_v,0.01,1,0.01,3,0.82,3.5,0.01,0,0.01,4,5,Valid,1,40,117,start,lin,0.09463646378516116,0.09463646378516116,0.09463646378516116,0,True,,,,,,,,,,,,,12,A,2023-09-09_11h50.39.139,exp3,2022.2.2,
low_opac_v,0.4,1,0.01,3,0.82,3.5,0.01,0,0.01,4,5,Valid,0,40,118,start,lin,0.2451544972931101,0,0.2451544972931101,1,True,,,,,,,,,,,,,12,A,2023-09-09_11h50.39.139,exp3,2022.2.2,
low_opac_i,0.4,1,0.01,3,0.82,3.5,0.01,0,0.01,4,5,Invalid,2,40,119,start,lin,0.349057168702586,0,0.349057168702586,0,True,,,,,,,,,,,,,12,A,2023-09-09_11h50.39.139,exp3,2022.2.2,
high_opac_v,0.01,1,0.01,3,0.82,3.5,0.01,0,0.01,4,5,Valid,1,41,120,start,lin,0.10282269401871366,0.10282269401871366,0.10282269401871366,1,True,,,,,,,,,,,,,12,A,2023-09-09_11h50.39.139,exp3,2022.2.2,
low_opac_v,0.4,1,0.01,3,0.82,3.5,0.01,0,0.01,4,5,Valid,0,41,121,start,lin,0.2430170128914765,0,0.2430170128914765,1,True,,,,,,,,,,,,,12,A,2023-09-09_11h50.39.139,exp3,2022.2.2,
low_opac_i,0.4,1,0.01,3,0.82,3.5,0.01,0,0.01,4,5,Invalid,2,41,122,start,lin,0.3593540335566968,0,0.3593540335566968,0,True,,,,,,,,,,,,,12,A,2023-09-09_11h50.39.139,exp3,2022.2.2,
low_opac_i,0.4,1,0.01,3,0.82,3.5,0.01,0,0.01,4,5,Invalid,2,42,123,start,lin,0.36951529157377655,0,0.36951529157377655,0,True,,,,,,,,,,,,,12,A,2023-09-09_11h50.39.139,exp3,2022.2.2,
high_opac_v,0.01,1,0.01,3,0.82,3.5,0.01,0,0.01,4,5,Valid,1,42,124,start,lin,0.10074740898370252,0,0.10074740898370252,1,True,,,,,,,,,,,,,12,A,2023-09-09_11h50.39.139,exp3,2022.2.2,
low_opac_v,0.4,1,0.01,3,0.82,3.5,0.01,0,0.01,4,5,Valid,0,42,125,start,lin,0.2407627830921754,0,0.2407627830921754,1,True,,,,,,,,,,,,,12,A,2023-09-09_11h50.39.139,exp3,2022.2.2,
high_opac_v,0.01,1,0.01,3,0.82,3.5,0.01,0,0.01,4,5,Valid,1,43,126,start,lin,0.09873280581556629,0,0.09873280581556629,1,True,,,,,,,,,,,,,12,A,2023-09-09_11h50.39.139,exp3,2022.2.2,
low_opac_i,0.4,1,0.01,3,0.82,3.5,0.01,0,0.01,4,5,Invalid,2,43,127,start,lin,0.3795686011190506,0.3795686011190506,0.3795686011190506,1,True,,,,,,,,,,,,,12,A,2023-09-09_11h50.39.139,exp3,2022.2.2,
low_opac_v,0.4,1,0.01,3,0.82,3.5,0.01,0,0.01,4,5,Valid,0,43,128,start,lin,0.23857629260755456,0.23857629260755456,0.23857629260755456,1,True,,,,,,,,,,,,,12,A,2023-09-09_11h50.39.139,exp3,2022.2.2,
low_opac_i,0.4,1,0.01,3,0.82,3.5,0.01,0,0.01,4,5,Invalid,2,44,129,start,lin,0.3771356178359874,0,0.3771356178359874,0,True,,,,,,,,,,,,,12,A,2023-09-09_11h50.39.139,exp3,2022.2.2,
high_opac_v,0.01,1,0.01,3,0.82,3.5,0.01,0,0.01,4,5,Valid,1,44,130,start,lin,0.09683666968989664,0.09683666968989664,0.09683666968989664,0,True,,,,,,,,,,,,,12,A,2023-09-09_11h50.39.139,exp3,2022.2.2,
low_opac_v,0.4,1,0.01,3,0.82,3.5,0.01,0,0.01,4,5,Valid,0,44,131,start,lin,0.23651873270679277,0,0.23651873270679277,0,True,,,,,,,,,,,,,12,A,2023-09-09_11h50.39.139,exp3,2022.2.2,
low_opac_v,0.4,1,0.01,3,0.82,3.5,0.01,0,0.01,4,5,Valid,0,45,132,start,lin,0.24502281072900958,0.24502281072900958,0.24502281072900958,1,True,,,,,,,,,,,,,12,A,2023-09-09_11h50.39.139,exp3,2022.2.2,
low_opac_i,0.4,1,0.01,3,0.82,3.5,0.01,0,0.01,4,5,Invalid,2,45,133,start,lin,0.3869240448833269,0,0.3869240448833269,1,True,,,,,,,,,,,,,12,A,2023-09-09_11h50.39.139,exp3,2022.2.2,
high_opac_v,0.01,1,0.01,3,0.82,3.5,0.01,0,0.01,4,5,Valid,1,45,134,start,lin,0.10468129741766709,0.10468129741766709,0.10468129741766709,1,True,,,,,,,,,,,,,12,A,2023-09-09_11h50.39.139,exp3,2022.2.2,
high_opac_v,0.01,1,0.01,3,0.82,3.5,0.01,0,0.01,4,5,Valid,1,46,135,start,lin,0.10280297315448003,0.10280297315448003,0.10280297315448003,0,True,,,,,,,,,,,,,12,A,2023-09-09_11h50.39.139,exp3,2022.2.2,
low_opac_v,0.4,1,0.01,3,0.82,3.5,0.01,0,0.01,4,5,Valid,0,46,136,start,lin,0.2431619795362058,0,0.2431619795362058,1,True,,,,,,,,,,,,,12,A,2023-09-09_11h50.39.139,exp3,2022.2.2,
low_opac_i,0.4,1,0.01,3,0.82,3.5,0.01,0,0.01,4,5,Invalid,2,46,137,start,lin,0.38467297490668584,0.38467297490668584,0.38467297490668584,1,True,,,,,,,,,,,,,12,A,2023-09-09_11h50.39.139,exp3,2022.2.2,
low_opac_v,0.4,1,0.01,3,0.82,3.5,0.01,0,0.01,4,5,Valid,0,47,138,start,lin,0.24119011365844548,0,0.24119011365844548,1,True,,,,,,,,,,,,,12,A,2023-09-09_11h50.39.139,exp3,2022.2.2,
high_opac_v,0.01,1,0.01,3,0.82,3.5,0.01,0,0.01,4,5,Valid,1,47,139,start,lin,0.10992074207736591,0.10992074207736591,0.10992074207736591,1,True,,,,,,,,,,,,,12,A,2023-09-09_11h50.39.139,exp3,2022.2.2,
low_opac_i,0.4,1,0.01,3,0.82,3.5,0.01,0,0.01,4,5,Invalid,2,47,140,start,lin,0.38234348878974617,0.38234348878974617,0.38234348878974617,1,True,,,,,,,,,,,,,12,A,2023-09-09_11h50.39.139,exp3,2022.2.2,
low_opac_v,0.4,1,0.01,3,0.82,3.5,0.01,0,0.01,4,5,Valid,0,48,141,start,lin,0.23925519037638268,0,0.23925519037638268,1,True,,,,,,,,,,,,,12,A,2023-09-09_11h50.39.139,exp3,2022.2.2,
low_opac_i,0.4,1,0.01,3,0.82,3.5,0.01,0,0.01,4,5,Invalid,2,48,142,start,lin,0.38008963977017024,0.38008963977017024,0.38008963977017024,1,True,,,,,,,,,,,,,12,A,2023-09-09_11h50.39.139,exp3,2022.2.2,
high_opac_v,0.01,1,0.01,3,0.82,3.5,0.01,0,0.01,4,5,Valid,1,48,143,start,lin,0.10815346123967073,0.10815346123967073,0.10815346123967073,1,True,,,,,,,,,,,,,12,A,2023-09-09_11h50.39.139,exp3,2022.2.2,
high_opac_v,0.01,1,0.01,3,0.82,3.5,0.01,0,0.01,4,5,Valid,1,49,144,start,lin,0.10648253716562414,0,0.10648253716562414,1,True,,,,,,,,,,,,,12,A,2023-09-09_11h50.39.139,exp3,2022.2.2,
low_opac_v,0.4,1,0.01,3,0.82,3.5,0.01,0,0.01,4,5,Valid,0,49,145,start,lin,0.2374175965050366,0.2374175965050366,0.2374175965050366,1,True,,,,,,,,,,,,,12,A,2023-09-09_11h50.39.139,exp3,2022.2.2,
low_opac_i,0.4,1,0.01,3,0.82,3.5,0.01,0,0.01,4,5,Invalid,2,49,146,start,lin,0.37795756993056573,0,0.37795756993056573,0,True,,,,,,,,,,,,,12,A,2023-09-09_11h50.39.139,exp3,2022.2.2,
high_opac_v,0.01,1,0.01,3,0.82,3.5,0.01,0,0.01,4,5,Valid,1,50,147,start,lin,0.1048854600992649,0.1048854600992649,0.1048854600992649,1,True,,,,,,,,,,,,,12,A,2023-09-09_11h50.39.139,exp3,2022.2.2,
low_opac_v,0.4,1,0.01,3,0.82,3.5,0.01,0,0.01,4,5,Valid,0,50,148,start,lin,0.23567241002571143,0,0.23567241002571143,1,True,,,,,,,,,,,,,12,A,2023-09-09_11h50.39.139,exp3,2022.2.2,
low_opac_i,0.4,1,0.01,3,0.82,3.5,0.01,0,0.01,4,5,Invalid,2,50,149,start,lin,0.38646156764510387,0,0.38646156764510387,0,True,,,,,,,,,,,,,12,A,2023-09-09_11h50.39.139,exp3,2022.2.2,
low_opac_i,0.4,1,0.01,3,0.82,3.5,0.01,0,0.01,4,5,Invalid,2,51,150,start,lin,0.3949739061363267,0,0.3949739061363267,0,True,,,,,,,,,,,,,12,A,2023-09-09_11h50.39.139,exp3,2022.2.2,
high_opac_v,0.01,1,0.01,3,0.82,3.5,0.01,0,0.01,4,5,Valid,1,51,151,start,lin,0.10320577245224402,0.10320577245224402,0.10320577245224402,1,True,,,,,,,,,,,,,12,A,2023-09-09_11h50.39.139,exp3,2022.2.2,
low_opac_v,0.4,1,0.01,3,0.82,3.5,0.01,0,0.01,4,5,Valid,0,51,152,start,lin,0.2339960456710085,0.2339960456710085,0.2339960456710085,1,True,,,,,,,,,,,,,12,A,2023-09-09_11h50.39.139,exp3,2022.2.2,
low_opac_i,0.4,1,0.01,3,0.82,3.5,0.01,0,0.01,4,5,Invalid,2,52,153,start,lin,0.40291525247669135,0.40291525247669135,0.40291525247669135,1,True,,,,,,,,,,,,,12,A,2023-09-09_11h50.39.139,exp3,2022.2.2,
low_opac_v,0.4,1,0.01,3,0.82,3.5,0.01,0,0.01,4,5,Valid,0,52,154,start,lin,0.23222124520569348,0.23222124520569348,0.23222124520569348,0,True,,,,,,,,,,,,,12,A,2023-09-09_11h50.39.139,exp3,2022.2.2,
high_opac_v,0.01,1,0.01,3,0.82,3.5,0.01,0,0.01,4,5,Valid,1,52,155,start,lin,0.10156395824683262,0.10156395824683262,0.10156395824683262,0,True,,,,,,,,,,,,,12,A,2023-09-09_11h50.39.139,exp3,2022.2.2,
low_opac_i,0.4,1,0.01,3,0.82,3.5,0.01,0,0.01,4,5,Invalid,2,53,156,start,lin,0.4008643613205863,0.4008643613205863,0.4008643613205863,1,True,,,,,,,,,,,,,12,A,2023-09-09_11h50.39.139,exp3,2022.2.2,
low_opac_v,0.4,1,0.01,3,0.82,3.5,0.01,0,0.01,4,5,Valid,0,53,157,start,lin,0.23899993196330613,0,0.23899993196330613,1,True,,,,,,,,,,,,,12,A,2023-09-09_11h50.39.139,exp3,2022.2.2,
high_opac_v,0.01,1,0.01,3,0.82,3.5,0.01,0,0.01,4,5,Valid,1,53,158,start,lin,0.10786602120786189,0.10786602120786189,0.10786602120786189,1,True,,,,,,,,,,,,,12,A,2023-09-09_11h50.39.139,exp3,2022.2.2,
low_opac_v,0.4,1,0.01,3,0.82,3.5,0.01,0,0.01,4,5,Valid,0,54,159,start,lin,0.23736187609288065,0.23736187609288065,0.23736187609288065,1,True,,,,,,,,,,,,,12,A,2023-09-09_11h50.39.139,exp3,2022.2.2,
low_opac_i,0.4,1,0.01,3,0.82,3.5,0.01,0,0.01,4,5,Invalid,2,54,160,start,lin,0.3988820304260478,0,0.3988820304260478,0,True,,,,,,,,,,,,,12,A,2023-09-09_11h50.39.139,exp3,2022.2.2,
high_opac_v,0.01,1,0.01,3,0.82,3.5,0.01,0,0.01,4,5,Valid,1,54,161,start,lin,0.10636787869861546,0,0.10636787869861546,1,True,,,,,,,,,,,,,12,A,2023-09-09_11h50.39.139,exp3,2022.2.2,
low_opac_v,0.4,1,0.01,3,0.82,3.5,0.01,0,0.01,4,5,Valid,0,55,162,start,lin,0.23579998471835897,0.23579998471835897,0.23579998471835897,1,True,,,,,,,,,,,,,12,A,2023-09-09_11h50.39.139,exp3,2022.2.2,
high_opac_v,0.01,1,0.01,3,0.82,3.5,0.01,0,0.01,4,5,Valid,1,55,163,start,lin,0.10492990719594715,0,0.10492990719594715,1,True,,,,,,,,,,,,,12,A,2023-09-09_11h50.39.139,exp3,2022.2.2,
low_opac_i,0.4,1,0.01,3,0.82,3.5,0.01,0,0.01,4,5,Invalid,2,55,164,start,lin,0.40663931317948654,0,0.40663931317948654,0,True,,,,,,,,,,,,,12,A,2023-09-09_11h50.39.139,exp3,2022.2.2,
low_opac_i,0.4,1,0.01,3,0.82,3.5,0.01,0,0.01,4,5,Invalid,2,56,165,start,lin,0.41447720659255816,0.41447720659255816,0.41447720659255816,1,True,,,,,,,,,,,,,12,A,2023-09-09_11h50.39.139,exp3,2022.2.2,
low_opac_v,0.4,1,0.01,3,0.82,3.5,0.01,0,0.01,4,5,Valid,0,56,166,start,lin,0.23429559137962158,0.23429559137962158,0.23429559137962158,1,True,,,,,,,,,,,,,12,A,2023-09-09_11h50.39.139,exp3,2022.2.2,
high_opac_v,0.01,1,0.01,3,0.82,3.5,0.01,0,0.01,4,5,Valid,1,56,167,start,lin,0.10341269494339117,0,0.10341269494339117,1,True,,,,,,,,,,,,,12,A,2023-09-09_11h50.39.139,exp3,2022.2.2,
low_opac_i,0.4,1,0.01,3,0.82,3.5,0.01,0,0.01,4,5,Invalid,2,57,168,start,lin,0.4125767537282408,0.4125767537282408,0.4125767537282408,1,True,,,,,,,,,,,,,12,A,2023-09-09_11h50.39.139,exp3,2022.2.2,
low_opac_v,0.4,1,0.01,3,0.82,3.5,0.01,0,0.01,4,5,Valid,0,57,169,start,lin,0.2327007248213706,0.2327007248213706,0.2327007248213706,1,True,,,,,,,,,,,,,12,A,2023-09-09_11h50.39.139,exp3,2022.2.2,
high_opac_v,0.01,1,0.01,3,0.82,3.5,0.01,0,0.01,4,5,Valid,1,57,170,start,lin,0.10192687592342309,0.10192687592342309,0.10192687592342309,0,True,,,,,,,,,,,,,12,A,2023-09-09_11h50.39.139,exp3,2022.2.2,
low_opac_v,0.4,1,0.01,3,0.82,3.5,0.01,0,0.01,4,5,Valid,0,58,171,start,lin,0.231131455199665,0,0.231131455199665,1,True,,,,,,,,,,,,,12,A,2023-09-09_11h50.39.139,exp3,2022.2.2,
low_opac_i,0.4,1,0.01,3,0.82,3.5,0.01,0,0.01,4,5,Invalid,2,58,172,start,lin,0.41072464176751133,0.41072464176751133,0.41072464176751133,1,True,,,,,,,,,,,,,12,A,2023-09-09_11h50.39.139,exp3,2022.2.2,
high_opac_v,0.01,1,0.01,3,0.82,3.5,0.01,0,0.01,4,5,Valid,1,58,173,start,lin,0.10763470298842578,0.10763470298842578,0.10763470298842578,1,True,,,,,,,,,,,,,12,A,2023-09-09_11h50.39.139,exp3,2022.2.2,
low_opac_i,0.4,1,0.01,3,0.82,3.5,0.01,0,0.01,4,5,Invalid,2,59,174,start,lin,0.4089269238742233,0,0.4089269238742233,0,True,,,,,,,,,,,,,12,A,2023-09-09_11h50.39.139,exp3,2022.2.2,
low_opac_v,0.4,1,0.01,3,0.82,3.5,0.01,0,0.01,4,5,Valid,0,59,175,start,lin,0.22957278431479608,0.22957278431479608,0.22957278431479608,1,True,,,,,,,,,,,,,12,A,2023-09-09_11h50.39.139,exp3,2022.2.2,
high_opac_v,0.01,1,0.01,3,0.82,3.5,0.01,0,0.01,4,5,Valid,1,59,176,start,lin,0.10627729266597143,0,0.10627729266597143,0,True,,,,,,,,,,,,,12,A,2023-09-09_11h50.39.139,exp3,2022.2.2,
low_opac_i,0.4,1,0.01,3,0.82,3.5,0.01,0,0.01,4,5,Invalid,2,60,177,start,lin,0.4159933769438047,0.4159933769438047,0.4159933769438047,1,True,,,,,,,,,,,,,12,A,2023-09-09_11h50.39.139,exp3,2022.2.2,
high_opac_v,0.01,1,0.01,3,0.82,3.5,0.01,0,0.01,4,5,Valid,1,60,178,start,lin,0.11213583313192134,0,0.11213583313192134,1,True,,,,,,,,,,,,,12,A,2023-09-09_11h50.39.139,exp3,2022.2.2,
low_opac_v,0.4,1,0.01,3,0.82,3.5,0.01,0,0.01,4,5,Valid,0,60,179,start,lin,0.22807241709632975,0.22807241709632975,0.22807241709632975,1,True,,,,,,,,,,,,,12,A,2023-09-09_11h50.39.139,exp3,2022.2.2,
low_opac_v,0.4,1,0.01,3,0.82,3.5,0.01,0,0.01,4,5,Valid,0,61,180,start,lin,0.22664226146977817,0,0.22664226146977817,1,True,,,,,,,,,,,,,12,A,2023-09-09_11h50.39.139,exp3,2022.2.2,
low_opac_i,0.4,1,0.01,3,0.82,3.5,0.01,0,0.01,4,5,Invalid,2,61,181,start,lin,0.4143841693553961,0,0.4143841693553961,0,True,,,,,,,,,,,,,12,A,2023-09-09_11h50.39.139,exp3,2022.2.2,
high_opac_v,0.01,1,0.01,3,0.82,3.5,0.01,0,0.01,4,5,Valid,1,61,182,start,lin,0.11074567334470145,0,0.11074567334470145,0,True,,,,,,,,,,,,,12,A,2023-09-09_11h50.39.139,exp3,2022.2.2,
low_opac_v,0.4,1,0.01,3,0.82,3.5,0.01,0,0.01,4,5,Valid,0,62,183,start,lin,0.22526666836704765,0,0.22526666836704765,1,True,,,,,,,,,,,,,12,A,2023-09-09_11h50.39.139,exp3,2022.2.2,
low_opac_i,0.4,1,0.01,3,0.82,3.5,0.01,0,0.01,4,5,Invalid,2,62,184,start,lin,0.42095276208236443,0,0.42095276208236443,0,True,,,,,,,,,,,,,12,A,2023-09-09_11h50.39.139,exp3,2022.2.2,
high_opac_v,0.01,1,0.01,3,0.82,3.5,0.01,0,0.01,4,5,Valid,1,62,185,start,lin,0.11613504102445132,0,0.11613504102445132,1,True,,,,,,,,,,,,,12,A,2023-09-09_11h50.39.139,exp3,2022.2.2,
low_opac_i,0.4,1,0.01,3,0.82,3.5,0.01,0,0.01,4,5,Invalid,2,63,186,start,lin,0.42758123471578596,0,0.42758123471578596,0,True,,,,,,,,,,,,,12,A,2023-09-09_11h50.39.139,exp3,2022.2.2,
low_opac_v,0.4,1,0.01,3,0.82,3.5,0.01,0,0.01,4,5,Valid,0,63,187,start,lin,0.22393175395402126,0.22393175395402126,0.22393175395402126,1,True,,,,,,,,,,,,,12,A,2023-09-09_11h50.39.139,exp3,2022.2.2,
high_opac_v,0.01,1,0.01,3,0.82,3.5,0.01,0,0.01,4,5,Valid,1,63,188,start,lin,0.11489602489055775,0.11489602489055775,0.11489602489055775,1,True,,,,,,,,,,,,,12,A,2023-09-09_11h50.39.139,exp3,2022.2.2,
high_opac_v,0.01,1,0.01,3,0.82,3.5,0.01,0,0.01,4,5,Valid,1,64,189,start,lin,0.11358337959592218,0.11358337959592218,0.11358337959592218,1,True,,,,,,,,,,,,,12,A,2023-09-09_11h50.39.139,exp3,2022.2.2,
low_opac_i,0.4,1,0.01,3,0.82,3.5,0.01,0,0.01,4,5,Invalid,2,64,190,start,lin,0.43441222176225425,0,0.43441222176225425,1,True,,,,,,,,,,,,,12,A,2023-09-09_11h50.39.139,exp3,2022.2.2,
low_opac_v,0.4,1,0.01,3,0.82,3.5,0.01,0,0.01,4,5,Valid,0,64,191,start,lin,0.2225066313825881,0,0.2225066313825881,1,True,,,,,,,,,,,,,12,A,2023-09-09_11h50.39.139,exp3,2022.2.2,
low_opac_i,0.4,1,0.01,3,0.82,3.5,0.01,0,0.01,4,5,Invalid,2,65,192,start,lin,0.432756249441716,0.432756249441716,0.432756249441716,0,True,,,,,,,,,,,,,12,A,2023-09-09_11h50.39.139,exp3,2022.2.2,
high_opac_v,0.01,1,0.01,3,0.82,3.5,0.01,0,0.01,4,5,Valid,1,65,193,start,lin,0.11229470241067037,0,0.11229470241067037,1,True,,,,,,,,,,,,,12,A,2023-09-09_11h50.39.139,exp3,2022.2.2,
low_opac_v,0.4,1,0.01,3,0.82,3.5,0.01,0,0.01,4,5,Valid,0,65,194,start,lin,0.22109695201734667,0.22109695201734667,0.22109695201734667,1,True,,,,,,,,,,,,,12,A,2023-09-09_11h50.39.139,exp3,2022.2.2,
low_opac_v,0.4,1,0.01,3,0.82,3.5,0.01,0,0.01,4,5,Valid,0,66,195,start,lin,0.21968906970509589,0.21968906970509589,0.21968906970509589,1,True,,,,,,,,,,,,,12,A,2023-09-09_11h50.39.139,exp3,2022.2.2,
low_opac_i,0.4,1,0.01,3,0.82,3.5,0.01,0,0.01,4,5,Invalid,2,66,196,start,lin,0.4390458959835813,0.4390458959835813,0.4390458959835813,1,True,,,,,,,,,,,,,12,A,2023-09-09_11h50.39.139,exp3,2022.2.2,
high_opac_v,0.01,1,0.01,3,0.82,3.5,0.01,0,0.01,4,5,Valid,1,66,197,start,lin,0.11101810009582314,0,0.11101810009582314,1,True,,,,,,,,,,,,,12,A,2023-09-09_11h50.39.139,exp3,2022.2.2,
low_opac_v,0.4,1,0.01,3,0.82,3.5,0.01,0,0.01,4,5,Valid,0,67,198,start,lin,0.21832220060898708,0,0.21832220060898708,0,True,,,,,,,,,,,,,12,A,2023-09-09_11h50.39.139,exp3,2022.2.2,
high_opac_v,0.01,1,0.01,3,0.82,3.5,0.01,0,0.01,4,5,Valid,1,67,199,start,lin,0.10974446546905932,0.10974446546905932,0.10974446546905932,1,True,,,,,,,,,,,,,12,A,2023-09-09_11h50.39.139,exp3,2022.2.2,
low_opac_i,0.4,1,0.01,3,0.82,3.5,0.01,0,0.01,4,5,Invalid,2,67,200,start,lin,0.4374904759308461,0,0.4374904759308461,0,True,,,,,,,,,,,,,12,A,2023-09-09_11h50.39.139,exp3,2022.2.2,
high_opac_v,0.01,1,0.01,3,0.82,3.5,0.01,0,0.01,4,5,Valid,1,68,201,start,lin,0.10851559310055436,0,0.10851559310055436,1,True,,,,,,,,,,,,,12,A,2023-09-09_11h50.39.139,exp3,2022.2.2,
low_opac_v,0.4,1,0.01,3,0.82,3.5,0.01,0,0.01,4,5,Valid,0,68,202,start,lin,0.22386765342595155,0,0.22386765342595155,0,True,,,,,,,,,,,,,12,A,2023-09-09_11h50.39.139,exp3,2022.2.2,
low_opac_i,0.4,1,0.01,3,0.82,3.5,0.01,0,0.01,4,5,Invalid,2,68,203,start,lin,0.443943822025293,0,0.443943822025293,0,True,,,,,,,,,,,,,12,A,2023-09-09_11h50.39.139,exp3,2022.2.2,
high_opac_v,0.01,1,0.01,3,0.82,3.5,0.01,0,0.01,4,5,Valid,1,69,204,start,lin,0.10734303015380987,0,0.10734303015380987,1,True,,,,,,,,,,,,,12,A,2023-09-09_11h50.39.139,exp3,2022.2.2,
low_opac_v,0.4,1,0.01,3,0.82,3.5,0.01,0,0.01,4,5,Valid,0,69,205,start,lin,0.22893234458731043,0.22893234458731043,0.22893234458731043,1,True,,,,,,,,,,,,,12,A,2023-09-09_11h50.39.139,exp3,2022.2.2,
low_opac_i,0.4,1,0.01,3,0.82,3.5,0.01,0,0.01,4,5,Invalid,2,69,206,start,lin,0.4499895152942199,0,0.4499895152942199,0,True,,,,,,,,,,,,,12,A,2023-09-09_11h50.39.139,exp3,2022.2.2,
low_opac_i,0.4,1,0.01,3,0.82,3.5,0.01,0,0.01,4,5,Invalid,2,70,207,start,lin,0.4562007554472584,0,0.4562007554472584,0,True,,,,,,,,,,,,,12,A,2023-09-09_11h50.39.139,exp3,2022.2.2,
high_opac_v,0.01,1,0.01,3,0.82,3.5,0.01,0,0.01,4,5,Valid,1,70,208,start,lin,0.10621601317024935,0.10621601317024935,0.10621601317024935,1,True,,,,,,,,,,,,,12,A,2023-09-09_11h50.39.139,exp3,2022.2.2,
low_opac_v,0.4,1,0.01,3,0.82,3.5,0.01,0,0.01,4,5,Valid,0,70,209,start,lin,0.22768697875927654,0.22768697875927654,0.22768697875927654,1,True,,,,,,,,,,,,,12,A,2023-09-09_11h50.39.139,exp3,2022.2.2,
high_opac_v,0.01,1,0.01,3,0.82,3.5,0.01,0,0.01,4,5,Valid,1,71,210,start,lin,0.10512492463445781,0.10512492463445781,0.10512492463445781,1,True,,,,,,,,,,,,,12,A,2023-09-09_11h50.39.139,exp3,2022.2.2,
low_opac_v,0.4,1,0.01,3,0.82,3.5,0.01,0,0.01,4,5,Valid,0,71,211,start,lin,0.22649213650761882,0.22649213650761882,0.22649213650761882,1,True,,,,,,,,,,,,,12,A,2023-09-09_11h50.39.139,exp3,2022.2.2,
low_opac_i,0.4,1,0.01,3,0.82,3.5,0.01,0,0.01,4,5,Invalid,2,71,212,start,lin,0.46260639540200105,0,0.46260639540200105,0,True,,,,,,,,,,,,,12,A,2023-09-09_11h50.39.139,exp3,2022.2.2,
high_opac_v,0.01,1,0.01,3,0.82,3.5,0.01,0,0.01,4,5,Valid,1,72,213,start,lin,0.10406107848971023,0.10406107848971023,0.10406107848971023,0,True,,,,,,,,,,,,,12,A,2023-09-09_11h50.39.139,exp3,2022.2.2,
low_opac_i,0.4,1,0.01,3,0.82,3.5,0.01,0,0.01,4,5,Invalid,2,72,214,start,lin,0.46858784786462204,0.46858784786462204,0.46858784786462204,1,True,,,,,,,,,,,,,12,A,2023-09-09_11h50.39.139,exp3,2022.2.2,
low_opac_v,0.4,1,0.01,3,0.82,3.5,0.01,0,0.01,4,5,Valid,0,72,215,start,lin,0.2253370947389638,0.2253370947389638,0.2253370947389638,1,True,,,,,,,,,,,,,12,A,2023-09-09_11h50.39.139,exp3,2022.2.2,
low_opac_i,0.4,1,0.01,3,0.82,3.5,0.01,0,0.01,4,5,Invalid,2,73,216,start,lin,0.4671192021766104,0,0.4671192021766104,0,True,,,,,,,,,,,,,12,A,2023-09-09_11h50.39.139,exp3,2022.2.2,
high_opac_v,0.01,1,0.01,3,0.82,3.5,0.01,0,0.01,4,5,Valid,1,73,217,start,lin,0.10848262104350398,0,0.10848262104350398,0,True,,,,,,,,,,,,,12,A,2023-09-09_11h50.39.139,exp3,2022.2.2,
low_opac_v,0.4,1,0.01,3,0.82,3.5,0.01,0,0.01,4,5,Valid,0,73,218,start,lin,0.22421218797175918,0,0.22421218797175918,1,True,,,,,,,,,,,,,12,A,2023-09-09_11h50.39.139,exp3,2022.2.2,
low_opac_i,0.4,1,0.01,3,0.82,3.5,0.01,0,0.01,4,5,Invalid,2,74,219,start,lin,0.4733035616872269,0,0.4733035616872269,1,True,,,,,,,,,,,,,12,A,2023-09-09_11h50.39.139,exp3,2022.2.2,
low_opac_v,0.4,1,0.01,3,0.82,3.5,0.01,0,0.01,4,5,Valid,0,74,220,start,lin,0.223008852133068,0,0.223008852133068,1,True,,,,,,,,,,,,,12,A,2023-09-09_11h50.39.139,exp3,2022.2.2,
high_opac_v,0.01,1,0.01,3,0.82,3.5,0.01,0,0.01,4,5,Valid,1,74,221,start,lin,0.11315897999824798,0.11315897999824798,0.11315897999824798,1,True,,,,,,,,,,,,,12,A,2023-09-09_11h50.39.139,exp3,2022.2.2,
high_opac_v,0.01,1,0.01,3,0.82,3.5,0.01,0,0.01,4,5,Valid,1,75,222,start,lin,0.11205223509374983,0.11205223509374983,0.11205223509374983,1,True,,,,,,,,,,,,,12,A,2023-09-09_11h50.39.139,exp3,2022.2.2,
low_opac_v,0.4,1,0.01,3,0.82,3.5,0.01,0,0.01,4,5,Valid,0,75,223,start,lin,0.22181792634582465,0.22181792634582465,0.22181792634582465,1,True,,,,,,,,,,,,,12,A,2023-09-09_11h50.39.139,exp3,2022.2.2,
low_opac_i,0.4,1,0.01,3,0.82,3.5,0.01,0,0.01,4,5,Invalid,2,75,224,start,lin,0.4718151346562129,0.4718151346562129,0.4718151346562129,1,True,,,,,,,,,,,,,12,A,2023-09-09_11h50.39.139,exp3,2022.2.2,
,,,,,,,,,,,,,,,,,,,,,,,0,-1716,Valid,signal,0,1,912.9257841999934,1,3.0,7.3405105999991065,1,True,12,A,2023-09-09_11h50.39.139,exp3,2022.2.2,
,,,,,,,,,,,,,,,,,,,,,,,0,1716,Invalid,signal,0,1,918.6053053999931,1,3.0,2.830065799993463,1,True,12,A,2023-09-09_11h50.39.139,exp3,2022.2.2,
,,,,,,,,,,,,,,,,,,,,,,,0,-1716,Valid,signal,0,1,922.0608003999951,1,3.0,2.295701099996222,1,True,12,A,2023-09-09_11h50.39.139,exp3,2022.2.2,
,,,,,,,,,,,,,,,,,,,,,,,0,2274,Valid,noise,0,2,925.5969805999921,1,3.0,2.779776100011077,1,True,12,A,2023-09-09_11h50.39.139,exp3,2022.2.2,
,,,,,,,,,,,,,,,,,,,,,,,0,-1716,Valid,noise,0,1,929.1004804999975,0,3.0,3.129021400003694,1,True,12,A,2023-09-09_11h50.39.139,exp3,2022.2.2,
,,,,,,,,,,,,,,,,,,,,,,,0,-1158,Valid,signal,0,1,933.1808011999965,1,3.0,2.2294075999961933,1,True,12,A,2023-09-09_11h50.39.139,exp3,2022.2.2,
,,,,,,,,,,,,,,,,,,,,,,,0,-557,Valid,noise,0,2,937.8691778999928,1,3.0,3.679460500003188,1,True,12,A,2023-09-09_11h50.39.139,exp3,2022.2.2,
,,,,,,,,,,,,,,,,,,,,,,,0,-1716,Valid,signal,0,1,941.0852499999892,1,3.0,2.312692400009837,1,True,12,A,2023-09-09_11h50.39.139,exp3,2022.2.2,
,,,,,,,,,,,,,,,,,,,,,,,0,557,Valid,signal,0,2,944.493533899993,0,1.0,5.013735200001975,1,True,12,A,2023-09-09_11h50.39.139,exp3,2022.2.2,
,,,,,,,,,,,,,,,,,,,,,,,0,-1716,Invalid,noise,0,2,950.9724791999906,1,3.0,3.4297090000036405,1,True,12,A,2023-09-09_11h50.39.139,exp3,2022.2.2,
,,,,,,,,,,,,,,,,,,,,,,,0,-557,Valid,signal,0,1,957.8690472999879,1,3.0,5.297526399997878,2,True,12,A,2023-09-09_11h50.39.139,exp3,2022.2.2,
,,,,,,,,,,,,,,,,,,,,,,,0,-1716,Valid,signal,0,1,966.9566388999956,1,3.0,8.114274500010652,2,True,12,A,2023-09-09_11h50.39.139,exp3,2022.2.2,
,,,,,,,,,,,,,,,,,,,,,,,0,1716,Valid,noise,0,2,974.5254172999994,1,3.0,6.915063599997666,3,True,12,A,2023-09-09_11h50.39.139,exp3,2022.2.2,
,,,,,,,,,,,,,,,,,,,,,,,0,1716,Valid,noise,0,2,978.3326923999994,1,3.0,2.3453117000026396,1,True,12,A,2023-09-09_11h50.39.139,exp3,2022.2.2,
,,,,,,,,,,,,,,,,,,,,,,,0,-2274,Invalid,noise,0,1,982.157311899995,0,3.0,2.7290780000039376,1,True,12,A,2023-09-09_11h50.39.139,exp3,2022.2.2,
,,,,,,,,,,,,,,,,,,,,,,,0,557,Valid,noise,0,2,987.1647582000005,1,3.0,4.163425199993071,2,True,12,A,2023-09-09_11h50.39.139,exp3,2022.2.2,
,,,,,,,,,,,,,,,,,,,,,,,0,-2274,Invalid,noise,0,1,990.8776209999924,0,3.0,2.5459715999895707,1,True,12,A,2023-09-09_11h50.39.139,exp3,2022.2.2,
,,,,,,,,,,,,,,,,,,,,,,,0,-1158,Valid,noise,0,1,994.12522419999,0,3.0,2.2125972000067122,1,True,12,A,2023-09-09_11h50.39.139,exp3,2022.2.2,
,,,,,,,,,,,,,,,,,,,,,,,0,1716,Valid,signal,0,1,997.4376798999874,1,3.0,2.41281579999486,1,True,12,A,2023-09-09_11h50.39.139,exp3,2022.2.2,
,,,,,,,,,,,,,,,,,,,,,,,0,-2274,Valid,noise,0,1,1002.684574599989,0,3.0,4.163581300002988,2,True,12,A,2023-09-09_11h50.39.139,exp3,2022.2.2,
,,,,,,,,,,,,,,,,,,,,,,,0,1716,Valid,signal,0,1,1005.8530355999974,1,3.0,2.145758600003319,1,True,12,A,2023-09-09_11h50.39.139,exp3,2022.2.2,
,,,,,,,,,,,,,,,,,,,,,,,0,557,Valid,signal,0,1,1008.9415948999958,1,3.0,2.012631000005058,1,True,12,A,2023-09-09_11h50.39.139,exp3,2022.2.2,
,,,,,,,,,,,,,,,,,,,,,,,0,2274,Valid,signal,0,1,1012.1407351999951,1,3.0,2.3127685000072233,1,True,12,A,2023-09-09_11h50.39.139,exp3,2022.2.2,
,,,,,,,,,,,,,,,,,,,,,,,0,2274,Valid,signal,0,2,1015.7089272000012,0,1.0,3.713733199998387,1,True,12,A,2023-09-09_11h50.39.139,exp3,2022.2.2,
,,,,,,,,,,,,,,,,,,,,,,,0,2274,Valid,signal,0,1,1020.7329629999876,1,2.0,3.295668000006117,1,True,12,A,2023-09-09_11h50.39.139,exp3,2022.2.2,
,,,,,,,,,,,,,,,,,,,,,,,0,-557,Valid,signal,0,1,1024.6858489000006,1,3.0,2.9132296000025235,1,True,12,A,2023-09-09_11h50.39.139,exp3,2022.2.2,
,,,,,,,,,,,,,,,,,,,,,,,0,-1158,Valid,signal,0,1,1028.2527626999945,1,3.0,2.1786254000035115,1,True,12,A,2023-09-09_11h50.39.139,exp3,2022.2.2,
,,,,,,,,,,,,,,,,,,,,,,,0,-2274,Valid,noise,0,1,1031.9008826999925,0,3.0,2.5796124000044074,1,True,12,A,2023-09-09_11h50.39.139,exp3,2022.2.2,
,,,,,,,,,,,,,,,,,,,,,,,0,1716,Valid,noise,0,2,1037.069233599992,1,3.0,4.430635800003074,2,True,12,A,2023-09-09_11h50.39.139,exp3,2022.2.2,
,,,,,,,,,,,,,,,,,,,,,,,0,2274,Valid,noise,0,2,1041.0538498999958,1,3.0,2.845353700002306,1,True,12,A,2023-09-09_11h50.39.139,exp3,2022.2.2,
,,,,,,,,,,,,,,,,,,,,,,,0,557,Valid,noise,0,2,1044.7646755999885,1,3.0,2.512439700003597,1,True,12,A,2023-09-09_11h50.39.139,exp3,2022.2.2,
,,,,,,,,,,,,,,,,,,,,,,,0,-1158,Valid,signal,0,1,1047.9015265999915,1,3.0,2.1792718000069726,1,True,12,A,2023-09-09_11h50.39.139,exp3,2022.2.2,
,,,,,,,,,,,,,,,,,,,,,,,0,-1716,Valid,signal,0,1,1051.06860459999,1,3.0,2.112860700013698,1,True,12,A,2023-09-09_11h50.39.139,exp3,2022.2.2,
,,,,,,,,,,,,,,,,,,,,,,,0,-1716,Valid,signal,0,1,1054.1564538999955,1,3.0,2.06267279999156,1,True,12,A,2023-09-09_11h50.39.139,exp3,2022.2.2,
,,,,,,,,,,,,,,,,,,,,,,,0,1158,Invalid,noise,0,2,1057.1333078999887,1,3.0,2.062893399997847,1,True,12,A,2023-09-09_11h50.39.139,exp3,2022.2.2,
,,,,,,,,,,,,,,,,,,,,,,,0,2274,Valid,signal,0,1,1062.4925603999873,1,3.0,4.379918699996779,2,True,12,A,2023-09-09_11h50.39.139,exp3,2022.2.2,
,,,,,,,,,,,,,,,,,,,,,,,0,1158,Invalid,signal,0,1,1069.3092079999915,1,3.0,6.030613499999163,3,True,12,A,2023-09-09_11h50.39.139,exp3,2022.2.2,
,,,,,,,,,,,,,,,,,,,,,,,0,2274,Valid,noise,0,2,1073.805675399999,1,3.0,3.4126445000001695,1,True,12,A,2023-09-09_11h50.39.139,exp3,2022.2.2,
,,,,,,,,,,,,,,,,,,,,,,,0,557,Valid,noise,0,2,1078.3647898999916,1,3.0,3.5134562000021106,2,True,12,A,2023-09-09_11h50.39.139,exp3,2022.2.2,
,,,,,,,,,,,,,,,,,,,,,,,0,-2274,Valid,noise,0,1,1083.5488053000008,0,3.0,4.096568200009642,2,True,12,A,2023-09-09_11h50.39.139,exp3,2022.2.2,
,,,,,,,,,,,,,,,,,,,,,,,0,-2274,Valid,signal,0,1,1086.8933045999875,1,3.0,2.279258700000355,1,True,12,A,2023-09-09_11h50.39.139,exp3,2022.2.2,
,,,,,,,,,,,,,,,,,,,,,,,0,-557,Valid,noise,0,1,1090.1411771999992,0,3.0,2.212717699992936,1,True,12,A,2023-09-09_11h50.39.139,exp3,2022.2.2,
,,,,,,,,,,,,,,,,,,,,,,,0,-1716,Invalid,noise,0,2,1093.836970999997,1,3.0,2.7127660999976797,1,True,12,A,2023-09-09_11h50.39.139,exp3,2022.2.2,
,,,,,,,,,,,,,,,,,,,,,,,0,-2274,Valid,noise,0,1,1097.1814038000011,0,3.0,2.3461198000004515,1,True,12,A,2023-09-09_11h50.39.139,exp3,2022.2.2,
,,,,,,,,,,,,,,,,,,,,,,,0,-557,Valid,noise,0,2,1100.828708999994,1,3.0,2.7634883999999147,1,True,12,A,2023-09-09_11h50.39.139,exp3,2022.2.2,
,,,,,,,,,,,,,,,,,,,,,,,0,1716,Valid,signal,0,1,1104.0937396999943,1,3.0,2.095622499997262,1,True,12,A,2023-09-09_11h50.39.139,exp3,2022.2.2,
,,,,,,,,,,,,,,,,,,,,,,,0,1716,Valid,noise,0,2,1107.6136897999968,1,3.0,2.429021299991291,1,True,12,A,2023-09-09_11h50.39.139,exp3,2022.2.2,
,,,,,,,,,,,,,,,,,,,,,,,0,2274,Valid,noise,0,2,1110.9732205999899,1,3.0,2.4794476999959443,1,True,12,A,2023-09-09_11h50.39.139,exp3,2022.2.2,
,,,,,,,,,,,,,,,,,,,,,,,0,-1158,Invalid,signal,0,1,1114.3488458999927,1,3.0,2.3291276000090875,1,True,12,A,2023-09-09_11h50.39.139,exp3,2022.2.2,
,,,,,,,,,,,,,,,,,,,,,,,0,557,Valid,noise,0,2,1119.0855713999917,1,3.0,3.8639631000114605,2,True,12,A,2023-09-09_11h50.39.139,exp3,2022.2.2,
,,,,,,,,,,,,,,,,,,,,,,,0,-557,Invalid,noise,0,1,1129.2297840999963,0,3.0,9.348536499994225,4,True,12,A,2023-09-09_11h50.39.139,exp3,2022.2.2,
,,,,,,,,,,,,,,,,,,,,,,,0,557,Invalid,signal,0,1,1138.8615575000003,1,3.0,8.448615500004962,3,True,12,A,2023-09-09_11h50.39.139,exp3,2022.2.2,
,,,,,,,,,,,,,,,,,,,,,,,0,1158,Valid,signal,0,1,1142.2057186999882,1,3.0,2.2951157000061357,1,True,12,A,2023-09-09_11h50.39.139,exp3,2022.2.2,
,,,,,,,,,,,,,,,,,,,,,,,0,-557,Invalid,noise,0,1,1145.7407521999994,0,3.0,2.629772400003276,1,True,12,A,2023-09-09_11h50.39.139,exp3,2022.2.2,
,,,,,,,,,,,,,,,,,,,,,,,0,557,Valid,noise,0,2,1149.021158699994,1,3.0,2.0790210999984993,1,True,12,A,2023-09-09_11h50.39.139,exp3,2022.2.2,
,,,,,,,,,,,,,,,,,,,,,,,0,1158,Valid,signal,0,1,1152.0771438999946,1,3.0,2.045932699998957,1,True,12,A,2023-09-09_11h50.39.139,exp3,2022.2.2,
,,,,,,,,,,,,,,,,,,,,,,,0,557,Valid,noise,0,2,1155.484582399993,1,3.0,2.346053400004166,1,True,12,A,2023-09-09_11h50.39.139,exp3,2022.2.2,
,,,,,,,,,,,,,,,,,,,,,,,0,-2274,Valid,signal,0,1,1158.6853659999906,1,3.0,2.3127802000090014,1,True,12,A,2023-09-09_11h50.39.139,exp3,2022.2.2,
,,,,,,,,,,,,,,,,,,,,,,,0,-1716,Valid,signal,0,1,1162.1894161999953,1,3.0,2.3793546999950195,1,True,12,A,2023-09-09_11h50.39.139,exp3,2022.2.2,
,,,,,,,,,,,,,,,,,,,,,,,0,-2274,Valid,noise,0,1,1165.6614677999896,0,3.0,2.5456475999963004,1,True,12,A,2023-09-09_11h50.39.139,exp3,2022.2.2,
,,,,,,,,,,,,,,,,,,,,,,,0,-557,Valid,noise,0,1,1169.1171365999908,0,3.0,2.429617599991616,1,True,12,A,2023-09-09_11h50.39.139,exp3,2022.2.2,
,,,,,,,,,,,,,,,,,,,,,,,0,-2274,Valid,signal,0,1,1172.365936599992,1,3.0,2.2121641999983694,1,True,12,A,2023-09-09_11h50.39.139,exp3,2022.2.2,
,,,,,,,,,,,,,,,,,,,,,,,0,1158,Valid,signal,0,1,1175.4372724999994,1,3.0,2.113220800005365,1,True,12,A,2023-09-09_11h50.39.139,exp3,2022.2.2,
,,,,,,,,,,,,,,,,,,,,,,,0,-557,Invalid,signal,0,1,1178.845064699999,1,3.0,2.3458606000058353,1,True,12,A,2023-09-09_11h50.39.139,exp3,2022.2.2,
,,,,,,,,,,,,,,,,,,,,,,,0,2274,Invalid,signal,0,2,1182.6687623999896,0,3.0,2.8961213000002317,1,True,12,A,2023-09-09_11h50.39.139,exp3,2022.2.2,
,,,,,,,,,,,,,,,,,,,,,,,0,-1158,Valid,signal,0,1,1185.8848280999955,1,3.0,2.362151499997708,1,True,12,A,2023-09-09_11h50.39.139,exp3,2022.2.2,
,,,,,,,,,,,,,,,,,,,,,,,0,-557,Valid,signal,0,1,1189.1655918999895,1,3.0,2.0954123999981675,1,True,12,A,2023-09-09_11h50.39.139,exp3,2022.2.2,
,,,,,,,,,,,,,,,,,,,,,,,0,557,Valid,signal,0,1,1193.917930399999,1,3.0,3.9800317000044743,2,True,12,A,2023-09-09_11h50.39.139,exp3,2022.2.2,
,,,,,,,,,,,,,,,,,,,,,,,0,1716,Valid,signal,0,1,1197.2777050000004,1,3.0,2.1294216999958735,1,True,12,A,2023-09-09_11h50.39.139,exp3,2022.2.2,
,,,,,,,,,,,,,,,,,,,,,,,0,-557,Valid,signal,0,1,1200.2374733999895,1,3.0,1.8962266000016825,1,True,12,A,2023-09-09_11h50.39.139,exp3,2022.2.2,
,,,,,,,,,,,,,,,,,,,,,,,0,2274,Valid,signal,0,2,1203.6133058999985,0,3.0,2.295568000001367,1,True,12,A,2023-09-09_11h50.39.139,exp3,2022.2.2,
,,,,,,,,,,,,,,,,,,,,,,,0,-1158,Valid,noise,0,2,1208.1250785999873,1,3.0,3.8301689000072656,1,True,12,A,2023-09-09_11h50.39.139,exp3,2022.2.2,
,,,,,,,,,,,,,,,,,,,,,,,0,-2274,Valid,signal,0,2,1211.6771762999997,0,3.0,2.429445699992357,1,True,12,A,2023-09-09_11h50.39.139,exp3,2022.2.2,
,,,,,,,,,,,,,,,,,,,,,,,0,-557,Valid,noise,0,1,1214.8131978999882,0,3.0,2.012082899993402,1,True,12,A,2023-09-09_11h50.39.139,exp3,2022.2.2,
,,,,,,,,,,,,,,,,,,,,,,,0,2274,Valid,signal,0,2,1217.9018053999898,0,3.0,2.0791641999967396,1,True,12,A,2023-09-09_11h50.39.139,exp3,2022.2.2,
,,,,,,,,,,,,,,,,,,,,,,,0,2274,Valid,noise,0,2,1221.0054413999896,1,3.0,2.0125554999976885,1,True,12,A,2023-09-09_11h50.39.139,exp3,2022.2.2,
,,,,,,,,,,,,,,,,,,,,,,,0,557,Valid,signal,0,1,1224.1417355999874,1,3.0,2.213183600004413,1,True,12,A,2023-09-09_11h50.39.139,exp3,2022.2.2,
,,,,,,,,,,,,,,,,,,,,,,,0,2274,Valid,noise,0,2,1227.22860029999,1,3.0,2.028534800003399,1,True,12,A,2023-09-09_11h50.39.139,exp3,2022.2.2,
,,,,,,,,,,,,,,,,,,,,,,,0,1158,Valid,signal,0,1,1230.2850865999935,1,3.0,2.0297072999965167,1,True,12,A,2023-09-09_11h50.39.139,exp3,2022.2.2,
,,,,,,,,,,,,,,,,,,,,,,,0,2274,Invalid,signal,0,1,1237.5006779999967,1,3.0,6.380186000009417,2,True,12,A,2023-09-09_11h50.39.139,exp3,2022.2.2,
,,,,,,,,,,,,,,,,,,,,,,,0,1158,Valid,noise,0,1,1240.8446967999917,0,3.0,2.1627917000005255,1,True,12,A,2023-09-09_11h50.39.139,exp3,2022.2.2,
,,,,,,,,,,,,,,,,,,,,,,,0,1716,Valid,signal,0,1,1244.2215881999873,1,3.0,2.346085800003493,1,True,12,A,2023-09-09_11h50.39.139,exp3,2022.2.2,
,,,,,,,,,,,,,,,,,,,,,,,0,-1158,Invalid,noise,0,2,1247.7405550999974,1,3.0,2.5629519000067376,1,True,12,A,2023-09-09_11h50.39.139,exp3,2022.2.2,
,,,,,,,,,,,,,,,,,,,,,,,0,557,Valid,noise,0,2,1251.2608017999883,1,3.0,2.478940299988608,1,True,12,A,2023-09-09_11h50.39.139,exp3,2022.2.2,
,,,,,,,,,,,,,,,,,,,,,,,0,2274,Invalid,noise,0,1,1255.5165349000017,0,3.0,3.2301147999969544,1,True,12,A,2023-09-09_11h50.39.139,exp3,2022.2.2,
,,,,,,,,,,,,,,,,,,,,,,,0,-2274,Invalid,signal,0,1,1258.9575216999947,1,3.0,2.46188180000172,1,True,12,A,2023-09-09_11h50.39.139,exp3,2022.2.2,
,,,,,,,,,,,,,,,,,,,,,,,0,1716,Invalid,noise,0,2,1261.9177569999883,1,1.0,4.180583499997738,1,True,12,A,2023-09-09_11h50.39.139,exp3,2022.2.2,
,,,,,,,,,,,,,,,,,,,,,,,0,-2274,Valid,noise,0,2,1267.5336057999957,1,3.0,3.0964450999890687,1,True,12,A,2023-09-09_11h50.39.139,exp3,2022.2.2,
,,,,,,,,,,,,,,,,,,,,,,,0,-2274,Valid,noise,0,2,1271.9009125999874,1,3.0,2.7796989000053145,1,True,12,A,2023-09-09_11h50.39.139,exp3,2022.2.2,
,,,,,,,,,,,,,,,,,,,,,,,0,1158,Valid,noise,0,2,1277.9645950999984,1,3.0,5.363290599998436,2,True,12,A,2023-09-09_11h50.39.139,exp3,2022.2.2,
,,,,,,,,,,,,,,,,,,,,,,,0,2274,Valid,noise,0,2,1281.9977973999921,1,3.0,3.113111700004083,1,True,12,A,2023-09-09_11h50.39.139,exp3,2022.2.2,
,,,,,,,,,,,,,,,,,,,,,,,0,-1716,Invalid,signal,0,1,1285.9966866999894,1,3.0,2.745471500005806,1,True,12,A,2023-09-09_11h50.39.139,exp3,2022.2.2,
,,,,,,,,,,,,,,,,,,,,,,,0,-1716,Valid,noise,0,1,1289.9331680999894,0,3.0,2.7295435999985784,1,True,12,A,2023-09-09_11h50.39.139,exp3,2022.2.2,
,,,,,,,,,,,,,,,,,,,,,,,0,2274,Valid,noise,0,2,1293.0691754,1,3.0,2.1294955000048503,1,True,12,A,2023-09-09_11h50.39.139,exp3,2022.2.2,
,,,,,,,,,,,,,,,,,,,,,,,0,-2274,Valid,signal,0,2,1296.9568302999978,0,3.0,2.796505399994203,1,True,12,A,2023-09-09_11h50.39.139,exp3,2022.2.2,
,,,,,,,,,,,,,,,,,,,,,,,0,-557,Valid,noise,0,2,1300.2374827999884,1,3.0,2.362026799994055,1,True,12,A,2023-09-09_11h50.39.139,exp3,2022.2.2,
,,,,,,,,,,,,,,,,,,,,,,,0,557,Valid,noise,0,2,1303.3406200999889,1,3.0,2.1962940999947023,1,True,12,A,2023-09-09_11h50.39.139,exp3,2022.2.2,
,,,,,,,,,,,,,,,,,,,,,,,0,-1158,Invalid,signal,0,1,1306.9095011999889,1,3.0,2.4790493000036804,1,True,12,A,2023-09-09_11h50.39.139,exp3,2022.2.2,
,,,,,,,,,,,,,,,,,,,,,,,0,-2274,Valid,noise,0,2,1310.2855508999928,1,3.0,2.278997999994317,1,True,12,A,2023-09-09_11h50.39.139,exp3,2022.2.2,
,,,,,,,,,,,,,,,,,,,,,,,0,1716,Valid,noise,0,1,1314.7806583999918,0,3.0,3.6973661000083666,1,True,12,A,2023-09-09_11h50.39.139,exp3,2022.2.2,
,,,,,,,,,,,,,,,,,,,,,,,0,-1158,Valid,noise,0,1,1320.125678299999,0,3.0,4.295982299998286,2,True,12,A,2023-09-09_11h50.39.139,exp3,2022.2.2,
,,,,,,,,,,,,,,,,,,,,,,,0,557,Valid,signal,0,1,1323.4216483999917,1,3.0,2.145936499990057,1,True,12,A,2023-09-09_11h50.39.139,exp3,2022.2.2,
,,,,,,,,,,,,,,,,,,,,,,,0,2274,Valid,signal,0,2,1326.4613716999884,0,3.0,1.979837699997006,1,True,12,A,2023-09-09_11h50.39.139,exp3,2022.2.2,
,,,,,,,,,,,,,,,,,,,,,,,0,1716,Valid,noise,0,1,1329.8686400000006,0,3.0,3.2125840000080643,1,True,12,A,2023-09-09_11h50.39.139,exp3,2022.2.2,
,,,,,,,,,,,,,,,,,,,,,,,0,-2274,Valid,signal,0,2,1333.949844799994,0,3.0,2.662769999995362,1,True,12,A,2023-09-09_11h50.39.139,exp3,2022.2.2,
,,,,,,,,,,,,,,,,,,,,,,,0,1716,Invalid,signal,0,1,1337.8365953999892,1,3.0,3.2966145999962464,1,True,12,A,2023-09-09_11h50.39.139,exp3,2022.2.2,
,,,,,,,,,,,,,,,,,,,,,,,0,-557,Valid,signal,0,1,1341.9330792999972,1,3.0,3.6303473000007216,1,True,12,A,2023-09-09_11h50.39.139,exp3,2022.2.2,
,,,,,,,,,,,,,,,,,,,,,,,0,1158,Valid,noise,0,2,1346.6213319999952,1,3.0,2.562291299997014,1,True,12,A,2023-09-09_11h50.39.139,exp3,2022.2.2,
,,,,,,,,,,,,,,,,,,,,,,,0,1716,Valid,signal,0,1,1349.8696316999994,1,3.0,2.1460735999862663,1,True,12,A,2023-09-09_11h50.39.139,exp3,2022.2.2,
,,,,,,,,,,,,,,,,,,,,,,,0,-2274,Valid,signal,0,1,1353.325073,1,3.0,2.379033100005472,1,True,12,A,2023-09-09_11h50.39.139,exp3,2022.2.2,
,,,,,,,,,,,,,,,,,,,,,,,0,557,Invalid,noise,0,1,1356.86192879999,0,3.0,2.579667600002722,1,True,12,A,2023-09-09_11h50.39.139,exp3,2022.2.2,
,,,,,,,,,,,,,,,,,,,,,,,0,557,Valid,noise,0,2,1360.3815769999928,1,3.0,2.5457244999997783,1,True,12,A,2023-09-09_11h50.39.139,exp3,2022.2.2,
,,,,,,,,,,,,,,,,,,,,,,,0,1716,Valid,noise,0,1,1366.9412077999878,0,3.0,5.914453300007153,2,True,12,A,2023-09-09_11h50.39.139,exp3,2022.2.2,
,,,,,,,,,,,,,,,,,,,,,,,0,557,Valid,signal,0,1,1370.476920000001,1,3.0,2.1292206999933114,1,True,12,A,2023-09-09_11h50.39.139,exp3,2022.2.2,
,,,,,,,,,,,,,,,,,,,,,,,0,-1158,Valid,signal,0,1,1373.5654380999913,1,3.0,2.296010899997782,1,True,12,A,2023-09-09_11h50.39.139,exp3,2022.2.2,
,,,,,,,,,,,,,,,,,,,,,,,0,-2274,Valid,signal,0,2,1377.309080799998,0,1.0,3.4963939000008395,1,True,12,A,2023-09-09_11h50.39.139,exp3,2022.2.2,
,,,,,,,,,,,,,,,,,,,,,,,0,-2274,Invalid,signal,0,1,1382.2691710999934,1,3.0,3.679703600006178,1,True,12,A,2023-09-09_11h50.39.139,exp3,2022.2.2,
,,,,,,,,,,,,,,,,,,,,,,,0,-1158,Valid,noise,0,2,1389.27785459999,1,3.0,5.4476888999924995,2,True,12,A,2023-09-09_11h50.39.139,exp3,2022.2.2,
,,,,,,,,,,,,,,,,,,,,,,,0,-2274,Valid,noise,0,1,1392.9089591999946,0,3.0,2.54607829998713,1,True,12,A,2023-09-09_11h50.39.139,exp3,2022.2.2,
,,,,,,,,,,,,,,,,,,,,,,,0,1158,Valid,signal,0,1,1396.0616932999983,1,3.0,2.0122794000053545,1,True,12,A,2023-09-09_11h50.39.139,exp3,2022.2.2,
,,,,,,,,,,,,,,,,,,,,,,,0,-557,Valid,noise,0,2,1400.0290528999903,1,3.0,2.9796645000024,1,True,12,A,2023-09-09_11h50.39.139,exp3,2022.2.2,
,,,,,,,,,,,,,,,,,,,,,,,0,557,Valid,signal,0,1,1403.0365197999927,1,3.0,2.3128967999946326,1,True,12,A,2023-09-09_11h50.39.139,exp3,2022.2.2,
,,,,,,,,,,,,,,,,,,,,,,,0,-1716,Valid,noise,0,1,1406.8130613999965,0,3.0,2.4788521000009496,1,True,12,A,2023-09-09_11h50.39.139,exp3,2022.2.2,
,,,,,,,,,,,,,,,,,,,,,,,0,-2274,Valid,signal,0,2,1409.9492561999941,0,3.0,2.046223099998315,1,True,12,A,2023-09-09_11h50.39.139,exp3,2022.2.2,
,,,,,,,,,,,,,,,,,,,,,,,0,-557,Valid,signal,0,1,1412.8929302999895,1,3.0,1.9955518000060692,1,True,12,A,2023-09-09_11h50.39.139,exp3,2022.2.2,
,,,,,,,,,,,,,,,,,,,,,,,0,1716,Valid,signal,0,1,1417.005151099991,1,3.0,3.179798599987407,1,True,12,A,2023-09-09_11h50.39.139,exp3,2022.2.2,
,,,,,,,,,,,,,,,,,,,,,,,0,1158,Valid,noise,0,2,1422.253889899992,1,3.0,4.3969622000004165,2,True,12,A,2023-09-09_11h50.39.139,exp3,2022.2.2,
,,,,,,,,,,,,,,,,,,,,,,,0,1716,Invalid,noise,0,2,1431.2929028999934,1,3.0,7.998073800001293,1,True,12,A,2023-09-09_11h50.39.139,exp3,2022.2.2,
,,,,,,,,,,,,,,,,,,,,,,,0,2274,Valid,signal,0,1,1434.5567965999944,1,3.0,2.09600550000323,1,True,12,A,2023-09-09_11h50.39.139,exp3,2022.2.2,
,,,,,,,,,,,,,,,,,,,,,,,0,-1716,Valid,signal,0,1,1437.6296015999978,1,3.0,2.1293074999994133,1,True,12,A,2023-09-09_11h50.39.139,exp3,2022.2.2,
,,,,,,,,,,,,,,,,,,,,,,,0,-557,Valid,noise,0,1,1441.1968530000013,0,3.0,2.495600199996261,1,True,12,A,2023-09-09_11h50.39.139,exp3,2022.2.2,
,,,,,,,,,,,,,,,,,,,,,,,0,1158,Valid,noise,0,2,1444.1419356999977,1,3.0,1.9453333999990718,1,True,12,A,2023-09-09_11h50.39.139,exp3,2022.2.2,
,,,,,,,,,,,,,,,,,,,,,,,0,-557,Valid,signal,0,1,1447.2292245999997,1,3.0,2.0624585000041407,1,True,12,A,2023-09-09_11h50.39.139,exp3,2022.2.2,
,,,,,,,,,,,,,,,,,,,,,,,0,1158,Invalid,signal,0,1,1450.573426899995,1,3.0,2.3130912000051467,1,True,12,A,2023-09-09_11h50.39.139,exp3,2022.2.2,
,,,,,,,,,,,,,,,,,,,,,,,0,1158,Valid,noise,0,2,1453.773993099996,1,3.0,2.1789991999976337,1,True,12,A,2023-09-09_11h50.39.139,exp3,2022.2.2,
,,,,,,,,,,,,,,,,,,,,,,,0,2274,Valid,signal,0,2,1456.8292196999973,0,3.0,2.0458415000030072,1,True,12,A,2023-09-09_11h50.39.139,exp3,2022.2.2,
,,,,,,,,,,,,,,,,,,,,,,,0,-1158,Valid,signal,0,1,1459.9817561999953,1,3.0,2.146454999994603,1,True,12,A,2023-09-09_11h50.39.139,exp3,2022.2.2,
,,,,,,,,,,,,,,,,,,,,,,,0,-1716,Valid,signal,0,1,1462.9735145999875,1,3.0,2.0287783999956446,1,True,12,A,2023-09-09_11h50.39.139,exp3,2022.2.2,
,,,,,,,,,,,,,,,,,,,,,,,0,1158,Valid,signal,0,1,1471.9969836999953,1,3.0,8.432297500010463,2,True,12,A,2023-09-09_11h50.39.139,exp3,2022.2.2,
,,,,,,,,,,,,,,,,,,,,,,,0,557,Valid,signal,0,1,1478.0459435999946,1,3.0,4.929593799999566,2,True,12,A,2023-09-09_11h50.39.139,exp3,2022.2.2,
,,,,,,,,,,,,,,,,,,,,,,,0,1158,Valid,signal,0,1,1481.4058053999906,1,3.0,2.212592500000028,1,True,12,A,2023-09-09_11h50.39.139,exp3,2022.2.2,
,,,,,,,,,,,,,,,,,,,,,,,0,-1716,Invalid,signal,0,1,1484.9739200999902,1,3.0,2.4962601000006543,1,True,12,A,2023-09-09_11h50.39.139,exp3,2022.2.2,
,,,,,,,,,,,,,,,,,,,,,,,0,-557,Valid,noise,0,1,1488.2378024999925,0,3.0,2.212553699995624,1,True,12,A,2023-09-09_11h50.39.139,exp3,2022.2.2,
,,,,,,,,,,,,,,,,,,,,,,,0,-1716,Valid,noise,0,2,1491.5178028999944,1,3.0,2.246758099994622,1,True,12,A,2023-09-09_11h50.39.139,exp3,2022.2.2,
,,,,,,,,,,,,,,,,,,,,,,,0,1158,Invalid,noise,0,2,1494.509938999996,1,1.0,3.9963830999913625,1,True,12,A,2023-09-09_11h50.39.139,exp3,2022.2.2,
,,,,,,,,,,,,,,,,,,,,,,,0,557,Invalid,signal,0,1,1500.3815332999948,1,3.0,3.7962501000001794,1,True,12,A,2023-09-09_11h50.39.139,exp3,2022.2.2,
,,,,,,,,,,,,,,,,,,,,,,,0,-1158,Valid,signal,0,1,1504.3333376999944,1,3.0,2.2627156999951694,1,True,12,A,2023-09-09_11h50.39.139,exp3,2022.2.2,
,,,,,,,,,,,,,,,,,,,,,,,0,-1158,Valid,signal,0,1,1507.6134588999994,1,3.0,2.1127849999902537,1,True,12,A,2023-09-09_11h50.39.139,exp3,2022.2.2,
,,,,,,,,,,,,,,,,,,,,,,,0,-1158,Invalid,noise,0,2,1512.6528713000007,1,3.0,4.230234200003906,1,True,12,A,2023-09-09_11h50.39.139,exp3,2022.2.2,
,,,,,,,,,,,,,,,,,,,,,,,0,-1158,Valid,noise,0,2,1516.4127396999975,1,3.0,2.496247700008098,1,True,12,A,2023-09-09_11h50.39.139,exp3,2022.2.2,
,,,,,,,,,,,,,,,,,,,,,,,0,557,Valid,signal,0,1,1519.5805648999958,1,3.0,2.1792626999958884,1,True,12,A,2023-09-09_11h50.39.139,exp3,2022.2.2,
,,,,,,,,,,,,,,,,,,,,,,,0,-1716,Valid,noise,0,1,1522.861486599999,0,3.0,2.762383299996145,1,True,12,A,2023-09-09_11h50.39.139,exp3,2022.2.2,
,,,,,,,,,,,,,,,,,,,,,,,0,-1716,Valid,noise,0,2,1527.453255299988,1,3.0,3.1129555000079563,1,True,12,A,2023-09-09_11h50.39.139,exp3,2022.2.2,
,,,,,,,,,,,,,,,,,,,,,,,0,1158,Valid,signal,0,1,1530.7494831999938,1,3.0,2.245603500006837,1,True,12,A,2023-09-09_11h50.39.139,exp3,2022.2.2,
,,,,,,,,,,,,,,,,,,,,,,,0,-557,Valid,signal,0,1,1536.1896773999906,1,3.0,4.881245600001421,1,True,12,A,2023-09-09_11h50.39.139,exp3,2022.2.2,
,,,,,,,,,,,,,,,,,,,,,,,0,1158,Valid,noise,0,2,1539.7094444999966,1,3.0,2.078863700007787,1,True,12,A,2023-09-09_11h50.39.139,exp3,2022.2.2,
,,,,,,,,,,,,,,,,,,,,,,,0,-1716,Valid,noise,0,2,1542.8777826000005,1,3.0,2.2788899000006495,1,True,12,A,2023-09-09_11h50.39.139,exp3,2022.2.2,
,,,,,,,,,,,,,,,,,,,,,,,0,-557,Valid,signal,0,1,1546.4926541999885,1,3.0,2.479699999996228,1,True,12,A,2023-09-09_11h50.39.139,exp3,2022.2.2,
,,,,,,,,,,,,,,,,,,,,,,,0,2274,Invalid,noise,0,2,1549.4699395999924,1,1.0,3.5127175000088755,1,True,12,A,2023-09-09_11h50.39.139,exp3,2022.2.2,
,,,,,,,,,,,,,,,,,,,,,,,0,-1158,Valid,noise,0,1,1554.3013033999887,0,3.0,2.3295137000095565,1,True,12,A,2023-09-09_11h50.39.139,exp3,2022.2.2,
,,,,,,,,,,,,,,,,,,,,,,,0,1158,Valid,noise,0,2,1557.4052831000008,1,3.0,3.179570899999817,1,True,12,A,2023-09-09_11h50.39.139,exp3,2022.2.2,
,,,,,,,,,,,,,,,,,,,,,,,0,1158,Valid,signal,0,1,1561.6770139,1,3.0,2.162566800005152,1,True,12,A,2023-09-09_11h50.39.139,exp3,2022.2.2,
,,,,,,,,,,,,,,,,,,,,,,,0,-1158,Valid,noise,0,1,1565.4056083999894,0,3.0,2.6962879000057,1,True,12,A,2023-09-09_11h50.39.139,exp3,2022.2.2,
,,,,,,,,,,,,,,,,,,,,,,,0,-1158,Valid,noise,0,1,1568.5577152999904,0,3.0,2.1458999999886146,1,True,12,A,2023-09-09_11h50.39.139,exp3,2022.2.2,
,,,,,,,,,,,,,,,,,,,,,,,0,1716,Valid,signal,0,1,1571.5815635999897,1,3.0,2.029065000009723,1,True,12,A,2023-09-09_11h50.39.139,exp3,2022.2.2,
,,,,,,,,,,,,,,,,,,,,,,,0,1158,Valid,noise,0,2,1574.5890749999962,1,3.0,2.0796582999901148,1,True,12,A,2023-09-09_11h50.39.139,exp3,2022.2.2,
,,,,,,,,,,,,,,,,,,,,,,,0,2274,Valid,noise,0,2,1577.8689610000001,1,3.0,2.212663900005282,1,True,12,A,2023-09-09_11h50.39.139,exp3,2022.2.2,
,,,,,,,,,,,,,,,,,,,,,,,0,1716,Valid,noise,0,2,1581.0686377999955,1,3.0,2.1295249999966472,1,True,12,A,2023-09-09_11h50.39.139,exp3,2022.2.2,
,,,,,,,,,,,,,,,,,,,,,,,0,1716,Valid,signal,0,1,1584.2211547999905,1,3.0,2.1457665000052657,1,True,12,A,2023-09-09_11h50.39.139,exp3,2022.2.2,
,,,,,,,,,,,,,,,,,,,,,,,0,1716,Valid,noise,0,2,1587.2125786999968,1,3.0,1.9952759000007063,1,True,12,A,2023-09-09_11h50.39.139,exp3,2022.2.2,
,,,,,,,,,,,,,,,,,,,,,,,0,-1716,Valid,noise,0,1,1590.2539587999927,0,3.0,2.0297137000015937,1,True,12,A,2023-09-09_11h50.39.139,exp3,2022.2.2,
,,,,,,,,,,,,,,,,,,,,,,,0,-1716,Valid,noise,0,1,1593.3254042999906,0,3.0,2.0791481000051135,1,True,12,A,2023-09-09_11h50.39.139,exp3,2022.2.2,
,,,,,,,,,,,,,,,,,,,,,,,0,-1158,Valid,noise,0,1,1597.2295302999992,0,3.0,2.8793918999872403,1,True,12,A,2023-09-09_11h50.39.139,exp3,2022.2.2,
,,,,,,,,,,,,,,,,,,,,,,,0,-1158,Valid,signal,0,1,1600.1577551999944,1,3.0,2.2293457000050694,1,True,12,A,2023-09-09_11h50.39.139,exp3,2022.2.2,
,,,,,,,,,,,,,,,,,,,,,,,0,-557,Invalid,signal,0,1,1603.9965694999992,1,3.0,2.5131672999996226,1,True,12,A,2023-09-09_11h50.39.139,exp3,2022.2.2,
,,,,,,,,,,,,,,,,,,,,,,,0,557,Invalid,noise,0,1,1608.3326478999952,0,3.0,3.496505999995861,1,True,12,A,2023-09-09_11h50.39.139,exp3,2022.2.2,
,,,,,,,,,,,,,,,,,,,,,,,1,-1716,Valid,signal,0,1,1961.0528301000013,1,3.0,153.31104700001015,42,True,12,A,2023-09-09_11h50.39.139,exp3,2022.2.2,
,,,,,,,,,,,,,,,,,,,,,,,2,-1716,Invalid,noise,0,2,1971.7089643999934,1,3.0,6.998267600007239,1,True,12,A,2023-09-09_11h50.39.139,exp3,2022.2.2,
,,,,,,,,,,,,,,,,,,,,,,,3,2274,Valid,signal,0,2,2357.8856165999896,0,3.0,386.1775340000022,65,True,12,A,2023-09-09_11h50.39.139,exp3,2022.2.2,
,,,,,,,,,,,,,,,,,,,,,,,4,557,Valid,noise,0,2,2364.253783299995,1,3.0,4.197010500007309,1,True,12,A,2023-09-09_11h50.39.139,exp3,2022.2.2,
,,,,,,,,,,,,,,,,,,,,,,,5,557,Valid,signal,0,1,2370.4615664999874,1,3.0,5.330150399997365,2,True,12,A,2023-09-09_11h50.39.139,exp3,2022.2.2,
,,,,,,,,,,,,,,,,,,,,,,,6,2274,Valid,signal,0,2,2378.3499243999977,0,3.0,6.964352800001507,2,True,12,A,2023-09-09_11h50.39.139,exp3,2022.2.2,
,,,,,,,,,,,,,,,,,,,,,,,7,1158,Invalid,signal,0,1,2382.685805199988,1,3.0,3.012797800009139,1,True,12,A,2023-09-09_11h50.39.139,exp3,2022.2.2,
,,,,,,,,,,,,,,,,,,,,,,,8,-557,Valid,signal,0,1,2386.2381475,1,3.0,2.129229900005157,1,True,12,A,2023-09-09_11h50.39.139,exp3,2022.2.2,
,,,,,,,,,,,,,,,,,,,,,,,9,-1158,Valid,noise,0,1,2390.01358649999,0,3.0,2.879932600000757,1,True,12,A,2023-09-09_11h50.39.139,exp3,2022.2.2,
,,,,,,,,,,,,,,,,,,,,,,,10,-2274,Valid,noise,0,1,2393.3249165000016,0,3.0,2.679083700000774,1,True,12,A,2023-09-09_11h50.39.139,exp3,2022.2.2,
,,,,,,,,,,,,,,,,,,,,,,,11,-1158,Valid,signal,0,1,2398.30106849999,1,3.0,3.5966494000022067,2,True,12,A,2023-09-09_11h50.39.139,exp3,2022.2.2,
,,,,,,,,,,,,,,,,,,,,,,,12,-1716,Valid,noise,0,2,2401.90152259999,1,3.0,2.4462656999967294,1,True,12,A,2023-09-09_11h50.39.139,exp3,2022.2.2,
,,,,,,,,,,,,,,,,,,,,,,,13,-1158,Valid,noise,0,2,2405.2931443999987,1,3.0,2.3795887000014773,1,True,12,A,2023-09-09_11h50.39.139,exp3,2022.2.2,
,,,,,,,,,,,,,,,,,,,,,,,14,-1716,Valid,noise,0,2,2408.5731950999907,1,3.0,2.2789225000014994,1,True,12,A,2023-09-09_11h50.39.139,exp3,2022.2.2,
,,,,,,,,,,,,,,,,,,,,,,,15,2274,Valid,signal,0,2,2412.0932736999966,0,3.0,2.596553800001857,1,True,12,A,2023-09-09_11h50.39.139,exp3,2022.2.2,
,,,,,,,,,,,,,,,,,,,,,,,16,-557,Valid,noise,0,1,2415.645073499996,0,3.0,2.395725599999423,1,True,12,A,2023-09-09_11h50.39.139,exp3,2022.2.2,
,,,,,,,,,,,,,,,,,,,,,,,17,557,Valid,signal,0,1,2418.6220571999875,1,3.0,2.07898250001017,1,True,12,A,2023-09-09_11h50.39.139,exp3,2022.2.2,
,,,,,,,,,,,,,,,,,,,,,,,18,-557,Valid,signal,0,1,2421.693310399991,1,3.0,1.9963473999960115,1,True,12,A,2023-09-09_11h50.39.139,exp3,2022.2.2,
,,,,,,,,,,,,,,,,,,,,,,,19,1158,Valid,noise,0,2,2428.5416818999947,1,3.0,6.080242800002452,3,True,12,A,2023-09-09_11h50.39.139,exp3,2022.2.2,
,,,,,,,,,,,,,,,,,,,,,,,20,2274,Valid,signal,0,2,2432.4933281999984,0,3.0,2.7457931999961147,1,True,12,A,2023-09-09_11h50.39.139,exp3,2022.2.2,
,,,,,,,,,,,,,,,,,,,,,,,21,-557,Invalid,noise,0,1,2436.0462180999893,0,3.0,2.5962650000001304,1,True,12,A,2023-09-09_11h50.39.139,exp3,2022.2.2,
,,,,,,,,,,,,,,,,,,,,,,,22,-2274,Valid,noise,0,1,2439.550187899993,0,3.0,2.429363300005207,1,True,12,A,2023-09-09_11h50.39.139,exp3,2022.2.2,
,,,,,,,,,,,,,,,,,,,,,,,23,-1158,Valid,signal,0,1,2442.461495899988,1,3.0,1.895862199991825,1,True,12,A,2023-09-09_11h50.39.139,exp3,2022.2.2,
,,,,,,,,,,,,,,,,,,,,,,,24,-2274,Valid,noise,0,1,2445.4701101999963,0,3.0,1.996452200008207,1,True,12,A,2023-09-09_11h50.39.139,exp3,2022.2.2,
,,,,,,,,,,,,,,,,,,,,,,,25,-557,Valid,noise,0,1,2448.4773720999947,0,3.0,1.9622982000000775,1,True,12,A,2023-09-09_11h50.39.139,exp3,2022.2.2,
,,,,,,,,,,,,,,,,,,,,,,,26,557,Invalid,signal,0,2,2451.389160699997,0,1.0,3.2960806999908527,1,True,12,A,2023-09-09_11h50.39.139,exp3,2022.2.2,
,,,,,,,,,,,,,,,,,,,,,,,27,1158,Valid,noise,0,2,2456.012812899993,1,4.0,2.3790930999966804,1,True,12,A,2023-09-09_11h50.39.139,exp3,2022.2.2,
,,,,,,,,,,,,,,,,,,,,,,,28,2274,Valid,noise,0,2,2459.5335725999903,1,3.0,2.663271799989161,1,True,12,A,2023-09-09_11h50.39.139,exp3,2022.2.2,
,,,,,,,,,,,,,,,,,,,,,,,29,1158,Valid,signal,0,1,2462.877010299999,1,3.0,2.3623115999944275,1,True,12,A,2023-09-09_11h50.39.139,exp3,2022.2.2,
,,,,,,,,,,,,,,,,,,,,,,,30,1158,Valid,signal,0,1,2466.1572877,1,3.0,1.9957359000109136,1,True,12,A,2023-09-09_11h50.39.139,exp3,2022.2.2,
,,,,,,,,,,,,,,,,,,,,,,,31,-1158,Valid,signal,0,1,2469.1339344000007,1,3.0,1.9457118999998784,1,True,12,A,2023-09-09_11h50.39.139,exp3,2022.2.2,
,,,,,,,,,,,,,,,,,,,,,,,32,-1716,Valid,signal,0,1,2479.5654184000014,1,3.0,9.481936099997256,3,True,12,A,2023-09-09_11h50.39.139,exp3,2022.2.2,
,,,,,,,,,,,,,,,,,,,,,,,33,1158,Invalid,noise,0,1,2483.1808468999952,0,3.0,2.5634133999992628,1,True,12,A,2023-09-09_11h50.39.139,exp3,2022.2.2,
,,,,,,,,,,,,,,,,,,,,,,,34,1716,Invalid,signal,0,1,2486.493929199991,1,3.0,2.295561100007035,1,True,12,A,2023-09-09_11h50.39.139,exp3,2022.2.2,
,,,,,,,,,,,,,,,,,,,,,,,35,1716,Invalid,noise,0,1,2491.4541968999984,0,3.0,4.029824299999746,2,True,12,A,2023-09-09_11h50.39.139,exp3,2022.2.2,
,,,,,,,,,,,,,,,,,,,,,,,36,1158,Valid,noise,0,2,2494.6058182999986,1,3.0,2.313209599989932,1,True,12,A,2023-09-09_11h50.39.139,exp3,2022.2.2,
,,,,,,,,,,,,,,,,,,,,,,,37,1158,Valid,signal,0,1,2501.0376508999907,1,3.0,5.430518499997561,2,True,12,A,2023-09-09_11h50.39.139,exp3,2022.2.2,
,,,,,,,,,,,,,,,,,,,,,,,38,1716,Valid,signal,0,1,2504.493336899992,1,3.0,2.262442999999621,1,True,12,A,2023-09-09_11h50.39.139,exp3,2022.2.2,
,,,,,,,,,,,,,,,,,,,,,,,39,-1158,Valid,noise,0,1,2507.661096399999,0,3.0,2.1288684000028297,1,True,12,A,2023-09-09_11h50.39.139,exp3,2022.2.2,
,,,,,,,,,,,,,,,,,,,,,,,40,-1158,Valid,noise,0,2,2510.9734021999902,1,3.0,2.2797543999913614,1,True,12,A,2023-09-09_11h50.39.139,exp3,2022.2.2,
,,,,,,,,,,,,,,,,,,,,,,,41,-1716,Valid,signal,0,1,2514.014249,1,3.0,2.0620850999985123,1,True,12,A,2023-09-09_11h50.39.139,exp3,2022.2.2,
,,,,,,,,,,,,,,,,,,,,,,,42,-1716,Valid,signal,0,1,2517.0541484999994,1,3.0,2.029147599998396,1,True,12,A,2023-09-09_11h50.39.139,exp3,2022.2.2,
,,,,,,,,,,,,,,,,,,,,,,,43,-1158,Valid,noise,0,1,2520.013976199989,0,3.0,1.9460184999916237,1,True,12,A,2023-09-09_11h50.39.139,exp3,2022.2.2,
,,,,,,,,,,,,,,,,,,,,,,,44,-557,Valid,noise,0,1,2523.085253099998,0,3.0,2.3461420999956317,1,True,12,A,2023-09-09_11h50.39.139,exp3,2022.2.2,
,,,,,,,,,,,,,,,,,,,,,,,45,2274,Valid,noise,0,2,2528.0459193999995,1,3.0,4.146261700007017,2,True,12,A,2023-09-09_11h50.39.139,exp3,2022.2.2,
,,,,,,,,,,,,,,,,,,,,,,,46,-557,Valid,signal,0,1,2531.6455485999904,1,3.0,2.1294845000084024,1,True,12,A,2023-09-09_11h50.39.139,exp3,2022.2.2,
,,,,,,,,,,,,,,,,,,,,,,,47,1158,Valid,noise,0,2,2534.717683099996,1,3.0,2.0793082999880426,1,True,12,A,2023-09-09_11h50.39.139,exp3,2022.2.2,
,,,,,,,,,,,,,,,,,,,,,,,48,-1716,Invalid,noise,0,2,2538.462062999999,1,3.0,2.6625541000103112,1,True,12,A,2023-09-09_11h50.39.139,exp3,2022.2.2,
,,,,,,,,,,,,,,,,,,,,,,,49,2274,Valid,noise,0,2,2541.501906099991,1,3.0,2.046054300008109,1,True,12,A,2023-09-09_11h50.39.139,exp3,2022.2.2,
,,,,,,,,,,,,,,,,,,,,,,,50,1158,Valid,signal,0,1,2544.445736599999,1,3.0,1.9284463999938453,1,True,12,A,2023-09-09_11h50.39.139,exp3,2022.2.2,
,,,,,,,,,,,,,,,,,,,,,,,51,1716,Valid,signal,0,1,2547.3253256999888,1,3.0,1.8793219000071986,1,True,12,A,2023-09-09_11h50.39.139,exp3,2022.2.2,
,,,,,,,,,,,,,,,,,,,,,,,52,-2274,Valid,signal,0,1,2550.4301089999935,1,3.0,2.095908299990697,1,True,12,A,2023-09-09_11h50.39.139,exp3,2022.2.2,
,,,,,,,,,,,,,,,,,,,,,,,53,-1716,Valid,signal,0,1,2553.421139099999,1,3.0,1.979672000001301,1,True,12,A,2023-09-09_11h50.39.139,exp3,2022.2.2,
,,,,,,,,,,,,,,,,,,,,,,,54,-1158,Valid,signal,0,1,2556.413571199999,1,3.0,1.9620144999935292,1,True,12,A,2023-09-09_11h50.39.139,exp3,2022.2.2,
,,,,,,,,,,,,,,,,,,,,,,,55,-1716,Valid,noise,0,1,2559.741055599996,0,3.0,2.3462084000057075,1,True,12,A,2023-09-09_11h50.39.139,exp3,2022.2.2,
,,,,,,,,,,,,,,,,,,,,,,,56,-1716,Invalid,signal,0,1,2564.6859818999947,1,3.0,4.113777400008985,1,True,12,A,2023-09-09_11h50.39.139,exp3,2022.2.2,
,,,,,,,,,,,,,,,,,,,,,,,57,1716,Valid,signal,0,1,2567.7902017999877,1,3.0,1.9456788000097731,1,True,12,A,2023-09-09_11h50.39.139,exp3,2022.2.2,
,,,,,,,,,,,,,,,,,,,,,,,58,-1158,Valid,noise,0,2,2574.493194800001,1,3.0,5.813453000009758,1,True,12,A,2023-09-09_11h50.39.139,exp3,2022.2.2,
,,,,,,,,,,,,,,,,,,,,,,,59,1158,Valid,signal,0,1,2577.614210499989,1,3.0,2.079256199998781,1,True,12,A,2023-09-09_11h50.39.139,exp3,2022.2.2,
,,,,,,,,,,,,,,,,,,,,,,,60,557,Valid,signal,0,1,2580.860900200001,1,3.0,2.296214100002544,1,True,12,A,2023-09-09_11h50.39.139,exp3,2022.2.2,
,,,,,,,,,,,,,,,,,,,,,,,61,1158,Valid,noise,0,2,2584.3332075999933,1,3.0,2.4126754000026267,1,True,12,A,2023-09-09_11h50.39.139,exp3,2022.2.2,
,,,,,,,,,,,,,,,,,,,,,,,62,-2274,Invalid,signal,0,2,2592.7022085999924,0,3.0,7.298114799996256,1,True,12,A,2023-09-09_11h50.39.139,exp3,2022.2.2,
,,,,,,,,,,,,,,,,,,,,,,,63,-2274,Valid,noise,0,2,2596.4778222999885,1,3.0,2.846601400000509,1,True,12,A,2023-09-09_11h50.39.139,exp3,2022.2.2,
,,,,,,,,,,,,,,,,,,,,,,,64,1158,Valid,signal,0,1,2599.7577369999926,1,3.0,2.278965999998036,1,True,12,A,2023-09-09_11h50.39.139,exp3,2022.2.2,
,,,,,,,,,,,,,,,,,,,,,,,65,557,Valid,signal,0,1,2606.6216301999957,1,3.0,5.996936600000481,2,True,12,A,2023-09-09_11h50.39.139,exp3,2022.2.2,
,,,,,,,,,,,,,,,,,,,,,,,66,557,Valid,noise,0,2,2609.7732098999986,1,3.0,1.9295692000014242,1,True,12,A,2023-09-09_11h50.39.139,exp3,2022.2.2,
,,,,,,,,,,,,,,,,,,,,,,,67,-557,Valid,noise,0,1,2612.910035299996,0,3.0,2.145814599993173,1,True,12,A,2023-09-09_11h50.39.139,exp3,2022.2.2,
,,,,,,,,,,,,,,,,,,,,,,,68,1716,Valid,noise,0,2,2615.838232199996,1,3.0,1.912267100007739,1,True,12,A,2023-09-09_11h50.39.139,exp3,2022.2.2,
,,,,,,,,,,,,,,,,,,,,,,,69,1158,Valid,signal,0,2,2618.7978621999937,0,3.0,2.029722599996603,1,True,12,A,2023-09-09_11h50.39.139,exp3,2022.2.2,
,,,,,,,,,,,,,,,,,,,,,,,70,2274,Valid,signal,0,1,2628.124984599999,1,3.0,8.548130800001672,3,True,12,A,2023-09-09_11h50.39.139,exp3,2022.2.2,
,,,,,,,,,,,,,,,,,,,,,,,71,-2274,Valid,signal,0,2,2631.6453907999967,0,3.0,2.179056299995864,1,True,12,A,2023-09-09_11h50.39.139,exp3,2022.2.2,
,,,,,,,,,,,,,,,,,,,,,,,72,1716,Valid,noise,0,1,2634.9741544999997,0,3.0,2.3291343999881065,1,True,12,A,2023-09-09_11h50.39.139,exp3,2022.2.2,
,,,,,,,,,,,,,,,,,,,,,,,73,2274,Valid,noise,0,2,2637.9181637,1,3.0,1.9456797000020742,1,True,12,A,2023-09-09_11h50.39.139,exp3,2022.2.2,
,,,,,,,,,,,,,,,,,,,,,,,74,-557,Valid,signal,0,1,2641.02156139999,1,3.0,2.0459490999928676,1,True,12,A,2023-09-09_11h50.39.139,exp3,2022.2.2,
,,,,,,,,,,,,,,,,,,,,,,,75,-1716,Valid,noise,0,2,2645.3569063999894,1,3.0,3.5630692999984603,2,True,12,A,2023-09-09_11h50.39.139,exp3,2022.2.2,
,,,,,,,,,,,,,,,,,,,,,,,76,-2274,Invalid,noise,0,1,2648.9422567,0,3.0,2.3960395000030985,1,True,12,A,2023-09-09_11h50.39.139,exp3,2022.2.2,
,,,,,,,,,,,,,,,,,,,,,,,77,2274,Valid,noise,0,1,2651.948939099995,0,3.0,2.1460083999991184,1,True,12,A,2023-09-09_11h50.39.139,exp3,2022.2.2,
,,,,,,,,,,,,,,,,,,,,,,,78,2274,Valid,signal,0,2,2655.1334904999967,0,1.0,2.346100299997488,1,True,12,A,2023-09-09_11h50.39.139,exp3,2022.2.2,
,,,,,,,,,,,,,,,,,,,,,,,79,-557,Valid,noise,0,2,2658.7809953999968,1,3.0,2.6302938000008,1,True,12,A,2023-09-09_11h50.39.139,exp3,2022.2.2,
,,,,,,,,,,,,,,,,,,,,,,,80,557,Valid,signal,0,1,2662.158052599989,1,3.0,2.4949885999958497,1,True,12,A,2023-09-09_11h50.39.139,exp3,2022.2.2,
,,,,,,,,,,,,,,,,,,,,,,,81,557,Invalid,signal,0,2,2666.189064099992,0,3.0,2.6797132000065176,1,True,12,A,2023-09-09_11h50.39.139,exp3,2022.2.2,
,,,,,,,,,,,,,,,,,,,,,,,82,-557,Valid,signal,0,2,2669.229338899997,0,3.0,2.012563600001158,1,True,12,A,2023-09-09_11h50.39.139,exp3,2022.2.2,
,,,,,,,,,,,,,,,,,,,,,,,83,-1716,Valid,noise,0,1,2672.525789799998,0,3.0,2.2793930000043474,1,True,12,A,2023-09-09_11h50.39.139,exp3,2022.2.2,
,,,,,,,,,,,,,,,,,,,,,,,84,1716,Valid,noise,0,1,2676.3810207999923,0,3.0,2.946456499994383,1,True,12,A,2023-09-09_11h50.39.139,exp3,2022.2.2,
,,,,,,,,,,,,,,,,,,,,,,,85,-1716,Valid,signal,0,2,2686.253302699988,0,3.0,9.798775100003695,4,True,12,A,2023-09-09_11h50.39.139,exp3,2022.2.2,
,,,,,,,,,,,,,,,,,,,,,,,86,-1716,Valid,signal,0,2,2691.1176363999984,0,3.0,2.8628702999994857,1,True,12,A,2023-09-09_11h50.39.139,exp3,2022.2.2,
,,,,,,,,,,,,,,,,,,,,,,,87,-2274,Valid,signal,0,2,2694.4293387999933,0,3.0,2.412877800001297,1,True,12,A,2023-09-09_11h50.39.139,exp3,2022.2.2,
,,,,,,,,,,,,,,,,,,,,,,,88,-557,Valid,noise,0,1,2698.2529309999954,0,3.0,3.930236500003957,1,True,12,A,2023-09-09_11h50.39.139,exp3,2022.2.2,
,,,,,,,,,,,,,,,,,,,,,,,89,557,Valid,signal,0,2,2702.5729259999935,0,3.0,2.211844299992663,1,True,12,A,2023-09-09_11h50.39.139,exp3,2022.2.2,
,,,,,,,,,,,,,,,,,,,,,,,90,2274,Valid,noise,0,2,2706.0458240000007,1,3.0,2.3299807000003057,1,True,12,A,2023-09-09_11h50.39.139,exp3,2022.2.2,
,,,,,,,,,,,,,,,,,,,,,,,91,-2274,Valid,signal,0,2,2709.5329865999956,0,3.0,2.462077899996075,1,True,12,A,2023-09-09_11h50.39.139,exp3,2022.2.2,
,,,,,,,,,,,,,,,,,,,,,,,92,1716,Valid,signal,0,2,2712.590035299989,0,3.0,2.6964215000043623,1,True,12,A,2023-09-09_11h50.39.139,exp3,2022.2.2,
,,,,,,,,,,,,,,,,,,,,,,,93,1716,Valid,signal,0,2,2716.733629999988,0,3.0,2.5295998999936273,1,True,12,A,2023-09-09_11h50.39.139,exp3,2022.2.2,
,,,,,,,,,,,,,,,,,,,,,,,94,557,Valid,noise,0,2,2720.0134722999937,1,3.0,2.2622491999936756,1,True,12,A,2023-09-09_11h50.39.139,exp3,2022.2.2,
,,,,,,,,,,,,,,,,,,,,,,,95,557,Valid,noise,0,2,2723.053730499989,1,3.0,2.0127302999899257,1,True,12,A,2023-09-09_11h50.39.139,exp3,2022.2.2,
,,,,,,,,,,,,,,,,,,,,,,,96,2274,Invalid,noise,0,1,2726.9249510999944,0,3.0,2.879290000011679,1,True,12,A,2023-09-09_11h50.39.139,exp3,2022.2.2,
,,,,,,,,,,,,,,,,,,,,,,,97,-557,Invalid,signal,0,1,2730.829737799999,1,3.0,2.896194100001594,1,True,12,A,2023-09-09_11h50.39.139,exp3,2022.2.2,
,,,,,,,,,,,,,,,,,,,,,,,98,1716,Valid,noise,0,2,2734.029013899999,1,3.0,2.146345699991798,1,True,12,A,2023-09-09_11h50.39.139,exp3,2022.2.2,
,,,,,,,,,,,,,,,,,,,,,,,99,1716,Valid,noise,0,2,2737.0373058999976,1,3.0,2.0456166000076337,1,True,12,A,2023-09-09_11h50.39.139,exp3,2022.2.2,
,,,,,,,,,,,,,,,,,,,,,,,100,557,Invalid,noise,0,1,2740.5580916999897,0,3.0,2.512418300000718,1,True,12,A,2023-09-09_11h50.39.139,exp3,2022.2.2,
,,,,,,,,,,,,,,,,,,,,,,,101,557,Valid,signal,0,1,2743.7889949999953,1,3.0,2.1629575999977533,1,True,12,A,2023-09-09_11h50.39.139,exp3,2022.2.2,
,,,,,,,,,,,,,,,,,,,,,,,102,1158,Valid,signal,0,1,2746.7652088999894,1,3.0,2.0459319000074174,1,True,12,A,2023-09-09_11h50.39.139,exp3,2022.2.2,
,,,,,,,,,,,,,,,,,,,,,,,103,-1158,Valid,signal,0,1,2749.7256337,1,3.0,2.012713200005237,1,True,12,A,2023-09-09_11h50.39.139,exp3,2022.2.2,
,,,,,,,,,,,,,,,,,,,,,,,104,-2274,Valid,signal,0,2,2753.2138586999936,0,3.0,2.7623805000039283,1,True,12,A,2023-09-09_11h50.39.139,exp3,2022.2.2,
,,,,,,,,,,,,,,,,,,,,,,,105,-2274,Invalid,noise,0,1,2757.0693104999955,0,3.0,2.4627004000067245,1,True,12,A,2023-09-09_11h50.39.139,exp3,2022.2.2,
,,,,,,,,,,,,,,,,,,,,,,,106,-2274,Valid,signal,0,1,2760.525325099996,1,2.0,3.7798821999895154,1,True,12,A,2023-09-09_11h50.39.139,exp3,2022.2.2,
,,,,,,,,,,,,,,,,,,,,,,,107,2274,Valid,signal,0,1,2765.373594199991,1,3.0,3.580200500000501,1,True,12,A,2023-09-09_11h50.39.139,exp3,2022.2.2,
,,,,,,,,,,,,,,,,,,,,,,,108,-2274,Valid,signal,0,2,2770.2048776999873,0,3.0,2.7626221000100486,1,True,12,A,2023-09-09_11h50.39.139,exp3,2022.2.2,
,,,,,,,,,,,,,,,,,,,,,,,109,2274,Valid,noise,0,2,2773.404882499992,1,3.0,2.3794514999899548,1,True,12,A,2023-09-09_11h50.39.139,exp3,2022.2.2,
,,,,,,,,,,,,,,,,,,,,,,,110,-1716,Valid,signal,0,1,2776.541903999998,1,3.0,2.0131084000022383,1,True,12,A,2023-09-09_11h50.39.139,exp3,2022.2.2,
,,,,,,,,,,,,,,,,,,,,,,,111,-1158,Valid,signal,0,1,2780.0929260999983,1,3.0,2.5287984000024153,1,True,12,A,2023-09-09_11h50.39.139,exp3,2022.2.2,
,,,,,,,,,,,,,,,,,,,,,,,112,1716,Valid,signal,0,1,2783.229947999993,1,3.0,2.062541200008127,1,True,12,A,2023-09-09_11h50.39.139,exp3,2022.2.2,
,,,,,,,,,,,,,,,,,,,,,,,113,-2274,Valid,noise,0,1,2790.7500128999964,0,3.0,6.981370399997104,3,True,12,A,2023-09-09_11h50.39.139,exp3,2022.2.2,
,,,,,,,,,,,,,,,,,,,,,,,114,2274,Valid,signal,0,1,2802.989901599998,1,3.0,11.066566699999385,4,True,12,A,2023-09-09_11h50.39.139,exp3,2022.2.2,
,,,,,,,,,,,,,,,,,,,,,,,115,1158,Valid,noise,0,2,2806.3333222999936,1,3.0,2.045760799999698,1,True,12,A,2023-09-09_11h50.39.139,exp3,2022.2.2,
,,,,,,,,,,,,,,,,,,,,,,,116,-1158,Valid,signal,0,1,2809.24627969999,1,3.0,1.895173099997919,1,True,12,A,2023-09-09_11h50.39.139,exp3,2022.2.2,
,,,,,,,,,,,,,,,,,,,,,,,117,1158,Invalid,signal,0,2,2812.1896433999937,0,1.0,3.3468205999961356,1,True,12,A,2023-09-09_11h50.39.139,exp3,2022.2.2,
,,,,,,,,,,,,,,,,,,,,,,,118,1158,Valid,noise,0,1,2819.197371599992,0,3.0,5.263660799988429,2,True,12,A,2023-09-09_11h50.39.139,exp3,2022.2.2,
,,,,,,,,,,,,,,,,,,,,,,,119,-1716,Valid,signal,0,1,2822.9413239999994,1,3.0,2.1123274999990826,1,True,12,A,2023-09-09_11h50.39.139,exp3,2022.2.2,
,,,,,,,,,,,,,,,,,,,,,,,120,1716,Valid,signal,0,2,2826.381792299988,0,3.0,2.596168199990643,1,True,12,A,2023-09-09_11h50.39.139,exp3,2022.2.2,
,,,,,,,,,,,,,,,,,,,,,,,121,2274,Invalid,noise,0,1,2830.3653868999972,0,3.0,2.8630345000128727,1,True,12,A,2023-09-09_11h50.39.139,exp3,2022.2.2,
,,,,,,,,,,,,,,,,,,,,,,,122,557,Valid,signal,0,1,2833.3888982999924,1,3.0,1.9625002999964636,1,True,12,A,2023-09-09_11h50.39.139,exp3,2022.2.2,
,,,,,,,,,,,,,,,,,,,,,,,123,1716,Valid,noise,0,2,2836.429989600001,1,3.0,1.9956737000029534,1,True,12,A,2023-09-09_11h50.39.139,exp3,2022.2.2,
,,,,,,,,,,,,,,,,,,,,,,,124,557,Valid,signal,0,1,2842.2052322999953,1,3.0,5.21360810000624,3,True,12,A,2023-09-09_11h50.39.139,exp3,2022.2.2,
,,,,,,,,,,,,,,,,,,,,,,,125,557,Valid,noise,0,2,2845.55010339999,1,3.0,1.9133798999973806,1,True,12,A,2023-09-09_11h50.39.139,exp3,2022.2.2,
,,,,,,,,,,,,,,,,,,,,,,,126,-557,Valid,signal,0,1,2848.4942317999958,1,3.0,1.9112699999968754,1,True,12,A,2023-09-09_11h50.39.139,exp3,2022.2.2,
,,,,,,,,,,,,,,,,,,,,,,,127,-2274,Valid,signal,0,1,2851.4697944999934,1,3.0,1.979875200006063,1,True,12,A,2023-09-09_11h50.39.139,exp3,2022.2.2,
,,,,,,,,,,,,,,,,,,,,,,,128,1716,Valid,signal,0,1,2854.429597299997,1,3.0,1.9954391999926884,1,True,12,A,2023-09-09_11h50.39.139,exp3,2022.2.2,
,,,,,,,,,,,,,,,,,,,,,,,129,-2274,Valid,noise,0,2,2857.549129299994,1,3.0,2.096067499995115,1,True,12,A,2023-09-09_11h50.39.139,exp3,2022.2.2,
,,,,,,,,,,,,,,,,,,,,,,,130,-1716,Valid,noise,0,2,2860.6054981999914,1,3.0,2.0626889999984996,1,True,12,A,2023-09-09_11h50.39.139,exp3,2022.2.2,
,,,,,,,,,,,,,,,,,,,,,,,131,1716,Valid,noise,0,2,2863.5977878999984,1,3.0,1.9457286999968346,1,True,12,A,2023-09-09_11h50.39.139,exp3,2022.2.2,
,,,,,,,,,,,,,,,,,,,,,,,132,1158,Valid,noise,0,2,2866.526026899999,1,3.0,1.9124144999950659,1,True,12,A,2023-09-09_11h50.39.139,exp3,2022.2.2,
,,,,,,,,,,,,,,,,,,,,,,,133,-557,Valid,signal,0,1,2869.8537130999903,1,3.0,2.34586849999323,1,True,12,A,2023-09-09_11h50.39.139,exp3,2022.2.2,
,,,,,,,,,,,,,,,,,,,,,,,134,-557,Valid,noise,0,1,2872.7818220999907,0,3.0,1.8962340999860317,1,True,12,A,2023-09-09_11h50.39.139,exp3,2022.2.2,
,,,,,,,,,,,,,,,,,,,,,,,135,-1158,Valid,noise,0,2,2875.965446099988,1,3.0,2.195738299997174,1,True,12,A,2023-09-09_11h50.39.139,exp3,2022.2.2,
,,,,,,,,,,,,,,,,,,,,,,,136,-557,Invalid,noise,0,1,2879.5658312000014,0,3.0,2.679484799999045,1,True,12,A,2023-09-09_11h50.39.139,exp3,2022.2.2,
,,,,,,,,,,,,,,,,,,,,,,,137,1158,Valid,noise,0,2,2882.7182374999975,1,3.0,2.0126820000004955,1,True,12,A,2023-09-09_11h50.39.139,exp3,2022.2.2,
,,,,,,,,,,,,,,,,,,,,,,,138,-2274,Valid,noise,0,1,2885.8854902999883,0,1.0,3.6966128000058234,1,True,12,A,2023-09-09_11h50.39.139,exp3,2022.2.2,
,,,,,,,,,,,,,,,,,,,,,,,139,-1158,Valid,signal,0,2,2890.365834299999,0,1.0,3.0629998999938834,1,True,12,A,2023-09-09_11h50.39.139,exp3,2022.2.2,
,,,,,,,,,,,,,,,,,,,,,,,140,1158,Valid,signal,0,1,2894.4774456000014,1,3.0,2.362702200000058,1,True,12,A,2023-09-09_11h50.39.139,exp3,2022.2.2,
,,,,,,,,,,,,,,,,,,,,,,,141,2274,Invalid,signal,0,2,2898.349831399988,0,1.0,3.4965376000036485,1,True,12,A,2023-09-09_11h50.39.139,exp3,2022.2.2,
,,,,,,,,,,,,,,,,,,,,,,,142,1716,Valid,signal,0,1,2904.685903299993,1,4.0,4.51331239999854,2,True,12,A,2023-09-09_11h50.39.139,exp3,2022.2.2,
,,,,,,,,,,,,,,,,,,,,,,,143,557,Invalid,noise,0,1,2908.6211261999997,0,3.0,2.8798506999883102,1,True,12,A,2023-09-09_11h50.39.139,exp3,2022.2.2,
,,,,,,,,,,,,,,,,,,,,,,,144,557,Valid,noise,0,2,2912.1898210999934,1,3.0,2.57936659999541,1,True,12,A,2023-09-09_11h50.39.139,exp3,2022.2.2,
,,,,,,,,,,,,,,,,,,,,,,,145,-557,Valid,signal,0,1,2916.094308399988,1,3.0,2.8792778000060935,1,True,12,A,2023-09-09_11h50.39.139,exp3,2022.2.2,
,,,,,,,,,,,,,,,,,,,,,,,146,-1716,Valid,noise,0,2,2919.4691863999906,1,3.0,2.2623709000035888,1,True,12,A,2023-09-09_11h50.39.139,exp3,2022.2.2,
,,,,,,,,,,,,,,,,,,,,,,,147,2274,Valid,signal,0,1,2922.5421706999914,1,3.0,2.646408699991298,1,True,12,A,2023-09-09_11h50.39.139,exp3,2022.2.2,
,,,,,,,,,,,,,,,,,,,,,,,148,-1158,Invalid,signal,0,1,2926.6063102999906,1,3.0,2.479602400009753,1,True,12,A,2023-09-09_11h50.39.139,exp3,2022.2.2,
,,,,,,,,,,,,,,,,,,,,,,,149,1716,Invalid,noise,0,2,2930.1258881999966,1,3.0,2.5127370999980485,1,True,12,A,2023-09-09_11h50.39.139,exp3,2022.2.2,
,,,,,,,,,,,,,,,,,,,,,,,150,-557,Valid,signal,0,1,2936.7811621,1,3.0,5.863988800003426,1,True,12,A,2023-09-09_11h50.39.139,exp3,2022.2.2,
,,,,,,,,,,,,,,,,,,,,,,,151,2274,Valid,noise,0,2,2940.0455681999883,1,3.0,2.0785727000038605,1,True,12,A,2023-09-09_11h50.39.139,exp3,2022.2.2,
,,,,,,,,,,,,,,,,,,,,,,,152,-557,Valid,noise,0,2,2943.3893676000007,1,3.0,2.3460311999951955,1,True,12,A,2023-09-09_11h50.39.139,exp3,2022.2.2,
,,,,,,,,,,,,,,,,,,,,,,,153,2274,Valid,noise,0,2,2946.5262833999877,1,3.0,2.2624137999955565,1,True,12,A,2023-09-09_11h50.39.139,exp3,2022.2.2,
,,,,,,,,,,,,,,,,,,,,,,,154,-1716,Valid,noise,0,2,2949.709831100001,1,3.0,2.0456501000007847,1,True,12,A,2023-09-09_11h50.39.139,exp3,2022.2.2,
,,,,,,,,,,,,,,,,,,,,,,,155,-1158,Valid,noise,0,2,2952.844964799995,1,3.0,2.096284299987019,1,True,12,A,2023-09-09_11h50.39.139,exp3,2022.2.2,
,,,,,,,,,,,,,,,,,,,,,,,156,-1158,Invalid,noise,0,1,2958.077721099995,0,3.0,4.363369300001068,2,True,12,A,2023-09-09_11h50.39.139,exp3,2022.2.2,
,,,,,,,,,,,,,,,,,,,,,,,157,-1158,Invalid,noise,0,2,2961.7258691999887,1,3.0,2.479506299991044,1,True,12,A,2023-09-09_11h50.39.139,exp3,2022.2.2,
,,,,,,,,,,,,,,,,,,,,,,,158,-1716,Invalid,signal,0,1,2964.7013380999997,1,3.0,2.0123753000079887,1,True,12,A,2023-09-09_11h50.39.139,exp3,2022.2.2,
,,,,,,,,,,,,,,,,,,,,,,,159,1716,Valid,noise,0,2,2967.8212072999886,1,3.0,2.0956809999916004,1,True,12,A,2023-09-09_11h50.39.139,exp3,2022.2.2,
,,,,,,,,,,,,,,,,,,,,,,,160,-2274,Valid,noise,0,2,2971.437305799991,1,2.0,2.813134700001683,1,True,12,A,2023-09-09_11h50.39.139,exp3,2022.2.2,
,,,,,,,,,,,,,,,,,,,,,,,161,-1716,Valid,noise,0,1,2983.4216047999944,0,3.0,11.999751800001832,5,True,12,A,2023-09-09_11h50.39.139,exp3,2022.2.2,
,,,,,,,,,,,,,,,,,,,,,,,162,557,Valid,noise,0,2,2987.5342507999885,1,3.0,2.145558999996865,1,True,12,A,2023-09-09_11h50.39.139,exp3,2022.2.2,
,,,,,,,,,,,,,,,,,,,,,,,163,1716,Invalid,signal,0,2,2990.701581599991,0,3.0,2.2794942000036826,1,True,12,A,2023-09-09_11h50.39.139,exp3,2022.2.2,
,,,,,,,,,,,,,,,,,,,,,,,164,-557,Valid,noise,0,1,2994.0772583999933,0,3.0,2.5131835999927716,1,True,12,A,2023-09-09_11h50.39.139,exp3,2022.2.2,
,,,,,,,,,,,,,,,,,,,,,,,165,1716,Valid,noise,0,2,2997.6778077999916,1,3.0,2.1293062000040663,1,True,12,A,2023-09-09_11h50.39.139,exp3,2022.2.2,
,,,,,,,,,,,,,,,,,,,,,,,166,-2274,Valid,noise,0,2,3002.8459393999947,1,3.0,4.3128124000068055,2,True,12,A,2023-09-09_11h50.39.139,exp3,2022.2.2,
,,,,,,,,,,,,,,,,,,,,,,,167,-1158,Valid,signal,0,1,3005.9500835999934,1,3.0,1.9793007999978727,1,True,12,A,2023-09-09_11h50.39.139,exp3,2022.2.2,
,,,,,,,,,,,,,,,,,,,,,,,168,-1158,Invalid,signal,0,1,3009.053197299989,1,3.0,2.096105800010264,1,True,12,A,2023-09-09_11h50.39.139,exp3,2022.2.2,
,,,,,,,,,,,,,,,,,,,,,,,169,-2274,Invalid,signal,0,1,3012.477578799997,1,3.0,2.646204000004218,1,True,12,A,2023-09-09_11h50.39.139,exp3,2022.2.2,
,,,,,,,,,,,,,,,,,,,,,,,170,557,Valid,noise,0,2,3016.2699762999982,1,3.0,2.645893900000374,1,True,12,A,2023-09-09_11h50.39.139,exp3,2022.2.2,
,,,,,,,,,,,,,,,,,,,,,,,171,1158,Invalid,noise,0,2,3020.3339884999878,1,3.0,2.9129047000024,1,True,12,A,2023-09-09_11h50.39.139,exp3,2022.2.2,
,,,,,,,,,,,,,,,,,,,,,,,172,-557,Invalid,signal,0,1,3023.7571953000006,1,3.0,2.4459759000019403,1,True,12,A,2023-09-09_11h50.39.139,exp3,2022.2.2,
,,,,,,,,,,,,,,,,,,,,,,,173,-1158,Valid,noise,0,2,3026.7662371999904,1,3.0,1.9792768000042997,1,True,12,A,2023-09-09_11h50.39.139,exp3,2022.2.2,
,,,,,,,,,,,,,,,,,,,,,,,174,557,Valid,noise,0,2,3030.0142971999885,1,3.0,2.3295061999961035,1,True,12,A,2023-09-09_11h50.39.139,exp3,2022.2.2,
,,,,,,,,,,,,,,,,,,,,,,,175,2274,Invalid,signal,0,1,3035.325980999987,1,3.0,4.2806724999973085,1,True,12,A,2023-09-09_11h50.39.139,exp3,2022.2.2,
,,,,,,,,,,,,,,,,,,,,,,,176,-2274,Valid,signal,0,2,3038.4940418999904,0,3.0,2.195897199999308,1,True,12,A,2023-09-09_11h50.39.139,exp3,2022.2.2,
,,,,,,,,,,,,,,,,,,,,,,,2,2274,Valid,signal,0,2,3622.061977599995,0,3.0,5.238330099993618,1,True,12,A,2023-09-09_11h50.39.139,exp3,2022.2.2,
,,,,,,,,,,,,,,,,,,,,,,,4,-2274,Invalid,signal,0,1,3625.885235099995,1,3.0,2.662961299996823,1,True,12,A,2023-09-09_11h50.39.139,exp3,2022.2.2,
,,,,,,,,,,,,,,,,,,,,,,,6,-2274,Valid,signal,0,1,3629.437568299996,1,3.0,2.3788053000025684,1,True,12,A,2023-09-09_11h50.39.139,exp3,2022.2.2,
,,,,,,,,,,,,,,,,,,,,,,,8,-2274,Valid,noise,0,2,3632.8614486000006,1,3.0,2.2463218000048073,1,True,12,A,2023-09-09_11h50.39.139,exp3,2022.2.2,
,,,,,,,,,,,,,,,,,,,,,,,10,557,Valid,noise,0,2,3635.9495043999923,1,3.0,2.1458189000113634,1,True,12,A,2023-09-09_11h50.39.139,exp3,2022.2.2,
,,,,,,,,,,,,,,,,,,,,,,,12,1716,Valid,noise,0,2,3639.0704898999975,1,3.0,2.1960225000075297,1,True,12,A,2023-09-09_11h50.39.139,exp3,2022.2.2,
,,,,,,,,,,,,,,,,,,,,,,,14,-557,Valid,signal,0,1,3642.0936887999997,1,3.0,1.9624120000080438,1,True,12,A,2023-09-09_11h50.39.139,exp3,2022.2.2,
,,,,,,,,,,,,,,,,,,,,,,,16,1158,Invalid,noise,0,2,3645.0543036000017,1,3.0,2.195625399996061,1,True,12,A,2023-09-09_11h50.39.139,exp3,2022.2.2,
,,,,,,,,,,,,,,,,,,,,,,,18,-557,Valid,signal,0,1,3648.4138014999917,1,3.0,2.0288534999999683,1,True,12,A,2023-09-09_11h50.39.139,exp3,2022.2.2,
,,,,,,,,,,,,,,,,,,,,,,,20,1716,Valid,signal,0,1,3651.5017197999987,1,3.0,2.0791615000052843,1,True,12,A,2023-09-09_11h50.39.139,exp3,2022.2.2,
,,,,,,,,,,,,,,,,,,,,,,,22,-1716,Valid,noise,0,2,3654.8304166000016,1,3.0,2.3127352000010433,1,True,12,A,2023-09-09_11h50.39.139,exp3,2022.2.2,
,,,,,,,,,,,,,,,,,,,,,,,24,-557,Valid,signal,0,1,3657.7092846999876,1,3.0,1.8291845000057947,1,True,12,A,2023-09-09_11h50.39.139,exp3,2022.2.2,
,,,,,,,,,,,,,,,,,,,,,,,26,-2274,Invalid,signal,0,2,3660.781075799998,0,3.0,2.329109199999948,1,True,12,A,2023-09-09_11h50.39.139,exp3,2022.2.2,
,,,,,,,,,,,,,,,,,,,,,,,28,-1716,Valid,noise,0,2,3664.093368899994,1,3.0,2.095772200002102,1,True,12,A,2023-09-09_11h50.39.139,exp3,2022.2.2,
,,,,,,,,,,,,,,,,,,,,,,,30,1158,Valid,noise,0,2,3667.0057148999913,1,3.0,1.862739000003785,1,True,12,A,2023-09-09_11h50.39.139,exp3,2022.2.2,
,,,,,,,,,,,,,,,,,,,,,,,32,-1158,Valid,noise,0,1,3670.0297491999954,0,3.0,2.012334400002146,1,True,12,A,2023-09-09_11h50.39.139,exp3,2022.2.2,
,,,,,,,,,,,,,,,,,,,,,,,34,1716,Valid,noise,0,2,3673.341325799993,1,3.0,2.3625424999918323,1,True,12,A,2023-09-09_11h50.39.139,exp3,2022.2.2,
,,,,,,,,,,,,,,,,,,,,,,,36,2274,Valid,signal,0,1,3676.414004499995,1,3.0,2.046239399991464,1,True,12,A,2023-09-09_11h50.39.139,exp3,2022.2.2,
,,,,,,,,,,,,,,,,,,,,,,,38,-557,Valid,noise,0,2,3679.677465399989,1,3.0,2.262470799993025,1,True,12,A,2023-09-09_11h50.39.139,exp3,2022.2.2,
,,,,,,,,,,,,,,,,,,,,,,,40,-557,Valid,signal,0,1,3682.6385006999917,1,3.0,1.9793761000037193,1,True,12,A,2023-09-09_11h50.39.139,exp3,2022.2.2,
,,,,,,,,,,,,,,,,,,,,,,,42,1158,Valid,signal,0,1,3691.261367599989,1,3.0,7.83137230000284,3,True,12,A,2023-09-09_11h50.39.139,exp3,2022.2.2,
,,,,,,,,,,,,,,,,,,,,,,,44,-1158,Valid,signal,0,1,3694.333325200001,1,3.0,1.845775699999649,1,True,12,A,2023-09-09_11h50.39.139,exp3,2022.2.2,
,,,,,,,,,,,,,,,,,,,,,,,46,1716,Valid,signal,0,2,3697.374331599989,0,3.0,2.2295201000088127,1,True,12,A,2023-09-09_11h50.39.139,exp3,2022.2.2,
,,,,,,,,,,,,,,,,,,,,,,,48,2274,Invalid,signal,0,1,3700.7495060999936,1,3.0,2.1963036000088323,1,True,12,A,2023-09-09_11h50.39.139,exp3,2022.2.2,
,,,,,,,,,,,,,,,,,,,,,,,50,-1716,Invalid,signal,0,1,3704.237362,1,3.0,2.462649400011287,1,True,12,A,2023-09-09_11h50.39.139,exp3,2022.2.2,
,,,,,,,,,,,,,,,,,,,,,,,52,-2274,Valid,noise,0,2,3707.4056032999943,1,3.0,2.1289088999910746,1,True,12,A,2023-09-09_11h50.39.139,exp3,2022.2.2,
,,,,,,,,,,,,,,,,,,,,,,,54,2274,Valid,signal,0,1,3710.333914899995,1,3.0,1.9290188999875681,1,True,12,A,2023-09-09_11h50.39.139,exp3,2022.2.2,
,,,,,,,,,,,,,,,,,,,,,,,56,1716,Valid,signal,0,1,3713.23016359999,1,3.0,1.9291426999989199,1,True,12,A,2023-09-09_11h50.39.139,exp3,2022.2.2,
,,,,,,,,,,,,,,,,,,,,,,,58,-2274,Invalid,noise,0,2,3716.8131249,1,3.0,2.5124196999968262,1,True,12,A,2023-09-09_11h50.39.139,exp3,2022.2.2,
,,,,,,,,,,,,,,,,,,,,,,,60,557,Valid,signal,0,1,3720.637532499997,1,3.0,2.8298102999979164,1,True,12,A,2023-09-09_11h50.39.139,exp3,2022.2.2,
,,,,,,,,,,,,,,,,,,,,,,,62,1158,Valid,noise,0,2,3723.662318699993,1,3.0,1.978728999994928,1,True,12,A,2023-09-09_11h50.39.139,exp3,2022.2.2,
,,,,,,,,,,,,,,,,,,,,,,,64,557,Invalid,signal,0,1,3727.2296128000016,1,3.0,2.6630914000124903,1,True,12,A,2023-09-09_11h50.39.139,exp3,2022.2.2,
,,,,,,,,,,,,,,,,,,,,,,,66,1158,Valid,noise,0,2,3730.270443199988,1,3.0,1.9956362999946577,1,True,12,A,2023-09-09_11h50.39.139,exp3,2022.2.2,
,,,,,,,,,,,,,,,,,,,,,,,68,-1158,Valid,signal,0,1,3738.7654250999913,1,3.0,7.881754200003343,3,True,12,A,2023-09-09_11h50.39.139,exp3,2022.2.2,
,,,,,,,,,,,,,,,,,,,,,,,70,-1158,Valid,signal,0,1,3742.3022611999913,1,3.0,2.2120813999936217,1,True,12,A,2023-09-09_11h50.39.139,exp3,2022.2.2,
,,,,,,,,,,,,,,,,,,,,,,,72,-2274,Valid,noise,0,1,3745.3900901000015,0,3.0,2.0126890999963507,1,True,12,A,2023-09-09_11h50.39.139,exp3,2022.2.2,
,,,,,,,,,,,,,,,,,,,,,,,74,-557,Invalid,signal,0,2,3748.3659933000017,0,1.0,3.3298030000005383,1,True,12,A,2023-09-09_11h50.39.139,exp3,2022.2.2,
,,,,,,,,,,,,,,,,,,,,,,,76,1158,Valid,signal,0,1,3752.750267899988,1,4.0,2.0621718000038527,1,True,12,A,2023-09-09_11h50.39.139,exp3,2022.2.2,
,,,,,,,,,,,,,,,,,,,,,,,78,557,Valid,noise,0,2,3755.6773879999964,1,3.0,1.9458599999925354,1,True,12,A,2023-09-09_11h50.39.139,exp3,2022.2.2,
,,,,,,,,,,,,,,,,,,,,,,,80,-557,Valid,signal,0,1,3758.653296599994,1,3.0,1.9459661000000779,1,True,12,A,2023-09-09_11h50.39.139,exp3,2022.2.2,
,,,,,,,,,,,,,,,,,,,,,,,82,-1716,Valid,noise,0,2,3761.86932279999,1,3.0,2.2126967999938643,1,True,12,A,2023-09-09_11h50.39.139,exp3,2022.2.2,
,,,,,,,,,,,,,,,,,,,,,,,84,557,Valid,signal,0,1,3764.8774358999945,1,3.0,1.9121293999924092,1,True,12,A,2023-09-09_11h50.39.139,exp3,2022.2.2,
,,,,,,,,,,,,,,,,,,,,,,,86,-1716,Invalid,noise,0,1,3768.1103506999934,0,3.0,2.246161100003519,1,True,12,A,2023-09-09_11h50.39.139,exp3,2022.2.2,
,,,,,,,,,,,,,,,,,,,,,,,88,-1716,Valid,signal,0,1,3771.021417199998,1,3.0,3.379844900002354,1,True,12,A,2023-09-09_11h50.39.139,exp3,2022.2.2,
,,,,,,,,,,,,,,,,,,,,,,,90,2274,Valid,signal,0,1,3775.6295291999995,1,3.0,2.245940900000278,1,True,12,A,2023-09-09_11h50.39.139,exp3,2022.2.2,
,,,,,,,,,,,,,,,,,,,,,,,92,-2274,Valid,signal,0,2,3778.9410911999876,0,3.0,3.7627440999931423,1,True,12,A,2023-09-09_11h50.39.139,exp3,2022.2.2,
,,,,,,,,,,,,,,,,,,,,,,,94,-1716,Valid,noise,0,2,3783.4862854999956,1,3.0,2.012433099996997,1,True,12,A,2023-09-09_11h50.39.139,exp3,2022.2.2,
,,,,,,,,,,,,,,,,,,,,,,,96,-1716,Valid,signal,0,1,3786.6542913999874,1,3.0,2.1288957000069786,1,True,12,A,2023-09-09_11h50.39.139,exp3,2022.2.2,
,,,,,,,,,,,,,,,,,,,,,,,98,-1716,Valid,noise,0,2,3789.8532712999877,1,3.0,2.1958931000117445,1,True,12,A,2023-09-09_11h50.39.139,exp3,2022.2.2,
,,,,,,,,,,,,,,,,,,,,,,,100,557,Valid,signal,0,1,3792.9422751999955,1,3.0,2.079432499987888,1,True,12,A,2023-09-09_11h50.39.139,exp3,2022.2.2,
,,,,,,,,,,,,,,,,,,,,,,,102,-1716,Valid,signal,0,2,3796.33428119999,0,3.0,2.446009799998137,1,True,12,A,2023-09-09_11h50.39.139,exp3,2022.2.2,
,,,,,,,,,,,,,,,,,,,,,,,104,2274,Invalid,noise,0,2,3799.3891497000004,1,3.0,2.079388400001335,1,True,12,A,2023-09-09_11h50.39.139,exp3,2022.2.2,
,,,,,,,,,,,,,,,,,,,,,,,106,1158,Invalid,signal,0,2,3803.8860353999917,0,3.0,3.646326299989596,1,True,12,A,2023-09-09_11h50.39.139,exp3,2022.2.2,
,,,,,,,,,,,,,,,,,,,,,,,108,-2274,Valid,noise,0,2,3807.4222534,1,3.0,2.4625626000051852,1,True,12,A,2023-09-09_11h50.39.139,exp3,2022.2.2,
,,,,,,,,,,,,,,,,,,,,,,,110,-557,Valid,signal,0,2,3810.637305199998,0,3.0,2.079329800006235,1,True,12,A,2023-09-09_11h50.39.139,exp3,2022.2.2,
