trials.label,trials.startVal,trials.maxVal,trials.minVal,trials.startValSd,trials.pthreshold,trials.beta,trials.delta,trials.gamma,trials.grain,trials.stepSize,trials.range,trials.cue,trials.thisIndex,trials.thisRepN,trials.thisN,trials.direction,trials.stepType,trials.intensity,signalOpacity,stair_response_correct,level,trials.response,stair_eye_ok,nTrial,position,validity,Stimulus,orientation,response_key,response_rt,response_correct,confidence,confidence_rt,eye_ok,trial_rep,participant,session,date,expName,psychopyVersion,
low_opac_v,0.4,1,0.01,3,0.82,3.5,0.01,0,0.01,4,5,Valid,0,1,0,start,lin,0.4,0,1,0.4,1,True,,,,,,,,,,,,,33,A,2023-11-21_09h18.36.615,exp3,2022.2.2,
low_opac_i,0.4,1,0.01,3,0.82,3.5,0.01,0,0.01,4,5,Invalid,2,1,1,start,lin,0.4,0,1,0.4,1,True,,,,,,,,,,,,,33,A,2023-11-21_09h18.36.615,exp3,2022.2.2,
high_opac_v,0.01,1,0.01,3,0.82,3.5,0.01,0,0.01,4,5,Valid,1,1,2,start,lin,0.01,0,1,0.01,1,True,,,,,,,,,,,,,33,A,2023-11-21_09h18.36.615,exp3,2022.2.2,
high_opac_v,0.01,1,0.01,3,0.82,3.5,0.01,0,0.01,4,5,Valid,1,2,3,start,lin,0.01,0.01,1,0.01,1,True,,,,,,,,,,,,,33,A,2023-11-21_09h18.36.615,exp3,2022.2.2,
low_opac_i,0.4,1,0.01,3,0.82,3.5,0.01,0,0.01,4,5,Invalid,2,2,4,start,lin,0.01,0,0,0.01,0,True,,,,,,,,,,,,,33,A,2023-11-21_09h18.36.615,exp3,2022.2.2,
low_opac_v,0.4,1,0.01,3,0.82,3.5,0.01,0,0.01,4,5,Valid,0,2,5,start,lin,0.01,0,1,0.01,1,True,,,,,,,,,,,,,33,A,2023-11-21_09h18.36.615,exp3,2022.2.2,
high_opac_v,0.01,1,0.01,3,0.82,3.5,0.01,0,0.01,4,5,Valid,1,3,6,start,lin,0.01,0,1,0.01,1,True,,,,,,,,,,,,,33,A,2023-11-21_09h18.36.615,exp3,2022.2.2,
low_opac_v,0.4,1,0.01,3,0.82,3.5,0.01,0,0.01,4,5,Valid,0,3,7,start,lin,0.01,0,0,0.01,0,True,,,,,,,,,,,,,33,A,2023-11-21_09h18.36.615,exp3,2022.2.2,
low_opac_i,0.4,1,0.01,3,0.82,3.5,0.01,0,0.01,4,5,Invalid,2,3,8,start,lin,0.3144098688205103,0.3144098688205103,0,0.3144098688205103,0,True,,,,,,,,,,,,,33,A,2023-11-21_09h18.36.615,exp3,2022.2.2,
high_opac_v,0.01,1,0.01,3,0.82,3.5,0.01,0,0.01,4,5,Valid,1,4,9,start,lin,0.01,0,0,0.01,0,True,,,,,,,,,,,,,33,A,2023-11-21_09h18.36.615,exp3,2022.2.2,
low_opac_v,0.4,1,0.01,3,0.82,3.5,0.01,0,0.01,4,5,Valid,0,4,10,start,lin,0.11291000027026754,0.11291000027026754,1,0.11291000027026754,1,True,,,,,,,,,,,,,33,A,2023-11-21_09h18.36.615,exp3,2022.2.2,
low_opac_i,0.4,1,0.01,3,0.82,3.5,0.01,0,0.01,4,5,Invalid,2,4,11,start,lin,0.4916057657997278,0.4916057657997278,0,0.4916057657997278,0,True,,,,,,,,,,,,,33,A,2023-11-21_09h18.36.615,exp3,2022.2.2,
high_opac_v,0.01,1,0.01,3,0.82,3.5,0.01,0,0.01,4,5,Valid,1,5,12,start,lin,0.01,0,1,0.01,1,True,,,,,,,,,,,,,33,A,2023-11-21_09h18.36.615,exp3,2022.2.2,
low_opac_i,0.4,1,0.01,3,0.82,3.5,0.01,0,0.01,4,5,Invalid,2,5,13,start,lin,0.641367925207714,0.641367925207714,1,0.641367925207714,1,True,,,,,,,,,,,,,33,A,2023-11-21_09h18.36.615,exp3,2022.2.2,
low_opac_v,0.4,1,0.01,3,0.82,3.5,0.01,0,0.01,4,5,Valid,0,5,14,start,lin,0.055546079649276214,0,0,0.055546079649276214,0,True,,,,,,,,,,,,,33,A,2023-11-21_09h18.36.615,exp3,2022.2.2,
high_opac_v,0.01,1,0.01,3,0.82,3.5,0.01,0,0.01,4,5,Valid,1,6,15,start,lin,0.01,0.01,0,0.01,0,True,,,,,,,,,,,,,33,A,2023-11-21_09h18.36.615,exp3,2022.2.2,
low_opac_i,0.4,1,0.01,3,0.82,3.5,0.01,0,0.01,4,5,Invalid,2,6,16,start,lin,0.5937104569854721,0,0,0.5937104569854721,0,True,,,,,,,,,,,,,33,A,2023-11-21_09h18.36.615,exp3,2022.2.2,
low_opac_v,0.4,1,0.01,3,0.82,3.5,0.01,0,0.01,4,5,Valid,0,6,17,start,lin,0.16915316766928282,0,1,0.16915316766928282,1,True,,,,,,,,,,,,,33,A,2023-11-21_09h18.36.615,exp3,2022.2.2,
high_opac_v,0.01,1,0.01,3,0.82,3.5,0.01,0,0.01,4,5,Valid,1,7,18,start,lin,0.06336997635913784,0,1,0.06336997635913784,1,True,,,,,,,,,,,,,33,A,2023-11-21_09h18.36.615,exp3,2022.2.2,
low_opac_v,0.4,1,0.01,3,0.82,3.5,0.01,0,0.01,4,5,Valid,0,7,19,start,lin,0.14521080678131015,0,1,0.14521080678131015,1,True,,,,,,,,,,,,,33,A,2023-11-21_09h18.36.615,exp3,2022.2.2,
low_opac_i,0.4,1,0.01,3,0.82,3.5,0.01,0,0.01,4,5,Invalid,2,7,20,start,lin,0.6846386635343765,0,1,0.6846386635343765,1,True,,,,,,,,,,,,,33,A,2023-11-21_09h18.36.615,exp3,2022.2.2,
high_opac_v,0.01,1,0.01,3,0.82,3.5,0.01,0,0.01,4,5,Valid,1,8,21,start,lin,0.04826674546431913,0.04826674546431913,1,0.04826674546431913,1,True,,,,,,,,,,,,,33,A,2023-11-21_09h18.36.615,exp3,2022.2.2,
low_opac_v,0.4,1,0.01,3,0.82,3.5,0.01,0,0.01,4,5,Valid,0,8,22,start,lin,0.12730956115660075,0.12730956115660075,0,0.12730956115660075,0,True,,,,,,,,,,,,,33,A,2023-11-21_09h18.36.615,exp3,2022.2.2,
low_opac_i,0.4,1,0.01,3,0.82,3.5,0.01,0,0.01,4,5,Invalid,2,8,23,start,lin,0.6585820956910444,0,0,0.6585820956910444,0,True,,,,,,,,,,,,,33,A,2023-11-21_09h18.36.615,exp3,2022.2.2,
low_opac_v,0.4,1,0.01,3,0.82,3.5,0.01,0,0.01,4,5,Valid,0,9,24,start,lin,0.18163445946726756,0.18163445946726756,1,0.18163445946726756,1,True,,,,,,,,,,,,,33,A,2023-11-21_09h18.36.615,exp3,2022.2.2,
low_opac_i,0.4,1,0.01,3,0.82,3.5,0.01,0,0.01,4,5,Invalid,2,9,25,start,lin,0.723870138482611,0,1,0.723870138482611,1,True,,,,,,,,,,,,,33,A,2023-11-21_09h18.36.615,exp3,2022.2.2,
high_opac_v,0.01,1,0.01,3,0.82,3.5,0.01,0,0.01,4,5,Valid,1,9,26,start,lin,0.035516088164064354,0.035516088164064354,1,0.035516088164064354,1,True,,,,,,,,,,,,,33,A,2023-11-21_09h18.36.615,exp3,2022.2.2,
low_opac_v,0.4,1,0.01,3,0.82,3.5,0.01,0,0.01,4,5,Valid,0,10,27,start,lin,0.16834342962977134,0.16834342962977134,1,0.16834342962977134,1,True,,,,,,,,,,,,,33,A,2023-11-21_09h18.36.615,exp3,2022.2.2,
low_opac_i,0.4,1,0.01,3,0.82,3.5,0.01,0,0.01,4,5,Invalid,2,10,28,start,lin,0.7063706035314528,0.7063706035314528,0,0.7063706035314528,0,True,,,,,,,,,,,,,33,A,2023-11-21_09h18.36.615,exp3,2022.2.2,
high_opac_v,0.01,1,0.01,3,0.82,3.5,0.01,0,0.01,4,5,Valid,1,10,29,start,lin,0.024086929870754573,0,1,0.024086929870754573,1,True,,,,,,,,,,,,,33,A,2023-11-21_09h18.36.615,exp3,2022.2.2,
low_opac_i,0.4,1,0.01,3,0.82,3.5,0.01,0,0.01,4,5,Invalid,2,11,30,start,lin,0.757063541826009,0,0,0.757063541826009,0,True,,,,,,,,,,,,,33,A,2023-11-21_09h18.36.615,exp3,2022.2.2,
high_opac_v,0.01,1,0.01,3,0.82,3.5,0.01,0,0.01,4,5,Valid,1,11,31,start,lin,0.01236696669668582,0.01236696669668582,0,0.01236696669668582,0,True,,,,,,,,,,,,,33,A,2023-11-21_09h18.36.615,exp3,2022.2.2,
low_opac_v,0.4,1,0.01,3,0.82,3.5,0.01,0,0.01,4,5,Valid,0,11,32,start,lin,0.15730430360814115,0,1,0.15730430360814115,1,True,,,,,,,,,,,,,33,A,2023-11-21_09h18.36.615,exp3,2022.2.2,
high_opac_v,0.01,1,0.01,3,0.82,3.5,0.01,0,0.01,4,5,Valid,1,12,33,start,lin,0.050025774721055676,0,1,0.050025774721055676,1,True,,,,,,,,,,,,,33,A,2023-11-21_09h18.36.615,exp3,2022.2.2,
low_opac_i,0.4,1,0.01,3,0.82,3.5,0.01,0,0.01,4,5,Invalid,2,12,34,start,lin,0.8052562907654067,0,0,0.8052562907654067,0,True,,,,,,,,,,,,,33,A,2023-11-21_09h18.36.615,exp3,2022.2.2,
low_opac_v,0.4,1,0.01,3,0.82,3.5,0.01,0,0.01,4,5,Valid,0,12,35,start,lin,0.14770327053894144,0,1,0.14770327053894144,1,True,,,,,,,,,,,,,33,A,2023-11-21_09h18.36.615,exp3,2022.2.2,
low_opac_i,0.4,1,0.01,3,0.82,3.5,0.01,0,0.01,4,5,Invalid,2,13,36,start,lin,0.8529547414910983,0.8529547414910983,0,0.8529547414910983,0,True,,,,,,,,,,,,,33,A,2023-11-21_09h18.36.615,exp3,2022.2.2,
high_opac_v,0.01,1,0.01,3,0.82,3.5,0.01,0,0.01,4,5,Valid,1,13,37,start,lin,0.04276642157277651,0.04276642157277651,1,0.04276642157277651,1,True,,,,,,,,,,,,,33,A,2023-11-21_09h18.36.615,exp3,2022.2.2,
low_opac_v,0.4,1,0.01,3,0.82,3.5,0.01,0,0.01,4,5,Valid,0,13,38,start,lin,0.13908450119952165,0.13908450119952165,1,0.13908450119952165,1,True,,,,,,,,,,,,,33,A,2023-11-21_09h18.36.615,exp3,2022.2.2,
low_opac_v,0.4,1,0.01,3,0.82,3.5,0.01,0,0.01,4,5,Valid,0,14,39,start,lin,0.1311714002506515,0,1,0.1311714002506515,1,True,,,,,,,,,,,,,33,A,2023-11-21_09h18.36.615,exp3,2022.2.2,
high_opac_v,0.01,1,0.01,3,0.82,3.5,0.01,0,0.01,4,5,Valid,1,14,40,start,lin,0.03591852245059296,0,0,0.03591852245059296,0,True,,,,,,,,,,,,,33,A,2023-11-21_09h18.36.615,exp3,2022.2.2,
low_opac_i,0.4,1,0.01,3,0.82,3.5,0.01,0,0.01,4,5,Invalid,2,14,41,start,lin,0.897963821913868,0.897963821913868,0,0.897963821913868,0,True,,,,,,,,,,,,,33,A,2023-11-21_09h18.36.615,exp3,2022.2.2,
high_opac_v,0.01,1,0.01,3,0.82,3.5,0.01,0,0.01,4,5,Valid,1,15,42,start,lin,0.060481798408121776,0,0,0.060481798408121776,0,True,,,,,,,,,,,,,33,A,2023-11-21_09h18.36.615,exp3,2022.2.2,
low_opac_v,0.4,1,0.01,3,0.82,3.5,0.01,0,0.01,4,5,Valid,0,15,43,start,lin,0.12374947455086754,0.12374947455086754,0,0.12374947455086754,0,True,,,,,,,,,,,,,33,A,2023-11-21_09h18.36.615,exp3,2022.2.2,
low_opac_i,0.4,1,0.01,3,0.82,3.5,0.01,0,0.01,4,5,Invalid,2,15,44,start,lin,0.9441492583173348,0,0,0.9441492583173348,0,True,,,,,,,,,,,,,33,A,2023-11-21_09h18.36.615,exp3,2022.2.2,
low_opac_i,0.4,1,0.01,3,0.82,3.5,0.01,0,0.01,4,5,Invalid,2,16,45,start,lin,0.9884639807209057,0,0,0.9884639807209057,0,True,,,,,,,,,,,,,33,A,2023-11-21_09h18.36.615,exp3,2022.2.2,
high_opac_v,0.01,1,0.01,3,0.82,3.5,0.01,0,0.01,4,5,Valid,1,16,46,start,lin,0.0825071713526986,0.0825071713526986,1,0.0825071713526986,1,True,,,,,,,,,,,,,33,A,2023-11-21_09h18.36.615,exp3,2022.2.2,
low_opac_v,0.4,1,0.01,3,0.82,3.5,0.01,0,0.01,4,5,Valid,0,16,47,start,lin,0.1490946614361502,0.1490946614361502,1,0.1490946614361502,1,True,,,,,,,,,,,,,33,A,2023-11-21_09h18.36.615,exp3,2022.2.2,
low_opac_v,0.4,1,0.01,3,0.82,3.5,0.01,0,0.01,4,5,Valid,0,17,48,start,lin,0.1430965643967696,0,1,0.1430965643967696,1,True,,,,,,,,,,,,,33,A,2023-11-21_09h18.36.615,exp3,2022.2.2,
high_opac_v,0.01,1,0.01,3,0.82,3.5,0.01,0,0.01,4,5,Valid,1,17,49,start,lin,0.07698547421125337,0,0,0.07698547421125337,0,True,,,,,,,,,,,,,33,A,2023-11-21_09h18.36.615,exp3,2022.2.2,
low_opac_i,0.4,1,0.01,3,0.82,3.5,0.01,0,0.01,4,5,Invalid,2,17,50,start,lin,1,1,0,1,0,True,,,,,,,,,,,,,33,A,2023-11-21_09h18.36.615,exp3,2022.2.2,
high_opac_v,0.01,1,0.01,3,0.82,3.5,0.01,0,0.01,4,5,Valid,1,18,51,start,lin,0.09715169419578101,0,0,0.09715169419578101,0,True,,,,,,,,,,,,,33,A,2023-11-21_09h18.36.615,exp3,2022.2.2,
low_opac_v,0.4,1,0.01,3,0.82,3.5,0.01,0,0.01,4,5,Valid,0,18,52,start,lin,0.13728909253162114,0.13728909253162114,1,0.13728909253162114,1,True,,,,,,,,,,,,,33,A,2023-11-21_09h18.36.615,exp3,2022.2.2,
low_opac_i,0.4,1,0.01,3,0.82,3.5,0.01,0,0.01,4,5,Invalid,2,18,53,start,lin,1,1,1,1,1,True,,,,,,,,,,,,,33,A,2023-11-21_09h18.36.615,exp3,2022.2.2,
high_opac_v,0.01,1,0.01,3,0.82,3.5,0.01,0,0.01,4,5,Valid,1,19,54,start,lin,0.11670025743457559,0,1,0.11670025743457559,1,True,,,,,,,,,,,,,33,A,2023-11-21_09h18.36.615,exp3,2022.2.2,
low_opac_v,0.4,1,0.01,3,0.82,3.5,0.01,0,0.01,4,5,Valid,0,19,55,start,lin,0.13212238336044707,0.13212238336044707,0,0.13212238336044707,0,True,,,,,,,,,,,,,33,A,2023-11-21_09h18.36.615,exp3,2022.2.2,
low_opac_i,0.4,1,0.01,3,0.82,3.5,0.01,0,0.01,4,5,Invalid,2,19,56,start,lin,1,1,0,1,0,True,,,,,,,,,,,,,33,A,2023-11-21_09h18.36.615,exp3,2022.2.2,
low_opac_i,0.4,1,0.01,3,0.82,3.5,0.01,0,0.01,4,5,Invalid,2,20,57,start,lin,1,0,1,1,1,True,,,,,,,,,,,,,33,A,2023-11-21_09h18.36.615,exp3,2022.2.2,
low_opac_v,0.4,1,0.01,3,0.82,3.5,0.01,0,0.01,4,5,Valid,0,20,58,start,lin,0.15137597739891162,0.15137597739891162,1,0.15137597739891162,1,True,,,,,,,,,,,,,33,A,2023-11-21_09h18.36.615,exp3,2022.2.2,
high_opac_v,0.01,1,0.01,3,0.82,3.5,0.01,0,0.01,4,5,Valid,1,20,59,start,lin,0.11210994290710362,0,1,0.11210994290710362,1,True,,,,,,,,,,,,,33,A,2023-11-21_09h18.36.615,exp3,2022.2.2,
low_opac_v,0.4,1,0.01,3,0.82,3.5,0.01,0,0.01,4,5,Valid,0,21,60,start,lin,0.14668696885299565,0,1,0.14668696885299565,1,True,,,,,,,,,,,,,33,A,2023-11-21_09h18.36.615,exp3,2022.2.2,
high_opac_v,0.01,1,0.01,3,0.82,3.5,0.01,0,0.01,4,5,Valid,1,21,61,start,lin,0.10758871474581912,0,0,0.10758871474581912,0,True,,,,,,,,,,,,,33,A,2023-11-21_09h18.36.615,exp3,2022.2.2,
low_opac_i,0.4,1,0.01,3,0.82,3.5,0.01,0,0.01,4,5,Invalid,2,21,62,start,lin,1,0,1,1,1,True,,,,,,,,,,,,,33,A,2023-11-21_09h18.36.615,exp3,2022.2.2,
low_opac_i,0.4,1,0.01,3,0.82,3.5,0.01,0,0.01,4,5,Invalid,2,22,63,start,lin,1,0,1,1,1,True,,,,,,,,,,,,,33,A,2023-11-21_09h18.36.615,exp3,2022.2.2,
low_opac_v,0.4,1,0.01,3,0.82,3.5,0.01,0,0.01,4,5,Valid,0,22,64,start,lin,0.14245064985128253,0,0,0.14245064985128253,0,True,,,,,,,,,,,,,33,A,2023-11-21_09h18.36.615,exp3,2022.2.2,
high_opac_v,0.01,1,0.01,3,0.82,3.5,0.01,0,0.01,4,5,Valid,1,22,65,start,lin,0.12444639323983557,0,1,0.12444639323983557,1,True,,,,,,,,,,,,,33,A,2023-11-21_09h18.36.615,exp3,2022.2.2,
low_opac_i,0.4,1,0.01,3,0.82,3.5,0.01,0,0.01,4,5,Invalid,2,23,66,start,lin,1,0,1,1,1,True,,,,,,,,,,,,,33,A,2023-11-21_09h18.36.615,exp3,2022.2.2,
high_opac_v,0.01,1,0.01,3,0.82,3.5,0.01,0,0.01,4,5,Valid,1,23,67,start,lin,0.12022810685578054,0.12022810685578054,1,0.12022810685578054,1,True,,,,,,,,,,,,,33,A,2023-11-21_09h18.36.615,exp3,2022.2.2,
low_opac_v,0.4,1,0.01,3,0.82,3.5,0.01,0,0.01,4,5,Valid,0,23,68,start,lin,0.1585959158724679,0.1585959158724679,1,0.1585959158724679,1,True,,,,,,,,,,,,,33,A,2023-11-21_09h18.36.615,exp3,2022.2.2,
low_opac_v,0.4,1,0.01,3,0.82,3.5,0.01,0,0.01,4,5,Valid,0,24,69,start,lin,0.1547348513921421,0,1,0.1547348513921421,1,True,,,,,,,,,,,,,33,A,2023-11-21_09h18.36.615,exp3,2022.2.2,
high_opac_v,0.01,1,0.01,3,0.82,3.5,0.01,0,0.01,4,5,Valid,1,24,70,start,lin,0.11639371958150013,0,1,0.11639371958150013,1,True,,,,,,,,,,,,,33,A,2023-11-21_09h18.36.615,exp3,2022.2.2,
low_opac_i,0.4,1,0.01,3,0.82,3.5,0.01,0,0.01,4,5,Invalid,2,24,71,start,lin,1,1,0,1,0,True,,,,,,,,,,,,,33,A,2023-11-21_09h18.36.615,exp3,2022.2.2,
high_opac_v,0.01,1,0.01,3,0.82,3.5,0.01,0,0.01,4,5,Valid,1,25,72,start,lin,0.1128912916578161,0.1128912916578161,1,0.1128912916578161,1,True,,,,,,,,,,,,,33,A,2023-11-21_09h18.36.615,exp3,2022.2.2,
low_opac_v,0.4,1,0.01,3,0.82,3.5,0.01,0,0.01,4,5,Valid,0,25,73,start,lin,0.1508529425578778,0.1508529425578778,1,0.1508529425578778,1,True,,,,,,,,,,,,,33,A,2023-11-21_09h18.36.615,exp3,2022.2.2,
low_opac_i,0.4,1,0.01,3,0.82,3.5,0.01,0,0.01,4,5,Invalid,2,25,74,start,lin,1,1,1,1,1,True,,,,,,,,,,,,,33,A,2023-11-21_09h18.36.615,exp3,2022.2.2,
low_opac_i,0.4,1,0.01,3,0.82,3.5,0.01,0,0.01,4,5,Invalid,2,26,75,start,lin,1,1,1,1,1,True,,,,,,,,,,,,,33,A,2023-11-21_09h18.36.615,exp3,2022.2.2,
high_opac_v,0.01,1,0.01,3,0.82,3.5,0.01,0,0.01,4,5,Valid,1,26,76,start,lin,0.10932531088976047,0,1,0.10932531088976047,1,True,,,,,,,,,,,,,33,A,2023-11-21_09h18.36.615,exp3,2022.2.2,
low_opac_v,0.4,1,0.01,3,0.82,3.5,0.01,0,0.01,4,5,Valid,0,26,77,start,lin,0.14723667964731346,0,1,0.14723667964731346,1,True,,,,,,,,,,,,,33,A,2023-11-21_09h18.36.615,exp3,2022.2.2,
low_opac_v,0.4,1,0.01,3,0.82,3.5,0.01,0,0.01,4,5,Valid,0,27,78,start,lin,0.1439136084884048,0.1439136084884048,0,0.1439136084884048,0,True,,,,,,,,,,,,,33,A,2023-11-21_09h18.36.615,exp3,2022.2.2,
high_opac_v,0.01,1,0.01,3,0.82,3.5,0.01,0,0.01,4,5,Valid,1,27,79,start,lin,0.10605342040684015,0,1,0.10605342040684015,1,True,,,,,,,,,,,,,33,A,2023-11-21_09h18.36.615,exp3,2022.2.2,
low_opac_i,0.4,1,0.01,3,0.82,3.5,0.01,0,0.01,4,5,Invalid,2,27,80,start,lin,1,0,0,1,0,True,,,,,,,,,,,,,33,A,2023-11-21_09h18.36.615,exp3,2022.2.2,
low_opac_v,0.4,1,0.01,3,0.82,3.5,0.01,0,0.01,4,5,Valid,0,28,81,start,lin,0.15669917136724826,0.15669917136724826,1,0.15669917136724826,1,True,,,,,,,,,,,,,33,A,2023-11-21_09h18.36.615,exp3,2022.2.2,
low_opac_i,0.4,1,0.01,3,0.82,3.5,0.01,0,0.01,4,5,Invalid,2,28,82,start,lin,1,1,1,1,1,True,,,,,,,,,,,,,33,A,2023-11-21_09h18.36.615,exp3,2022.2.2,
high_opac_v,0.01,1,0.01,3,0.82,3.5,0.01,0,0.01,4,5,Valid,1,28,83,start,lin,0.10301929546390663,0,1,0.10301929546390663,1,True,,,,,,,,,,,,,33,A,2023-11-21_09h18.36.615,exp3,2022.2.2,
low_opac_v,0.4,1,0.01,3,0.82,3.5,0.01,0,0.01,4,5,Valid,0,29,84,start,lin,0.15367264833841096,0,1,0.15367264833841096,1,True,,,,,,,,,,,,,33,A,2023-11-21_09h18.36.615,exp3,2022.2.2,
low_opac_i,0.4,1,0.01,3,0.82,3.5,0.01,0,0.01,4,5,Invalid,2,29,85,start,lin,1,0,0,1,0,True,,,,,,,,,,,,,33,A,2023-11-21_09h18.36.615,exp3,2022.2.2,
high_opac_v,0.01,1,0.01,3,0.82,3.5,0.01,0,0.01,4,5,Valid,1,29,86,start,lin,0.09988813720295084,0.09988813720295084,1,0.09988813720295084,1,True,,,,,,,,,,,,,33,A,2023-11-21_09h18.36.615,exp3,2022.2.2,
low_opac_v,0.4,1,0.01,3,0.82,3.5,0.01,0,0.01,4,5,Valid,0,30,87,start,lin,0.15055621680194345,0,1,0.15055621680194345,1,True,,,,,,,,,,,,,33,A,2023-11-21_09h18.36.615,exp3,2022.2.2,
low_opac_i,0.4,1,0.01,3,0.82,3.5,0.01,0,0.01,4,5,Invalid,2,30,88,start,lin,1,1,1,1,1,True,,,,,,,,,,,,,33,A,2023-11-21_09h18.36.615,exp3,2022.2.2,
high_opac_v,0.01,1,0.01,3,0.82,3.5,0.01,0,0.01,4,5,Valid,1,30,89,start,lin,0.09696696165068515,0.09696696165068515,1,0.09696696165068515,1,True,,,,,,,,,,,,,33,A,2023-11-21_09h18.36.615,exp3,2022.2.2,
high_opac_v,0.01,1,0.01,3,0.82,3.5,0.01,0,0.01,4,5,Valid,1,31,90,start,lin,0.09424859645153351,0,0,0.09424859645153351,0,True,,,,,,,,,,,,,33,A,2023-11-21_09h18.36.615,exp3,2022.2.2,
low_opac_v,0.4,1,0.01,3,0.82,3.5,0.01,0,0.01,4,5,Valid,0,31,91,start,lin,0.14761045167160725,0.14761045167160725,1,0.14761045167160725,1,True,,,,,,,,,,,,,33,A,2023-11-21_09h18.36.615,exp3,2022.2.2,
low_opac_i,0.4,1,0.01,3,0.82,3.5,0.01,0,0.01,4,5,Invalid,2,31,92,start,lin,1,1,1,1,1,True,,,,,,,,,,,,,33,A,2023-11-21_09h18.36.615,exp3,2022.2.2,
high_opac_v,0.01,1,0.01,3,0.82,3.5,0.01,0,0.01,4,5,Valid,1,32,93,start,lin,0.10488648953572965,0.10488648953572965,0,0.10488648953572965,0,True,,,,,,,,,,,,,33,A,2023-11-21_09h18.36.615,exp3,2022.2.2,
low_opac_v,0.4,1,0.01,3,0.82,3.5,0.01,0,0.01,4,5,Valid,0,32,94,start,lin,0.14487480974520167,0,1,0.14487480974520167,1,True,,,,,,,,,,,,,33,A,2023-11-21_09h18.36.615,exp3,2022.2.2,
low_opac_i,0.4,1,0.01,3,0.82,3.5,0.01,0,0.01,4,5,Invalid,2,32,95,start,lin,1,1,1,1,1,True,,,,,,,,,,,,,33,A,2023-11-21_09h18.36.615,exp3,2022.2.2,
low_opac_v,0.4,1,0.01,3,0.82,3.5,0.01,0,0.01,4,5,Valid,0,33,96,start,lin,0.14205946977822126,0.14205946977822126,1,0.14205946977822126,1,True,,,,,,,,,,,,,33,A,2023-11-21_09h18.36.615,exp3,2022.2.2,
high_opac_v,0.01,1,0.01,3,0.82,3.5,0.01,0,0.01,4,5,Valid,1,33,97,start,lin,0.11514484710967021,0,1,0.11514484710967021,1,True,,,,,,,,,,,,,33,A,2023-11-21_09h18.36.615,exp3,2022.2.2,
low_opac_i,0.4,1,0.01,3,0.82,3.5,0.01,0,0.01,4,5,Invalid,2,33,98,start,lin,1,0,1,1,1,True,,,,,,,,,,,,,33,A,2023-11-21_09h18.36.615,exp3,2022.2.2,
low_opac_v,0.4,1,0.01,3,0.82,3.5,0.01,0,0.01,4,5,Valid,0,34,99,start,lin,0.13934737971758282,0.13934737971758282,1,0.13934737971758282,1,True,,,,,,,,,,,,,33,A,2023-11-21_09h18.36.615,exp3,2022.2.2,
low_opac_i,0.4,1,0.01,3,0.82,3.5,0.01,0,0.01,4,5,Invalid,2,34,100,start,lin,1,1,1,1,1,True,,,,,,,,,,,,,33,A,2023-11-21_09h18.36.615,exp3,2022.2.2,
high_opac_v,0.01,1,0.01,3,0.82,3.5,0.01,0,0.01,4,5,Valid,1,34,101,start,lin,0.11271217447005023,0.11271217447005023,1,0.11271217447005023,1,True,,,,,,,,,,,,,33,A,2023-11-21_09h18.36.615,exp3,2022.2.2,
low_opac_v,0.4,1,0.01,3,0.82,3.5,0.01,0,0.01,4,5,Valid,0,35,102,start,lin,0.13679622779696177,0,1,0.13679622779696177,1,True,,,,,,,,,,,,,33,A,2023-11-21_09h18.36.615,exp3,2022.2.2,
high_opac_v,0.01,1,0.01,3,0.82,3.5,0.01,0,0.01,4,5,Valid,1,35,103,start,lin,0.11016465670397903,0,1,0.11016465670397903,1,True,,,,,,,,,,,,,33,A,2023-11-21_09h18.36.615,exp3,2022.2.2,
low_opac_i,0.4,1,0.01,3,0.82,3.5,0.01,0,0.01,4,5,Invalid,2,35,104,start,lin,1,1,1,1,1,True,,,,,,,,,,,,,33,A,2023-11-21_09h18.36.615,exp3,2022.2.2,
low_opac_v,0.4,1,0.01,3,0.82,3.5,0.01,0,0.01,4,5,Valid,0,36,105,start,lin,0.13439694178200345,0.13439694178200345,0,0.13439694178200345,0,True,,,,,,,,,,,,,33,A,2023-11-21_09h18.36.615,exp3,2022.2.2,
low_opac_i,0.4,1,0.01,3,0.82,3.5,0.01,0,0.01,4,5,Invalid,2,36,106,start,lin,1,0,1,1,1,True,,,,,,,,,,,,,33,A,2023-11-21_09h18.36.615,exp3,2022.2.2,
high_opac_v,0.01,1,0.01,3,0.82,3.5,0.01,0,0.01,4,5,Valid,1,36,107,start,lin,0.10775149499565877,0,1,0.10775149499565877,1,True,,,,,,,,,,,,,33,A,2023-11-21_09h18.36.615,exp3,2022.2.2,
low_opac_v,0.4,1,0.01,3,0.82,3.5,0.01,0,0.01,4,5,Valid,0,37,108,start,lin,0.14389249753617983,0,1,0.14389249753617983,1,True,,,,,,,,,,,,,33,A,2023-11-21_09h18.36.615,exp3,2022.2.2,
low_opac_i,0.4,1,0.01,3,0.82,3.5,0.01,0,0.01,4,5,Invalid,2,37,109,start,lin,1,0,1,1,1,True,,,,,,,,,,,,,33,A,2023-11-21_09h18.36.615,exp3,2022.2.2,
high_opac_v,0.01,1,0.01,3,0.82,3.5,0.01,0,0.01,4,5,Valid,1,37,110,start,lin,0.10549487648899145,0.10549487648899145,1,0.10549487648899145,1,True,,,,,,,,,,,,,33,A,2023-11-21_09h18.36.615,exp3,2022.2.2,
low_opac_i,0.4,1,0.01,3,0.82,3.5,0.01,0,0.01,4,5,Invalid,2,38,111,start,lin,1,0,1,1,1,True,,,,,,,,,,,,,33,A,2023-11-21_09h18.36.615,exp3,2022.2.2,
low_opac_v,0.4,1,0.01,3,0.82,3.5,0.01,0,0.01,4,5,Valid,0,38,112,start,lin,0.14150707136687812,0.14150707136687812,1,0.14150707136687812,1,True,,,,,,,,,,,,,33,A,2023-11-21_09h18.36.615,exp3,2022.2.2,
high_opac_v,0.01,1,0.01,3,0.82,3.5,0.01,0,0.01,4,5,Valid,1,38,113,start,lin,0.10335156083551154,0,1,0.10335156083551154,1,True,,,,,,,,,,,,,33,A,2023-11-21_09h18.36.615,exp3,2022.2.2,
low_opac_v,0.4,1,0.01,3,0.82,3.5,0.01,0,0.01,4,5,Valid,0,39,114,start,lin,0.13918763080439012,0.13918763080439012,1,0.13918763080439012,1,True,,,,,,,,,,,,,33,A,2023-11-21_09h18.36.615,exp3,2022.2.2,
low_opac_i,0.4,1,0.01,3,0.82,3.5,0.01,0,0.01,4,5,Invalid,2,39,115,start,lin,1,0,1,1,1,True,,,,,,,,,,,,,33,A,2023-11-21_09h18.36.615,exp3,2022.2.2,
high_opac_v,0.01,1,0.01,3,0.82,3.5,0.01,0,0.01,4,5,Valid,1,39,116,start,lin,0.10110004494699282,0,1,0.10110004494699282,1,True,,,,,,,,,,,,,33,A,2023-11-21_09h18.36.615,exp3,2022.2.2,
high_opac_v,0.01,1,0.01,3,0.82,3.5,0.01,0,0.01,4,5,Valid,1,40,117,start,lin,0.09891464462680388,0,1,0.09891464462680388,1,True,,,,,,,,,,,,,33,A,2023-11-21_09h18.36.615,exp3,2022.2.2,
low_opac_i,0.4,1,0.01,3,0.82,3.5,0.01,0,0.01,4,5,Invalid,2,40,118,start,lin,1,0,1,1,1,True,,,,,,,,,,,,,33,A,2023-11-21_09h18.36.615,exp3,2022.2.2,
low_opac_v,0.4,1,0.01,3,0.82,3.5,0.01,0,0.01,4,5,Valid,0,40,119,start,lin,0.13699771909936198,0.13699771909936198,1,0.13699771909936198,1,True,,,,,,,,,,,,,33,A,2023-11-21_09h18.36.615,exp3,2022.2.2,
low_opac_i,0.4,1,0.01,3,0.82,3.5,0.01,0,0.01,4,5,Invalid,2,41,120,start,lin,1,1,1,1,1,True,,,,,,,,,,,,,33,A,2023-11-21_09h18.36.615,exp3,2022.2.2,
high_opac_v,0.01,1,0.01,3,0.82,3.5,0.01,0,0.01,4,5,Valid,1,41,121,start,lin,0.09685950155252775,0,1,0.09685950155252775,1,True,,,,,,,,,,,,,33,A,2023-11-21_09h18.36.615,exp3,2022.2.2,
low_opac_v,0.4,1,0.01,3,0.82,3.5,0.01,0,0.01,4,5,Valid,0,41,122,start,lin,0.1349268007077189,0.1349268007077189,1,0.1349268007077189,1,True,,,,,,,,,,,,,33,A,2023-11-21_09h18.36.615,exp3,2022.2.2,
low_opac_v,0.4,1,0.01,3,0.82,3.5,0.01,0,0.01,4,5,Valid,0,42,123,start,lin,0.1327652820397952,0,1,0.1327652820397952,1,True,,,,,,,,,,,,,33,A,2023-11-21_09h18.36.615,exp3,2022.2.2,
high_opac_v,0.01,1,0.01,3,0.82,3.5,0.01,0,0.01,4,5,Valid,1,42,124,start,lin,0.09491231805259918,0,1,0.09491231805259918,1,True,,,,,,,,,,,,,33,A,2023-11-21_09h18.36.615,exp3,2022.2.2,
low_opac_i,0.4,1,0.01,3,0.82,3.5,0.01,0,0.01,4,5,Invalid,2,42,125,start,lin,1,0,1,1,1,True,,,,,,,,,,,,,33,A,2023-11-21_09h18.36.615,exp3,2022.2.2,
low_opac_v,0.4,1,0.01,3,0.82,3.5,0.01,0,0.01,4,5,Valid,0,43,126,start,lin,0.13066100770946304,0.13066100770946304,1,0.13066100770946304,1,True,,,,,,,,,,,,,33,A,2023-11-21_09h18.36.615,exp3,2022.2.2,
high_opac_v,0.01,1,0.01,3,0.82,3.5,0.01,0,0.01,4,5,Valid,1,43,127,start,lin,0.09287779122419187,0.09287779122419187,1,0.09287779122419187,1,True,,,,,,,,,,,,,33,A,2023-11-21_09h18.36.615,exp3,2022.2.2,
low_opac_i,0.4,1,0.01,3,0.82,3.5,0.01,0,0.01,4,5,Invalid,2,43,128,start,lin,1,1,1,1,1,True,,,,,,,,,,,,,33,A,2023-11-21_09h18.36.615,exp3,2022.2.2,
low_opac_i,0.4,1,0.01,3,0.82,3.5,0.01,0,0.01,4,5,Invalid,2,44,129,start,lin,1,1,1,1,1,True,,,,,,,,,,,,,33,A,2023-11-21_09h18.36.615,exp3,2022.2.2,
low_opac_v,0.4,1,0.01,3,0.82,3.5,0.01,0,0.01,4,5,Valid,0,44,130,start,lin,0.1286083055497474,0.1286083055497474,1,0.1286083055497474,1,True,,,,,,,,,,,,,33,A,2023-11-21_09h18.36.615,exp3,2022.2.2,
high_opac_v,0.01,1,0.01,3,0.82,3.5,0.01,0,0.01,4,5,Valid,1,44,131,start,lin,0.09089661913983914,0,1,0.09089661913983914,1,True,,,,,,,,,,,,,33,A,2023-11-21_09h18.36.615,exp3,2022.2.2,
low_opac_v,0.4,1,0.01,3,0.82,3.5,0.01,0,0.01,4,5,Valid,0,45,132,start,lin,0.12666887749089195,0,1,0.12666887749089195,1,True,,,,,,,,,,,,,33,A,2023-11-21_09h18.36.615,exp3,2022.2.2,
low_opac_i,0.4,1,0.01,3,0.82,3.5,0.01,0,0.01,4,5,Invalid,2,45,133,start,lin,1,0,1,1,1,True,,,,,,,,,,,,,33,A,2023-11-21_09h18.36.615,exp3,2022.2.2,
high_opac_v,0.01,1,0.01,3,0.82,3.5,0.01,0,0.01,4,5,Valid,1,45,134,start,lin,0.0889585443779451,0,1,0.0889585443779451,1,True,,,,,,,,,,,,,33,A,2023-11-21_09h18.36.615,exp3,2022.2.2,
low_opac_v,0.4,1,0.01,3,0.82,3.5,0.01,0,0.01,4,5,Valid,0,46,135,start,lin,0.1248209673627158,0.1248209673627158,1,0.1248209673627158,1,True,,,,,,,,,,,,,33,A,2023-11-21_09h18.36.615,exp3,2022.2.2,
high_opac_v,0.01,1,0.01,3,0.82,3.5,0.01,0,0.01,4,5,Valid,1,46,136,start,lin,0.08712505355849352,0.08712505355849352,0,0.08712505355849352,0,True,,,,,,,,,,,,,33,A,2023-11-21_09h18.36.615,exp3,2022.2.2,
low_opac_i,0.4,1,0.01,3,0.82,3.5,0.01,0,0.01,4,5,Invalid,2,46,137,start,lin,0.9988462690429951,0.9988462690429951,1,0.9988462690429951,1,True,,,,,,,,,,,,,33,A,2023-11-21_09h18.36.615,exp3,2022.2.2,
low_opac_v,0.4,1,0.01,3,0.82,3.5,0.01,0,0.01,4,5,Valid,0,47,138,start,lin,0.12287991030042394,0,1,0.12287991030042394,1,True,,,,,,,,,,,,,33,A,2023-11-21_09h18.36.615,exp3,2022.2.2,
high_opac_v,0.01,1,0.01,3,0.82,3.5,0.01,0,0.01,4,5,Valid,1,47,139,start,lin,0.09467412804710897,0,1,0.09467412804710897,1,True,,,,,,,,,,,,,33,A,2023-11-21_09h18.36.615,exp3,2022.2.2,
low_opac_i,0.4,1,0.01,3,0.82,3.5,0.01,0,0.01,4,5,Invalid,2,47,140,start,lin,0.996713643160336,0.996713643160336,1,0.996713643160336,1,True,,,,,,,,,,,,,33,A,2023-11-21_09h18.36.615,exp3,2022.2.2,
high_opac_v,0.01,1,0.01,3,0.82,3.5,0.01,0,0.01,4,5,Valid,1,48,141,start,lin,0.0928756863759951,0.0928756863759951,1,0.0928756863759951,1,True,,,,,,,,,,,,,33,A,2023-11-21_09h18.36.615,exp3,2022.2.2,
low_opac_v,0.4,1,0.01,3,0.82,3.5,0.01,0,0.01,4,5,Valid,0,48,142,start,lin,0.12098204868916224,0.12098204868916224,1,0.12098204868916224,1,True,,,,,,,,,,,,,33,A,2023-11-21_09h18.36.615,exp3,2022.2.2,
low_opac_i,0.4,1,0.01,3,0.82,3.5,0.01,0,0.01,4,5,Invalid,2,48,143,start,lin,0.9946939468754503,0,1,0.9946939468754503,1,True,,,,,,,,,,,,,33,A,2023-11-21_09h18.36.615,exp3,2022.2.2,
low_opac_v,0.4,1,0.01,3,0.82,3.5,0.01,0,0.01,4,5,Valid,0,49,144,start,lin,0.11910991444987012,0.11910991444987012,1,0.11910991444987012,1,True,,,,,,,,,,,,,33,A,2023-11-21_09h18.36.615,exp3,2022.2.2,
low_opac_i,0.4,1,0.01,3,0.82,3.5,0.01,0,0.01,4,5,Invalid,2,49,145,start,lin,0.9925830077160657,0,1,0.9925830077160657,1,True,,,,,,,,,,,,,33,A,2023-11-21_09h18.36.615,exp3,2022.2.2,
high_opac_v,0.01,1,0.01,3,0.82,3.5,0.01,0,0.01,4,5,Valid,1,49,146,start,lin,0.09111658282303343,0.09111658282303343,1,0.09111658282303343,1,True,,,,,,,,,,,,,33,A,2023-11-21_09h18.36.615,exp3,2022.2.2,
low_opac_v,0.4,1,0.01,3,0.82,3.5,0.01,0,0.01,4,5,Valid,0,50,147,start,lin,0.11732465730104474,0,1,0.11732465730104474,1,True,,,,,,,,,,,,,33,A,2023-11-21_09h18.36.615,exp3,2022.2.2,
high_opac_v,0.01,1,0.01,3,0.82,3.5,0.01,0,0.01,4,5,Valid,1,50,148,start,lin,0.08938161716743484,0.08938161716743484,1,0.08938161716743484,1,True,,,,,,,,,,,,,33,A,2023-11-21_09h18.36.615,exp3,2022.2.2,
low_opac_i,0.4,1,0.01,3,0.82,3.5,0.01,0,0.01,4,5,Invalid,2,50,149,start,lin,0.9905258559455117,0.9905258559455117,1,0.9905258559455117,1,True,,,,,,,,,,,,,33,A,2023-11-21_09h18.36.615,exp3,2022.2.2,
low_opac_i,0.4,1,0.01,3,0.82,3.5,0.01,0,0.01,4,5,Invalid,2,51,150,start,lin,0.9885260797027916,0.9885260797027916,1,0.9885260797027916,1,True,,,,,,,,,,,,,33,A,2023-11-21_09h18.36.615,exp3,2022.2.2,
high_opac_v,0.01,1,0.01,3,0.82,3.5,0.01,0,0.01,4,5,Valid,1,51,151,start,lin,0.08772700922016118,0.08772700922016118,0,0.08772700922016118,0,True,,,,,,,,,,,,,33,A,2023-11-21_09h18.36.615,exp3,2022.2.2,
low_opac_v,0.4,1,0.01,3,0.82,3.5,0.01,0,0.01,4,5,Valid,0,51,152,start,lin,0.11562304513347199,0,1,0.11562304513347199,1,True,,,,,,,,,,,,,33,A,2023-11-21_09h18.36.615,exp3,2022.2.2,
low_opac_i,0.4,1,0.01,3,0.82,3.5,0.01,0,0.01,4,5,Invalid,2,52,153,start,lin,0.9866393425673848,0.9866393425673848,1,0.9866393425673848,1,True,,,,,,,,,,,,,33,A,2023-11-21_09h18.36.615,exp3,2022.2.2,
low_opac_v,0.4,1,0.01,3,0.82,3.5,0.01,0,0.01,4,5,Valid,0,52,154,start,lin,0.11398333798486715,0,1,0.11398333798486715,1,True,,,,,,,,,,,,,33,A,2023-11-21_09h18.36.615,exp3,2022.2.2,
high_opac_v,0.01,1,0.01,3,0.82,3.5,0.01,0,0.01,4,5,Valid,1,52,155,start,lin,0.09448743041700966,0.09448743041700966,1,0.09448743041700966,1,True,,,,,,,,,,,,,33,A,2023-11-21_09h18.36.615,exp3,2022.2.2,
low_opac_v,0.4,1,0.01,3,0.82,3.5,0.01,0,0.01,4,5,Valid,0,53,156,start,lin,0.11224178691074632,0.11224178691074632,0,0.11224178691074632,0,True,,,,,,,,,,,,,33,A,2023-11-21_09h18.36.615,exp3,2022.2.2,
high_opac_v,0.01,1,0.01,3,0.82,3.5,0.01,0,0.01,4,5,Valid,1,53,157,start,lin,0.0928762994101746,0.0928762994101746,0,0.0928762994101746,0,True,,,,,,,,,,,,,33,A,2023-11-21_09h18.36.615,exp3,2022.2.2,
low_opac_i,0.4,1,0.01,3,0.82,3.5,0.01,0,0.01,4,5,Invalid,2,53,158,start,lin,0.9848413118500318,0.9848413118500318,1,0.9848413118500318,1,True,,,,,,,,,,,,,33,A,2023-11-21_09h18.36.615,exp3,2022.2.2,
high_opac_v,0.01,1,0.01,3,0.82,3.5,0.01,0,0.01,4,5,Valid,1,54,159,start,lin,0.09901600719979835,0.09901600719979835,0,0.09901600719979835,0,True,,,,,,,,,,,,,33,A,2023-11-21_09h18.36.615,exp3,2022.2.2,
low_opac_v,0.4,1,0.01,3,0.82,3.5,0.01,0,0.01,4,5,Valid,0,54,160,start,lin,0.1189107614956198,0.1189107614956198,0,0.1189107614956198,0,True,,,,,,,,,,,,,33,A,2023-11-21_09h18.36.615,exp3,2022.2.2,
low_opac_i,0.4,1,0.01,3,0.82,3.5,0.01,0,0.01,4,5,Invalid,2,54,161,start,lin,0.9829530308761019,0,1,0.9829530308761019,1,True,,,,,,,,,,,,,33,A,2023-11-21_09h18.36.615,exp3,2022.2.2,
low_opac_v,0.4,1,0.01,3,0.82,3.5,0.01,0,0.01,4,5,Valid,0,55,162,start,lin,0.12551538845691135,0,1,0.12551538845691135,1,True,,,,,,,,,,,,,33,A,2023-11-21_09h18.36.615,exp3,2022.2.2,
high_opac_v,0.01,1,0.01,3,0.82,3.5,0.01,0,0.01,4,5,Valid,1,55,163,start,lin,0.10525753699528519,0.10525753699528519,1,0.10525753699528519,1,True,,,,,,,,,,,,,33,A,2023-11-21_09h18.36.615,exp3,2022.2.2,
low_opac_i,0.4,1,0.01,3,0.82,3.5,0.01,0,0.01,4,5,Invalid,2,55,164,start,lin,0.9811075703792891,0,1,0.9811075703792891,1,True,,,,,,,,,,,,,33,A,2023-11-21_09h18.36.615,exp3,2022.2.2,
low_opac_v,0.4,1,0.01,3,0.82,3.5,0.01,0,0.01,4,5,Valid,0,56,165,start,lin,0.12405536081250279,0,1,0.12405536081250279,1,True,,,,,,,,,,,,,33,A,2023-11-21_09h18.36.615,exp3,2022.2.2,
low_opac_i,0.4,1,0.01,3,0.82,3.5,0.01,0,0.01,4,5,Invalid,2,56,166,start,lin,0.9792867860496277,0,1,0.9792867860496277,1,True,,,,,,,,,,,,,33,A,2023-11-21_09h18.36.615,exp3,2022.2.2,
high_opac_v,0.01,1,0.01,3,0.82,3.5,0.01,0,0.01,4,5,Valid,1,56,167,start,lin,0.10386615627209603,0.10386615627209603,0,0.10386615627209603,0,True,,,,,,,,,,,,,33,A,2023-11-21_09h18.36.615,exp3,2022.2.2,
low_opac_i,0.4,1,0.01,3,0.82,3.5,0.01,0,0.01,4,5,Invalid,2,57,168,start,lin,0.9775484234623587,0.9775484234623587,1,0.9775484234623587,1,True,,,,,,,,,,,,,33,A,2023-11-21_09h18.36.615,exp3,2022.2.2,
low_opac_v,0.4,1,0.01,3,0.82,3.5,0.01,0,0.01,4,5,Valid,0,57,169,start,lin,0.12250250407302604,0,1,0.12250250407302604,1,True,,,,,,,,,,,,,33,A,2023-11-21_09h18.36.615,exp3,2022.2.2,
high_opac_v,0.01,1,0.01,3,0.82,3.5,0.01,0,0.01,4,5,Valid,1,57,170,start,lin,0.10961369070465941,0,1,0.10961369070465941,1,True,,,,,,,,,,,,,33,A,2023-11-21_09h18.36.615,exp3,2022.2.2,
low_opac_i,0.4,1,0.01,3,0.82,3.5,0.01,0,0.01,4,5,Invalid,2,58,171,start,lin,0.9758934622831387,0,1,0.9758934622831387,1,True,,,,,,,,,,,,,33,A,2023-11-21_09h18.36.615,exp3,2022.2.2,
high_opac_v,0.01,1,0.01,3,0.82,3.5,0.01,0,0.01,4,5,Valid,1,58,172,start,lin,0.1081764866381642,0,1,0.1081764866381642,1,True,,,,,,,,,,,,,33,A,2023-11-21_09h18.36.615,exp3,2022.2.2,
low_opac_v,0.4,1,0.01,3,0.82,3.5,0.01,0,0.01,4,5,Valid,0,58,173,start,lin,0.12097051065410758,0,1,0.12097051065410758,1,True,,,,,,,,,,,,,33,A,2023-11-21_09h18.36.615,exp3,2022.2.2,
high_opac_v,0.01,1,0.01,3,0.82,3.5,0.01,0,0.01,4,5,Valid,1,59,174,start,lin,0.1068086782831299,0.1068086782831299,0,0.1068086782831299,0,True,,,,,,,,,,,,,33,A,2023-11-21_09h18.36.615,exp3,2022.2.2,
low_opac_v,0.4,1,0.01,3,0.82,3.5,0.01,0,0.01,4,5,Valid,0,59,175,start,lin,0.11944640212420471,0,1,0.11944640212420471,1,True,,,,,,,,,,,,,33,A,2023-11-21_09h18.36.615,exp3,2022.2.2,
low_opac_i,0.4,1,0.01,3,0.82,3.5,0.01,0,0.01,4,5,Invalid,2,59,176,start,lin,0.9743010275669104,0,1,0.9743010275669104,1,True,,,,,,,,,,,,,33,A,2023-11-21_09h18.36.615,exp3,2022.2.2,
low_opac_i,0.4,1,0.01,3,0.82,3.5,0.01,0,0.01,4,5,Invalid,2,60,177,start,lin,0.9726133223607731,0.9726133223607731,1,0.9726133223607731,1,True,,,,,,,,,,,,,33,A,2023-11-21_09h18.36.615,exp3,2022.2.2,
low_opac_v,0.4,1,0.01,3,0.82,3.5,0.01,0,0.01,4,5,Valid,0,60,178,start,lin,0.11798053450797896,0,1,0.11798053450797896,1,True,,,,,,,,,,,,,33,A,2023-11-21_09h18.36.615,exp3,2022.2.2,
high_opac_v,0.01,1,0.01,3,0.82,3.5,0.01,0,0.01,4,5,Valid,1,60,179,start,lin,0.11263850373036892,0,1,0.11263850373036892,1,True,,,,,,,,,,,,,33,A,2023-11-21_09h18.36.615,exp3,2022.2.2,
low_opac_v,0.4,1,0.01,3,0.82,3.5,0.01,0,0.01,4,5,Valid,0,61,180,start,lin,0.11658090689113448,0,1,0.11658090689113448,1,True,,,,,,,,,,,,,33,A,2023-11-21_09h18.36.615,exp3,2022.2.2,
high_opac_v,0.01,1,0.01,3,0.82,3.5,0.01,0,0.01,4,5,Valid,1,61,181,start,lin,0.1112562682817111,0.1112562682817111,1,0.1112562682817111,1,True,,,,,,,,,,,,,33,A,2023-11-21_09h18.36.615,exp3,2022.2.2,
low_opac_i,0.4,1,0.01,3,0.82,3.5,0.01,0,0.01,4,5,Invalid,2,61,182,start,lin,0.9709522819093778,0.9709522819093778,1,0.9709522819093778,1,True,,,,,,,,,,,,,33,A,2023-11-21_09h18.36.615,exp3,2022.2.2,
high_opac_v,0.01,1,0.01,3,0.82,3.5,0.01,0,0.01,4,5,Valid,1,62,183,start,lin,0.10988094788808521,0,1,0.10988094788808521,1,True,,,,,,,,,,,,,33,A,2023-11-21_09h18.36.615,exp3,2022.2.2,
low_opac_v,0.4,1,0.01,3,0.82,3.5,0.01,0,0.01,4,5,Valid,0,62,184,start,lin,0.11523270587572754,0,1,0.11523270587572754,1,True,,,,,,,,,,,,,33,A,2023-11-21_09h18.36.615,exp3,2022.2.2,
low_opac_i,0.4,1,0.01,3,0.82,3.5,0.01,0,0.01,4,5,Invalid,2,62,185,start,lin,0.96930258425621,0.96930258425621,1,0.96930258425621,1,True,,,,,,,,,,,,,33,A,2023-11-21_09h18.36.615,exp3,2022.2.2,
low_opac_v,0.4,1,0.01,3,0.82,3.5,0.01,0,0.01,4,5,Valid,0,63,186,start,lin,0.11392273347438991,0.11392273347438991,0,0.11392273347438991,0,True,,,,,,,,,,,,,33,A,2023-11-21_09h18.36.615,exp3,2022.2.2,
low_opac_i,0.4,1,0.01,3,0.82,3.5,0.01,0,0.01,4,5,Invalid,2,63,187,start,lin,0.9677191204396403,0,1,0.9677191204396403,1,True,,,,,,,,,,,,,33,A,2023-11-21_09h18.36.615,exp3,2022.2.2,
high_opac_v,0.01,1,0.01,3,0.82,3.5,0.01,0,0.01,4,5,Valid,1,63,188,start,lin,0.10855116428398433,0,1,0.10855116428398433,1,True,,,,,,,,,,,,,33,A,2023-11-21_09h18.36.615,exp3,2022.2.2,
low_opac_i,0.4,1,0.01,3,0.82,3.5,0.01,0,0.01,4,5,Invalid,2,64,189,start,lin,0.9662069732827658,0.9662069732827658,1,0.9662069732827658,1,True,,,,,,,,,,,,,33,A,2023-11-21_09h18.36.615,exp3,2022.2.2,
high_opac_v,0.01,1,0.01,3,0.82,3.5,0.01,0,0.01,4,5,Valid,1,64,190,start,lin,0.10728519250537347,0.10728519250537347,0,0.10728519250537347,0,True,,,,,,,,,,,,,33,A,2023-11-21_09h18.36.615,exp3,2022.2.2,
low_opac_v,0.4,1,0.01,3,0.82,3.5,0.01,0,0.01,4,5,Valid,0,64,191,start,lin,0.11935838268379201,0,1,0.11935838268379201,1,True,,,,,,,,,,,,,33,A,2023-11-21_09h18.36.615,exp3,2022.2.2,
low_opac_i,0.4,1,0.01,3,0.82,3.5,0.01,0,0.01,4,5,Invalid,2,65,192,start,lin,0.9647490118482173,0,1,0.9647490118482173,1,True,,,,,,,,,,,,,33,A,2023-11-21_09h18.36.615,exp3,2022.2.2,
high_opac_v,0.01,1,0.01,3,0.82,3.5,0.01,0,0.01,4,5,Valid,1,65,193,start,lin,0.1126487510354138,0.1126487510354138,0,0.1126487510354138,0,True,,,,,,,,,,,,,33,A,2023-11-21_09h18.36.615,exp3,2022.2.2,
low_opac_v,0.4,1,0.01,3,0.82,3.5,0.01,0,0.01,4,5,Valid,0,65,194,start,lin,0.11801735698607813,0.11801735698607813,0,0.11801735698607813,0,True,,,,,,,,,,,,,33,A,2023-11-21_09h18.36.615,exp3,2022.2.2,
low_opac_v,0.4,1,0.01,3,0.82,3.5,0.01,0,0.01,4,5,Valid,0,66,195,start,lin,0.12352974305459463,0.12352974305459463,1,0.12352974305459463,1,True,,,,,,,,,,,,,33,A,2023-11-21_09h18.36.615,exp3,2022.2.2,
low_opac_i,0.4,1,0.01,3,0.82,3.5,0.01,0,0.01,4,5,Invalid,2,66,196,start,lin,0.9632025125970782,0,1,0.9632025125970782,1,True,,,,,,,,,,,,,33,A,2023-11-21_09h18.36.615,exp3,2022.2.2,
high_opac_v,0.01,1,0.01,3,0.82,3.5,0.01,0,0.01,4,5,Valid,1,66,197,start,lin,0.11757962979291138,0,1,0.11757962979291138,1,True,,,,,,,,,,,,,33,A,2023-11-21_09h18.36.615,exp3,2022.2.2,
high_opac_v,0.01,1,0.01,3,0.82,3.5,0.01,0,0.01,4,5,Valid,1,67,198,start,lin,0.11639638092832295,0,1,0.11639638092832295,1,True,,,,,,,,,,,,,33,A,2023-11-21_09h18.36.615,exp3,2022.2.2,
low_opac_v,0.4,1,0.01,3,0.82,3.5,0.01,0,0.01,4,5,Valid,0,67,199,start,lin,0.12223457959663497,0,1,0.12223457959663497,1,True,,,,,,,,,,,,,33,A,2023-11-21_09h18.36.615,exp3,2022.2.2,
low_opac_i,0.4,1,0.01,3,0.82,3.5,0.01,0,0.01,4,5,Invalid,2,67,200,start,lin,0.9616806281431556,0,1,0.9616806281431556,1,True,,,,,,,,,,,,,33,A,2023-11-21_09h18.36.615,exp3,2022.2.2,
high_opac_v,0.01,1,0.01,3,0.82,3.5,0.01,0,0.01,4,5,Valid,1,68,201,start,lin,0.11525392955262492,0.11525392955262492,1,0.11525392955262492,1,True,,,,,,,,,,,,,33,A,2023-11-21_09h18.36.615,exp3,2022.2.2,
low_opac_i,0.4,1,0.01,3,0.82,3.5,0.01,0,0.01,4,5,Invalid,2,68,202,start,lin,0.9601673160154292,0,1,0.9601673160154292,1,True,,,,,,,,,,,,,33,A,2023-11-21_09h18.36.615,exp3,2022.2.2,
low_opac_v,0.4,1,0.01,3,0.82,3.5,0.01,0,0.01,4,5,Valid,0,68,203,start,lin,0.12094875900161367,0.12094875900161367,0,0.12094875900161367,0,True,,,,,,,,,,,,,33,A,2023-11-21_09h18.36.615,exp3,2022.2.2,
high_opac_v,0.01,1,0.01,3,0.82,3.5,0.01,0,0.01,4,5,Valid,1,69,204,start,lin,0.11414259657544847,0.11414259657544847,1,0.11414259657544847,1,True,,,,,,,,,,,,,33,A,2023-11-21_09h18.36.615,exp3,2022.2.2,
low_opac_i,0.4,1,0.01,3,0.82,3.5,0.01,0,0.01,4,5,Invalid,2,69,205,start,lin,0.9586675806626761,0,1,0.9586675806626761,1,True,,,,,,,,,,,,,33,A,2023-11-21_09h18.36.615,exp3,2022.2.2,
low_opac_v,0.4,1,0.01,3,0.82,3.5,0.01,0,0.01,4,5,Valid,0,69,206,start,lin,0.1259473125751009,0.1259473125751009,1,0.1259473125751009,1,True,,,,,,,,,,,,,33,A,2023-11-21_09h18.36.615,exp3,2022.2.2,
low_opac_i,0.4,1,0.01,3,0.82,3.5,0.01,0,0.01,4,5,Invalid,2,70,207,start,lin,0.957236054841476,0,1,0.957236054841476,1,True,,,,,,,,,,,,,33,A,2023-11-21_09h18.36.615,exp3,2022.2.2,
high_opac_v,0.01,1,0.01,3,0.82,3.5,0.01,0,0.01,4,5,Valid,1,70,208,start,lin,0.11295546543300161,0.11295546543300161,0,0.11295546543300161,0,True,,,,,,,,,,,,,33,A,2023-11-21_09h18.36.615,exp3,2022.2.2,
low_opac_v,0.4,1,0.01,3,0.82,3.5,0.01,0,0.01,4,5,Valid,0,70,209,start,lin,0.12480808203470828,0.12480808203470828,1,0.12480808203470828,1,True,,,,,,,,,,,,,33,A,2023-11-21_09h18.36.615,exp3,2022.2.2,
high_opac_v,0.01,1,0.01,3,0.82,3.5,0.01,0,0.01,4,5,Valid,1,71,210,start,lin,0.11751064901691466,0,1,0.11751064901691466,1,True,,,,,,,,,,,,,33,A,2023-11-21_09h18.36.615,exp3,2022.2.2,
low_opac_i,0.4,1,0.01,3,0.82,3.5,0.01,0,0.01,4,5,Invalid,2,71,211,start,lin,0.955859999776938,0,1,0.955859999776938,1,True,,,,,,,,,,,,,33,A,2023-11-21_09h18.36.615,exp3,2022.2.2,
low_opac_v,0.4,1,0.01,3,0.82,3.5,0.01,0,0.01,4,5,Valid,0,71,212,start,lin,0.12359538679558313,0,1,0.12359538679558313,1,True,,,,,,,,,,,,,33,A,2023-11-21_09h18.36.615,exp3,2022.2.2,
low_opac_v,0.4,1,0.01,3,0.82,3.5,0.01,0,0.01,4,5,Valid,0,72,213,start,lin,0.12240047008286598,0.12240047008286598,0,0.12240047008286598,0,True,,,,,,,,,,,,,33,A,2023-11-21_09h18.36.615,exp3,2022.2.2,
low_opac_i,0.4,1,0.01,3,0.82,3.5,0.01,0,0.01,4,5,Invalid,2,72,214,start,lin,0.9545256868172572,0,1,0.9545256868172572,1,True,,,,,,,,,,,,,33,A,2023-11-21_09h18.36.615,exp3,2022.2.2,
high_opac_v,0.01,1,0.01,3,0.82,3.5,0.01,0,0.01,4,5,Valid,1,72,215,start,lin,0.11641524164692586,0,1,0.11641524164692586,1,True,,,,,,,,,,,,,33,A,2023-11-21_09h18.36.615,exp3,2022.2.2,
low_opac_i,0.4,1,0.01,3,0.82,3.5,0.01,0,0.01,4,5,Invalid,2,73,216,start,lin,0.9531026807262489,0,1,0.9531026807262489,1,True,,,,,,,,,,,,,33,A,2023-11-21_09h18.36.615,exp3,2022.2.2,
high_opac_v,0.01,1,0.01,3,0.82,3.5,0.01,0,0.01,4,5,Valid,1,73,217,start,lin,0.11535574027339579,0.11535574027339579,1,0.11535574027339579,1,True,,,,,,,,,,,,,33,A,2023-11-21_09h18.36.615,exp3,2022.2.2,
low_opac_v,0.4,1,0.01,3,0.82,3.5,0.01,0,0.01,4,5,Valid,0,73,218,start,lin,0.12700926735788876,0.12700926735788876,1,0.12700926735788876,1,True,,,,,,,,,,,,,33,A,2023-11-21_09h18.36.615,exp3,2022.2.2,
high_opac_v,0.01,1,0.01,3,0.82,3.5,0.01,0,0.01,4,5,Valid,1,74,219,start,lin,0.11432386451505425,0,1,0.11432386451505425,1,True,,,,,,,,,,,,,33,A,2023-11-21_09h18.36.615,exp3,2022.2.2,
low_opac_v,0.4,1,0.01,3,0.82,3.5,0.01,0,0.01,4,5,Valid,0,74,220,start,lin,0.12592319173495736,0.12592319173495736,0,0.12592319173495736,0,True,,,,,,,,,,,,,33,A,2023-11-21_09h18.36.615,exp3,2022.2.2,
low_opac_i,0.4,1,0.01,3,0.82,3.5,0.01,0,0.01,4,5,Invalid,2,74,221,start,lin,0.9516964998375498,0,1,0.9516964998375498,1,True,,,,,,,,,,,,,33,A,2023-11-21_09h18.36.615,exp3,2022.2.2,
high_opac_v,0.01,1,0.01,3,0.82,3.5,0.01,0,0.01,4,5,Valid,1,75,222,start,lin,0.11322100196807988,0.11322100196807988,1,0.11322100196807988,1,True,,,,,,,,,,,,,33,A,2023-11-21_09h18.36.615,exp3,2022.2.2,
low_opac_v,0.4,1,0.01,3,0.82,3.5,0.01,0,0.01,4,5,Valid,0,75,223,start,lin,0.13071437492177712,0,1,0.13071437492177712,1,True,,,,,,,,,,,,,33,A,2023-11-21_09h18.36.615,exp3,2022.2.2,
low_opac_i,0.4,1,0.01,3,0.82,3.5,0.01,0,0.01,4,5,Invalid,2,75,224,start,lin,0.9502936361774477,0,1,0.9502936361774477,1,True,,,,,,,,,,,,,33,A,2023-11-21_09h18.36.615,exp3,2022.2.2,
,,,,,,,,,,,,,,,,,,,,,,,,0,1158,Invalid,signal,45,1,2.3331536003388464,1,3.0,3.6410761000588536,True,1,33,A,2023-11-21_09h18.36.615,exp3,2022.2.2,
,,,,,,,,,,,,,,,,,,,,,,,,0,-1716,Valid,noise,45,2,1.7218080000020564,1,2.0,3.0292849000543356,True,1,33,A,2023-11-21_09h18.36.615,exp3,2022.2.2,
,,,,,,,,,,,,,,,,,,,,,,,,0,-1158,Valid,signal,-45,1,2.521363199688494,1,3.0,3.829198000021279,True,1,33,A,2023-11-21_09h18.36.615,exp3,2022.2.2,
,,,,,,,,,,,,,,,,,,,,,,,,0,1716,Valid,noise,45,2,1.422270500101149,1,3.0,2.7298286999575794,True,1,33,A,2023-11-21_09h18.36.615,exp3,2022.2.2,
,,,,,,,,,,,,,,,,,,,,,,,,0,1716,Valid,signal,45,2,3.4890594999305904,0,1.0,4.796925200149417,True,1,33,A,2023-11-21_09h18.36.615,exp3,2022.2.2,
,,,,,,,,,,,,,,,,,,,,,,,,0,-1158,Valid,signal,45,1,2.8382642003707588,1,4.0,4.146083900239319,True,1,33,A,2023-11-21_09h18.36.615,exp3,2022.2.2,
,,,,,,,,,,,,,,,,,,,,,,,,0,2274,Valid,signal,45,2,1.4720518998801708,0,2.0,2.7799336998723447,True,1,33,A,2023-11-21_09h18.36.615,exp3,2022.2.2,
,,,,,,,,,,,,,,,,,,,,,,,,0,-1716,Valid,noise,45,2,2.5545047000050545,1,1.0,3.8622539998032153,True,1,33,A,2023-11-21_09h18.36.615,exp3,2022.2.2,
,,,,,,,,,,,,,,,,,,,,,,,,0,2274,Valid,signal,45,2,2.5388622004538774,0,2.0,3.8468547998927534,True,1,33,A,2023-11-21_09h18.36.615,exp3,2022.2.2,
,,,,,,,,,,,,,,,,,,,,,,,,0,-2274,Valid,signal,45,2,1.8546262998133898,0,1.0,3.1628105002455413,True,1,33,A,2023-11-21_09h18.36.615,exp3,2022.2.2,
,,,,,,,,,,,,,,,,,,,,,,,,0,1158,Valid,noise,-45,2,2.4722065003588796,1,3.0,3.7798858997412026,True,1,33,A,2023-11-21_09h18.36.615,exp3,2022.2.2,
,,,,,,,,,,,,,,,,,,,,,,,,0,-557,Valid,signal,45,1,2.8224525996483862,1,4.0,4.130189899820834,True,1,33,A,2023-11-21_09h18.36.615,exp3,2022.2.2,
,,,,,,,,,,,,,,,,,,,,,,,,0,557,Invalid,noise,45,2,2.121463699731976,1,3.0,3.4292882001027465,True,1,33,A,2023-11-21_09h18.36.615,exp3,2022.2.2,
,,,,,,,,,,,,,,,,,,,,,,,,0,-1716,Valid,signal,-45,1,2.5548596000298858,1,3.0,3.862864200025797,True,1,33,A,2023-11-21_09h18.36.615,exp3,2022.2.2,
,,,,,,,,,,,,,,,,,,,,,,,,0,-1158,Valid,noise,-45,2,1.7215393004007638,1,2.0,3.029441900085658,True,1,33,A,2023-11-21_09h18.36.615,exp3,2022.2.2,
,,,,,,,,,,,,,,,,,,,,,,,,0,-2274,Valid,noise,-45,2,2.0221725995652378,1,2.0,3.3299873997457325,True,1,33,A,2023-11-21_09h18.36.615,exp3,2022.2.2,
,,,,,,,,,,,,,,,,,,,,,,,,0,557,Valid,signal,45,1,1.754567800089717,1,3.0,3.062564100138843,True,1,33,A,2023-11-21_09h18.36.615,exp3,2022.2.2,
,,,,,,,,,,,,,,,,,,,,,,,,0,-2274,Valid,noise,-45,2,2.005269499961287,1,1.0,3.3130510998889804,True,1,33,A,2023-11-21_09h18.36.615,exp3,2022.2.2,
,,,,,,,,,,,,,,,,,,,,,,,,0,2274,Valid,signal,45,2,2.0215257997624576,0,2.0,3.329372900072485,True,1,33,A,2023-11-21_09h18.36.615,exp3,2022.2.2,
,,,,,,,,,,,,,,,,,,,,,,,,0,1716,Valid,signal,45,2,1.57187130022794,0,2.0,2.8798903999850154,True,1,33,A,2023-11-21_09h18.36.615,exp3,2022.2.2,
,,,,,,,,,,,,,,,,,,,,,,,,0,-2274,Valid,signal,45,2,3.2556217000819743,0,2.0,4.563334799837321,True,1,33,A,2023-11-21_09h18.36.615,exp3,2022.2.2,
,,,,,,,,,,,,,,,,,,,,,,,,0,2274,Valid,noise,-45,2,1.5714452001266181,1,2.0,2.8792069000191987,True,1,33,A,2023-11-21_09h18.36.615,exp3,2022.2.2,
,,,,,,,,,,,,,,,,,,,,,,,,0,1158,Valid,noise,-45,2,2.0717376000247896,1,3.0,3.3797773998230696,True,1,33,A,2023-11-21_09h18.36.615,exp3,2022.2.2,
,,,,,,,,,,,,,,,,,,,,,,,,0,-557,Valid,noise,-45,2,2.171838100068271,1,3.0,3.4798348997719586,True,1,33,A,2023-11-21_09h18.36.615,exp3,2022.2.2,
,,,,,,,,,,,,,,,,,,,,,,,,0,-2274,Valid,noise,45,2,1.4547323998995125,1,2.0,2.762685799971223,True,1,33,A,2023-11-21_09h18.36.615,exp3,2022.2.2,
,,,,,,,,,,,,,,,,,,,,,,,,0,-1158,Valid,signal,-45,1,3.0559588000178337,1,2.0,4.363776099868119,True,1,33,A,2023-11-21_09h18.36.615,exp3,2022.2.2,
,,,,,,,,,,,,,,,,,,,,,,,,0,557,Valid,signal,-45,1,3.355807200074196,1,3.0,4.66366249974817,True,1,33,A,2023-11-21_09h18.36.615,exp3,2022.2.2,
,,,,,,,,,,,,,,,,,,,,,,,,0,-1158,Invalid,signal,-45,1,1.8885639999061823,1,2.0,3.1963992998935282,True,1,33,A,2023-11-21_09h18.36.615,exp3,2022.2.2,
,,,,,,,,,,,,,,,,,,,,,,,,0,1716,Valid,noise,45,2,1.2551810997538269,1,2.0,2.5629778001457453,True,1,33,A,2023-11-21_09h18.36.615,exp3,2022.2.2,
,,,,,,,,,,,,,,,,,,,,,,,,0,-1716,Valid,signal,-45,1,1.3708124998956919,1,3.0,2.678696199785918,True,1,33,A,2023-11-21_09h18.36.615,exp3,2022.2.2,
,,,,,,,,,,,,,,,,,,,,,,,,0,1158,Valid,signal,-45,1,1.2212980999611318,1,3.0,2.529195500072092,True,1,33,A,2023-11-21_09h18.36.615,exp3,2022.2.2,
,,,,,,,,,,,,,,,,,,,,,,,,0,2274,Valid,noise,-45,2,1.688588900025934,1,1.0,2.9963984000496566,True,1,33,A,2023-11-21_09h18.36.615,exp3,2022.2.2,
,,,,,,,,,,,,,,,,,,,,,,,,0,-2274,Invalid,noise,-45,1,1.6384767000563443,0,1.0,2.9461810998618603,True,1,33,A,2023-11-21_09h18.36.615,exp3,2022.2.2,
,,,,,,,,,,,,,,,,,,,,,,,,0,1716,Valid,noise,-45,2,3.3720697998069227,1,1.0,4.679812599904835,True,1,33,A,2023-11-21_09h18.36.615,exp3,2022.2.2,
,,,,,,,,,,,,,,,,,,,,,,,,0,2274,Valid,signal,45,2,1.154934300109744,0,1.0,2.4627387998625636,True,1,33,A,2023-11-21_09h18.36.615,exp3,2022.2.2,
,,,,,,,,,,,,,,,,,,,,,,,,0,2274,Valid,signal,45,2,1.7546648997813463,0,1.0,3.0624844999983907,True,1,33,A,2023-11-21_09h18.36.615,exp3,2022.2.2,
,,,,,,,,,,,,,,,,,,,,,,,,0,557,Invalid,signal,45,1,2.5222377995960414,1,3.0,3.830179300159216,True,1,33,A,2023-11-21_09h18.36.615,exp3,2022.2.2,
,,,,,,,,,,,,,,,,,,,,,,,,0,1158,Valid,noise,45,1,2.3894663001410663,0,3.0,3.6970326001755893,True,1,33,A,2023-11-21_09h18.36.615,exp3,2022.2.2,
,,,,,,,,,,,,,,,,,,,,,,,,0,1158,Valid,noise,45,2,2.1880239001475275,1,2.0,3.49584829993546,True,1,33,A,2023-11-21_09h18.36.615,exp3,2022.2.2,
,,,,,,,,,,,,,,,,,,,,,,,,0,1158,Valid,noise,45,2,6.57384409988299,1,1.0,7.88158469973132,True,1,33,A,2023-11-21_09h18.36.615,exp3,2022.2.2,
,,,,,,,,,,,,,,,,,,,,,,,,0,1716,Valid,noise,45,2,1.7879746998660266,1,2.0,3.09576869988814,True,1,33,A,2023-11-21_09h18.36.615,exp3,2022.2.2,
,,,,,,,,,,,,,,,,,,,,,,,,0,-1158,Valid,noise,-45,1,4.656942300032824,0,1.0,5.964596400037408,True,1,33,A,2023-11-21_09h18.36.615,exp3,2022.2.2,
,,,,,,,,,,,,,,,,,,,,,,,,0,2274,Invalid,noise,45,2,1.1381276999600232,1,1.0,2.4456432997249067,True,1,33,A,2023-11-21_09h18.36.615,exp3,2022.2.2,
,,,,,,,,,,,,,,,,,,,,,,,,0,-1158,Valid,noise,-45,1,1.5211709002032876,0,2.0,2.829109199810773,True,1,33,A,2023-11-21_09h18.36.615,exp3,2022.2.2,
,,,,,,,,,,,,,,,,,,,,,,,,0,2274,Invalid,signal,-45,2,3.5394142996519804,0,1.0,4.847156200092286,True,1,33,A,2023-11-21_09h18.36.615,exp3,2022.2.2,
,,,,,,,,,,,,,,,,,,,,,,,,0,-2274,Valid,noise,-45,2,2.2048767996020615,1,1.0,3.512895999941975,True,1,33,A,2023-11-21_09h18.36.615,exp3,2022.2.2,
,,,,,,,,,,,,,,,,,,,,,,,,0,1158,Valid,noise,-45,2,1.7890246999450028,1,1.0,3.096825999673456,True,1,33,A,2023-11-21_09h18.36.615,exp3,2022.2.2,
,,,,,,,,,,,,,,,,,,,,,,,,0,-1716,Valid,signal,-45,1,1.6210581995546818,1,3.0,2.9289961997419596,True,1,33,A,2023-11-21_09h18.36.615,exp3,2022.2.2,
,,,,,,,,,,,,,,,,,,,,,,,,0,-1158,Valid,signal,-45,1,1.7391194002702832,1,3.0,3.046805300284177,True,1,33,A,2023-11-21_09h18.36.615,exp3,2022.2.2,
,,,,,,,,,,,,,,,,,,,,,,,,0,-1716,Valid,noise,45,2,1.737679900135845,1,1.0,3.0456542000174522,True,1,33,A,2023-11-21_09h18.36.615,exp3,2022.2.2,
,,,,,,,,,,,,,,,,,,,,,,,,0,1158,Valid,signal,45,1,2.5885001001879573,1,4.0,3.8964955997653306,True,1,33,A,2023-11-21_09h18.36.615,exp3,2022.2.2,
,,,,,,,,,,,,,,,,,,,,,,,,0,-557,Invalid,noise,-45,2,1.6222993000410497,1,4.0,2.9301048000343144,True,1,33,A,2023-11-21_09h18.36.615,exp3,2022.2.2,
,,,,,,,,,,,,,,,,,,,,,,,,0,-1158,Valid,noise,45,1,1.670873099938035,0,2.0,2.978921600151807,True,1,33,A,2023-11-21_09h18.36.615,exp3,2022.2.2,
,,,,,,,,,,,,,,,,,,,,,,,,0,-557,Valid,noise,-45,2,2.1888116002082825,1,4.0,3.496765499934554,True,1,33,A,2023-11-21_09h18.36.615,exp3,2022.2.2,
,,,,,,,,,,,,,,,,,,,,,,,,0,-2274,Invalid,signal,45,2,3.1050807000137866,0,1.0,4.41308129997924,True,1,33,A,2023-11-21_09h18.36.615,exp3,2022.2.2,
,,,,,,,,,,,,,,,,,,,,,,,,0,1158,Valid,noise,45,2,2.0716717997565866,1,2.0,3.379762599710375,True,1,33,A,2023-11-21_09h18.36.615,exp3,2022.2.2,
,,,,,,,,,,,,,,,,,,,,,,,,0,-1716,Invalid,noise,-45,2,1.271763099823147,1,2.0,2.579710400197655,True,1,33,A,2023-11-21_09h18.36.615,exp3,2022.2.2,
,,,,,,,,,,,,,,,,,,,,,,,,0,1158,Invalid,noise,45,2,1.6554856998845935,1,2.0,2.9634094000793993,True,1,33,A,2023-11-21_09h18.36.615,exp3,2022.2.2,
,,,,,,,,,,,,,,,,,,,,,,,,0,-2274,Valid,noise,45,2,2.6716161998920143,1,2.0,3.9795899000018835,True,1,33,A,2023-11-21_09h18.36.615,exp3,2022.2.2,
,,,,,,,,,,,,,,,,,,,,,,,,0,-1158,Valid,signal,-45,1,1.5383577002212405,1,2.0,2.846037699840963,True,1,33,A,2023-11-21_09h18.36.615,exp3,2022.2.2,
,,,,,,,,,,,,,,,,,,,,,,,,0,1716,Valid,noise,45,2,3.0058811996132135,1,1.0,4.313725400250405,True,1,33,A,2023-11-21_09h18.36.615,exp3,2022.2.2,
,,,,,,,,,,,,,,,,,,,,,,,,0,557,Valid,noise,-45,2,1.854678399860859,1,4.0,3.162789300084114,True,1,33,A,2023-11-21_09h18.36.615,exp3,2022.2.2,
,,,,,,,,,,,,,,,,,,,,,,,,0,-557,Valid,noise,-45,2,2.9887098004110157,1,4.0,4.296543600037694,True,1,33,A,2023-11-21_09h18.36.615,exp3,2022.2.2,
,,,,,,,,,,,,,,,,,,,,,,,,0,1158,Valid,signal,-45,2,2.388277899939567,0,2.0,3.6961679998785257,True,1,33,A,2023-11-21_09h18.36.615,exp3,2022.2.2,
,,,,,,,,,,,,,,,,,,,,,,,,0,1716,Valid,signal,45,2,1.4719990999437869,0,2.0,2.7797134001739323,True,1,33,A,2023-11-21_09h18.36.615,exp3,2022.2.2,
,,,,,,,,,,,,,,,,,,,,,,,,0,557,Valid,signal,45,1,2.138090900145471,1,3.0,3.4460442001000047,True,1,33,A,2023-11-21_09h18.36.615,exp3,2022.2.2,
,,,,,,,,,,,,,,,,,,,,,,,,0,1716,Valid,noise,-45,1,2.1224330998957157,0,1.0,3.4304438000544906,True,1,33,A,2023-11-21_09h18.36.615,exp3,2022.2.2,
,,,,,,,,,,,,,,,,,,,,,,,,0,-1716,Valid,noise,-45,2,2.437836099881679,1,1.0,3.7458468000404537,True,1,33,A,2023-11-21_09h18.36.615,exp3,2022.2.2,
,,,,,,,,,,,,,,,,,,,,,,,,0,-557,Valid,noise,45,2,2.3225680999457836,1,4.0,3.630407600197941,True,1,33,A,2023-11-21_09h18.36.615,exp3,2022.2.2,
,,,,,,,,,,,,,,,,,,,,,,,,0,2274,Valid,noise,45,2,1.821140700019896,1,2.0,3.1292046001181006,True,1,33,A,2023-11-21_09h18.36.615,exp3,2022.2.2,
,,,,,,,,,,,,,,,,,,,,,,,,0,-2274,Valid,signal,-45,2,2.489335499703884,0,2.0,3.797034800052643,True,1,33,A,2023-11-21_09h18.36.615,exp3,2022.2.2,
,,,,,,,,,,,,,,,,,,,,,,,,0,-557,Valid,noise,-45,2,1.8882428999058902,1,3.0,3.19600270036608,True,1,33,A,2023-11-21_09h18.36.615,exp3,2022.2.2,
,,,,,,,,,,,,,,,,,,,,,,,,0,1716,Valid,signal,-45,2,1.7547066998668015,0,2.0,3.0628309999592602,True,1,33,A,2023-11-21_09h18.36.615,exp3,2022.2.2,
,,,,,,,,,,,,,,,,,,,,,,,,0,-1158,Valid,noise,-45,2,1.5215539997443557,1,3.0,2.8293812996707857,True,1,33,A,2023-11-21_09h18.36.615,exp3,2022.2.2,
,,,,,,,,,,,,,,,,,,,,,,,,0,557,Valid,noise,-45,2,1.654941899701953,1,4.0,2.96273640030995,True,1,33,A,2023-11-21_09h18.36.615,exp3,2022.2.2,
,,,,,,,,,,,,,,,,,,,,,,,,0,557,Invalid,signal,45,1,2.171968000009656,1,3.0,3.4797709002159536,True,1,33,A,2023-11-21_09h18.36.615,exp3,2022.2.2,
,,,,,,,,,,,,,,,,,,,,,,,,0,557,Valid,signal,45,1,1.371471400372684,1,4.0,2.6791739999316633,True,1,33,A,2023-11-21_09h18.36.615,exp3,2022.2.2,
,,,,,,,,,,,,,,,,,,,,,,,,0,-557,Valid,noise,45,2,1.638996500056237,1,4.0,2.9467086996883154,True,1,33,A,2023-11-21_09h18.36.615,exp3,2022.2.2,
,,,,,,,,,,,,,,,,,,,,,,,,0,557,Valid,signal,-45,2,4.371787399984896,0,1.0,5.679843400139362,True,1,33,A,2023-11-21_09h18.36.615,exp3,2022.2.2,
,,,,,,,,,,,,,,,,,,,,,,,,0,-557,Valid,signal,-45,1,1.5719720995984972,1,4.0,2.8797265999019146,True,1,33,A,2023-11-21_09h18.36.615,exp3,2022.2.2,
,,,,,,,,,,,,,,,,,,,,,,,,0,-1716,Valid,noise,45,2,1.6380314999260008,1,2.0,2.945913199800998,True,1,33,A,2023-11-21_09h18.36.615,exp3,2022.2.2,
,,,,,,,,,,,,,,,,,,,,,,,,0,1716,Invalid,signal,45,1,1.6883535999804735,1,3.0,2.996419799979776,True,1,33,A,2023-11-21_09h18.36.615,exp3,2022.2.2,
,,,,,,,,,,,,,,,,,,,,,,,,0,-557,Valid,signal,-45,1,1.3043349999934435,1,4.0,2.61236559972167,True,1,33,A,2023-11-21_09h18.36.615,exp3,2022.2.2,
,,,,,,,,,,,,,,,,,,,,,,,,0,1716,Invalid,signal,-45,1,1.5386259001679718,1,4.0,2.8464076998643577,True,1,33,A,2023-11-21_09h18.36.615,exp3,2022.2.2,
,,,,,,,,,,,,,,,,,,,,,,,,0,-2274,Valid,signal,-45,2,2.5890379999764264,0,1.0,3.8967716000042856,True,1,33,A,2023-11-21_09h18.36.615,exp3,2022.2.2,
,,,,,,,,,,,,,,,,,,,,,,,,0,2274,Valid,noise,-45,2,2.1719729998148978,1,2.0,3.4795916001312435,True,1,33,A,2023-11-21_09h18.36.615,exp3,2022.2.2,
,,,,,,,,,,,,,,,,,,,,,,,,0,-1158,Invalid,signal,-45,1,2.221321899909526,1,3.0,3.5293662999756634,True,1,33,A,2023-11-21_09h18.36.615,exp3,2022.2.2,
,,,,,,,,,,,,,,,,,,,,,,,,0,-2274,Valid,noise,45,2,1.7383767999708652,1,1.0,3.046245099976659,True,1,33,A,2023-11-21_09h18.36.615,exp3,2022.2.2,
,,,,,,,,,,,,,,,,,,,,,,,,0,-1716,Valid,noise,45,2,1.5724902995862067,1,1.0,2.8805287000723183,True,1,33,A,2023-11-21_09h18.36.615,exp3,2022.2.2,
,,,,,,,,,,,,,,,,,,,,,,,,0,1716,Valid,signal,45,2,2.571308800019324,0,2.0,3.8791994997300208,True,1,33,A,2023-11-21_09h18.36.615,exp3,2022.2.2,
,,,,,,,,,,,,,,,,,,,,,,,,0,-2274,Valid,noise,-45,1,1.6550896000117064,0,1.0,2.9629255002364516,True,1,33,A,2023-11-21_09h18.36.615,exp3,2022.2.2,
,,,,,,,,,,,,,,,,,,,,,,,,0,2274,Valid,signal,45,2,1.5881026000715792,0,1.0,2.896199299953878,True,1,33,A,2023-11-21_09h18.36.615,exp3,2022.2.2,
,,,,,,,,,,,,,,,,,,,,,,,,0,-2274,Valid,signal,-45,2,2.505634699948132,0,1.0,3.8134129997342825,True,1,33,A,2023-11-21_09h18.36.615,exp3,2022.2.2,
,,,,,,,,,,,,,,,,,,,,,,,,0,-1716,Valid,signal,45,1,1.8549885000102222,1,3.0,3.1630815002135932,True,1,33,A,2023-11-21_09h18.36.615,exp3,2022.2.2,
,,,,,,,,,,,,,,,,,,,,,,,,0,-2274,Valid,signal,-45,2,3.039118599612266,0,1.0,4.346850499976426,True,1,33,A,2023-11-21_09h18.36.615,exp3,2022.2.2,
,,,,,,,,,,,,,,,,,,,,,,,,0,-557,Valid,signal,-45,1,1.5717244003899395,1,4.0,2.8795773000456393,True,1,33,A,2023-11-21_09h18.36.615,exp3,2022.2.2,
,,,,,,,,,,,,,,,,,,,,,,,,0,-557,Valid,signal,-45,1,1.6876364997588098,1,4.0,2.9957633996382356,True,1,33,A,2023-11-21_09h18.36.615,exp3,2022.2.2,
,,,,,,,,,,,,,,,,,,,,,,,,0,-1716,Invalid,signal,-45,2,2.2558190999552608,0,2.0,3.5634627998806536,True,1,33,A,2023-11-21_09h18.36.615,exp3,2022.2.2,
,,,,,,,,,,,,,,,,,,,,,,,,0,-1158,Valid,noise,-45,1,1.1544067999348044,0,3.0,2.4622949003241956,True,1,33,A,2023-11-21_09h18.36.615,exp3,2022.2.2,
,,,,,,,,,,,,,,,,,,,,,,,,0,1716,Valid,signal,-45,2,2.0721083995886147,0,3.0,3.3798964000307024,True,1,33,A,2023-11-21_09h18.36.615,exp3,2022.2.2,
,,,,,,,,,,,,,,,,,,,,,,,,0,-1158,Invalid,noise,-45,2,2.171652799937874,1,3.0,3.4796834997832775,True,1,33,A,2023-11-21_09h18.36.615,exp3,2022.2.2,
,,,,,,,,,,,,,,,,,,,,,,,,0,2274,Invalid,noise,-45,1,1.6555017000064254,0,3.0,2.963180599734187,True,1,33,A,2023-11-21_09h18.36.615,exp3,2022.2.2,
,,,,,,,,,,,,,,,,,,,,,,,,0,-2274,Invalid,signal,45,2,1.7383654997684062,0,2.0,3.045979999937117,True,1,33,A,2023-11-21_09h18.36.615,exp3,2022.2.2,
,,,,,,,,,,,,,,,,,,,,,,,,0,1716,Valid,signal,45,2,2.4056299002841115,0,3.0,3.713339200243354,True,1,33,A,2023-11-21_09h18.36.615,exp3,2022.2.2,
,,,,,,,,,,,,,,,,,,,,,,,,0,-1158,Valid,signal,45,1,1.3382869996130466,1,4.0,2.645974699873477,True,1,33,A,2023-11-21_09h18.36.615,exp3,2022.2.2,
,,,,,,,,,,,,,,,,,,,,,,,,0,-1716,Valid,signal,45,1,1.137864800170064,1,4.0,2.4456112002953887,True,1,33,A,2023-11-21_09h18.36.615,exp3,2022.2.2,
,,,,,,,,,,,,,,,,,,,,,,,,0,2274,Invalid,signal,-45,2,1.905789399985224,0,2.0,3.213292599655688,True,1,33,A,2023-11-21_09h18.36.615,exp3,2022.2.2,
,,,,,,,,,,,,,,,,,,,,,,,,0,1158,Valid,signal,45,1,1.438049599993974,1,4.0,2.7459917003288865,True,1,33,A,2023-11-21_09h18.36.615,exp3,2022.2.2,
,,,,,,,,,,,,,,,,,,,,,,,,0,2274,Valid,noise,-45,2,2.5716301002539694,1,1.0,3.8795977998524904,True,1,33,A,2023-11-21_09h18.36.615,exp3,2022.2.2,
,,,,,,,,,,,,,,,,,,,,,,,,0,2274,Valid,noise,-45,2,2.6723223999142647,1,2.0,3.9802884003147483,True,1,33,A,2023-11-21_09h18.36.615,exp3,2022.2.2,
,,,,,,,,,,,,,,,,,,,,,,,,0,2274,Valid,noise,45,2,2.838782699778676,1,1.0,4.146659599617124,True,1,33,A,2023-11-21_09h18.36.615,exp3,2022.2.2,
,,,,,,,,,,,,,,,,,,,,,,,,0,-2274,Invalid,noise,-45,2,1.7210779003798962,1,1.0,3.0290264999493957,True,1,33,A,2023-11-21_09h18.36.615,exp3,2022.2.2,
,,,,,,,,,,,,,,,,,,,,,,,,0,-1158,Valid,noise,45,1,1.4715300998650491,0,3.0,2.7793452003970742,True,1,33,A,2023-11-21_09h18.36.615,exp3,2022.2.2,
,,,,,,,,,,,,,,,,,,,,,,,,0,-557,Invalid,noise,45,2,2.9893128001131117,1,2.0,4.297123400028795,True,1,33,A,2023-11-21_09h18.36.615,exp3,2022.2.2,
,,,,,,,,,,,,,,,,,,,,,,,,0,-557,Invalid,signal,45,1,1.4049208001233637,1,4.0,2.7126599000766873,True,1,33,A,2023-11-21_09h18.36.615,exp3,2022.2.2,
,,,,,,,,,,,,,,,,,,,,,,,,0,557,Valid,noise,-45,2,1.8212751001119614,1,4.0,3.1293327999301255,True,1,33,A,2023-11-21_09h18.36.615,exp3,2022.2.2,
,,,,,,,,,,,,,,,,,,,,,,,,0,-557,Valid,signal,-45,2,1.6718422998674214,0,1.0,2.9796842001378536,True,1,33,A,2023-11-21_09h18.36.615,exp3,2022.2.2,
,,,,,,,,,,,,,,,,,,,,,,,,0,2274,Valid,noise,-45,1,2.5219769002869725,0,1.0,3.8298554997891188,True,1,33,A,2023-11-21_09h18.36.615,exp3,2022.2.2,
,,,,,,,,,,,,,,,,,,,,,,,,0,1158,Valid,noise,-45,2,2.038292200304568,1,2.0,3.346428600139916,True,1,33,A,2023-11-21_09h18.36.615,exp3,2022.2.2,
,,,,,,,,,,,,,,,,,,,,,,,,0,-2274,Valid,signal,-45,2,2.5224198000505567,0,1.0,3.830206099897623,True,1,33,A,2023-11-21_09h18.36.615,exp3,2022.2.2,
,,,,,,,,,,,,,,,,,,,,,,,,0,-557,Valid,signal,45,1,2.6387446001172066,1,4.0,3.946649099700153,True,1,33,A,2023-11-21_09h18.36.615,exp3,2022.2.2,
,,,,,,,,,,,,,,,,,,,,,,,,0,557,Valid,signal,-45,1,1.7040543002076447,1,3.0,3.0122322998940945,True,1,33,A,2023-11-21_09h18.36.615,exp3,2022.2.2,
,,,,,,,,,,,,,,,,,,,,,,,,0,557,Valid,signal,-45,1,1.1055685998871922,1,3.0,2.413295099977404,True,1,33,A,2023-11-21_09h18.36.615,exp3,2022.2.2,
,,,,,,,,,,,,,,,,,,,,,,,,0,-557,Valid,noise,-45,2,1.83805779973045,1,3.0,3.145822699647397,True,1,33,A,2023-11-21_09h18.36.615,exp3,2022.2.2,
,,,,,,,,,,,,,,,,,,,,,,,,0,-2274,Valid,noise,45,2,2.5391788999550045,1,1.0,3.846819900441915,True,1,33,A,2023-11-21_09h18.36.615,exp3,2022.2.2,
,,,,,,,,,,,,,,,,,,,,,,,,0,557,Valid,signal,-45,1,1.737896699924022,1,3.0,3.045948699582368,True,1,33,A,2023-11-21_09h18.36.615,exp3,2022.2.2,
,,,,,,,,,,,,,,,,,,,,,,,,0,1716,Valid,noise,-45,2,1.9885053001344204,1,2.0,3.2964440998621285,True,1,33,A,2023-11-21_09h18.36.615,exp3,2022.2.2,
,,,,,,,,,,,,,,,,,,,,,,,,0,557,Valid,noise,-45,2,1.471433199942112,1,4.0,2.7792410999536514,True,1,33,A,2023-11-21_09h18.36.615,exp3,2022.2.2,
,,,,,,,,,,,,,,,,,,,,,,,,0,-557,Valid,noise,45,2,1.1721290997229517,1,4.0,2.4799453001469374,True,1,33,A,2023-11-21_09h18.36.615,exp3,2022.2.2,
,,,,,,,,,,,,,,,,,,,,,,,,0,1716,Valid,signal,45,2,1.9376626000739634,0,3.0,3.245711199939251,True,1,33,A,2023-11-21_09h18.36.615,exp3,2022.2.2,
,,,,,,,,,,,,,,,,,,,,,,,,0,2274,Valid,signal,-45,2,1.8556010997854173,0,3.0,3.1635790998116136,True,1,33,A,2023-11-21_09h18.36.615,exp3,2022.2.2,
,,,,,,,,,,,,,,,,,,,,,,,,0,1716,Valid,noise,45,2,1.8543565003201365,1,2.0,3.1624185000546277,True,1,33,A,2023-11-21_09h18.36.615,exp3,2022.2.2,
,,,,,,,,,,,,,,,,,,,,,,,,0,-1158,Valid,signal,45,1,1.3382681999355555,1,3.0,2.645768200047314,True,1,33,A,2023-11-21_09h18.36.615,exp3,2022.2.2,
,,,,,,,,,,,,,,,,,,,,,,,,0,-1716,Valid,signal,45,1,0.9717635000124574,1,3.0,2.279447500128299,True,1,33,A,2023-11-21_09h18.36.615,exp3,2022.2.2,
,,,,,,,,,,,,,,,,,,,,,,,,0,1158,Valid,signal,45,1,1.221007699612528,1,3.0,2.528986500110477,True,1,33,A,2023-11-21_09h18.36.615,exp3,2022.2.2,
,,,,,,,,,,,,,,,,,,,,,,,,0,2274,Valid,noise,45,2,1.605268099810928,1,1.0,2.913038299884647,True,1,33,A,2023-11-21_09h18.36.615,exp3,2022.2.2,
,,,,,,,,,,,,,,,,,,,,,,,,0,1716,Invalid,noise,45,2,3.4056995999999344,1,1.0,4.713606799952686,True,1,33,A,2023-11-21_09h18.36.615,exp3,2022.2.2,
,,,,,,,,,,,,,,,,,,,,,,,,0,-1158,Valid,noise,45,1,1.922181900124997,0,2.0,3.2298618997447193,True,1,33,A,2023-11-21_09h18.36.615,exp3,2022.2.2,
,,,,,,,,,,,,,,,,,,,,,,,,0,1158,Valid,noise,-45,2,1.4043454001657665,1,2.0,2.712336900178343,True,1,33,A,2023-11-21_09h18.36.615,exp3,2022.2.2,
,,,,,,,,,,,,,,,,,,,,,,,,0,-1716,Valid,signal,45,2,1.4217623998411,0,2.0,2.72961900010705,True,1,33,A,2023-11-21_09h18.36.615,exp3,2022.2.2,
,,,,,,,,,,,,,,,,,,,,,,,,0,557,Valid,signal,-45,1,1.6386807998642325,1,3.0,2.9463398000225425,True,1,33,A,2023-11-21_09h18.36.615,exp3,2022.2.2,
,,,,,,,,,,,,,,,,,,,,,,,,0,-557,Valid,signal,-45,1,1.9713734001852572,1,4.0,3.279387599788606,True,1,33,A,2023-11-21_09h18.36.615,exp3,2022.2.2,
,,,,,,,,,,,,,,,,,,,,,,,,0,1158,Valid,signal,45,1,1.0047042001970112,1,4.0,2.3126074001193047,True,1,33,A,2023-11-21_09h18.36.615,exp3,2022.2.2,
,,,,,,,,,,,,,,,,,,,,,,,,0,1158,Valid,signal,45,1,1.2874564002268016,1,4.0,2.5955651998519897,True,1,33,A,2023-11-21_09h18.36.615,exp3,2022.2.2,
,,,,,,,,,,,,,,,,,,,,,,,,0,-1716,Valid,noise,45,2,1.7383991000242531,1,2.0,3.0462036998942494,True,1,33,A,2023-11-21_09h18.36.615,exp3,2022.2.2,
,,,,,,,,,,,,,,,,,,,,,,,,0,-1716,Valid,noise,45,2,1.8888106998056173,1,2.0,3.1965095000341535,True,1,33,A,2023-11-21_09h18.36.615,exp3,2022.2.2,
,,,,,,,,,,,,,,,,,,,,,,,,0,557,Valid,noise,45,2,1.7049977998249233,1,3.0,3.0128658995963633,True,1,33,A,2023-11-21_09h18.36.615,exp3,2022.2.2,
,,,,,,,,,,,,,,,,,,,,,,,,0,-557,Valid,noise,-45,2,1.6051906002685428,1,3.0,2.912974199745804,True,1,33,A,2023-11-21_09h18.36.615,exp3,2022.2.2,
,,,,,,,,,,,,,,,,,,,,,,,,0,-1158,Valid,signal,-45,1,1.0543080000206828,1,3.0,2.3621040997095406,True,1,33,A,2023-11-21_09h18.36.615,exp3,2022.2.2,
,,,,,,,,,,,,,,,,,,,,,,,,0,-557,Valid,signal,-45,1,1.694035000167787,1,3.0,6.097592300269753,True,2,33,A,2023-11-21_09h18.36.615,exp3,2022.2.2,
,,,,,,,,,,,,,,,,,,,,,,,,0,1716,Valid,noise,45,2,1.8554961998015642,1,2.0,3.1632121996954083,True,1,33,A,2023-11-21_09h18.36.615,exp3,2022.2.2,
,,,,,,,,,,,,,,,,,,,,,,,,0,1158,Invalid,noise,45,1,1.655404900200665,0,2.0,2.9631413999013603,True,1,33,A,2023-11-21_09h18.36.615,exp3,2022.2.2,
,,,,,,,,,,,,,,,,,,,,,,,,0,2274,Valid,signal,45,1,3.3717808998189867,1,2.0,4.679834300186485,True,1,33,A,2023-11-21_09h18.36.615,exp3,2022.2.2,
,,,,,,,,,,,,,,,,,,,,,,,,0,-1716,Invalid,signal,45,2,1.4209587997756898,0,2.0,2.7287135999649763,True,1,33,A,2023-11-21_09h18.36.615,exp3,2022.2.2,
,,,,,,,,,,,,,,,,,,,,,,,,0,1158,Invalid,signal,45,1,1.788310999982059,1,4.0,3.0964399999938905,True,1,33,A,2023-11-21_09h18.36.615,exp3,2022.2.2,
,,,,,,,,,,,,,,,,,,,,,,,,0,-1158,Invalid,noise,-45,2,1.7555593997240067,1,2.0,3.063215000089258,True,1,33,A,2023-11-21_09h18.36.615,exp3,2022.2.2,
,,,,,,,,,,,,,,,,,,,,,,,,0,557,Invalid,noise,-45,2,1.9385772999376059,1,3.0,3.24618239980191,True,1,33,A,2023-11-21_09h18.36.615,exp3,2022.2.2,
,,,,,,,,,,,,,,,,,,,,,,,,0,-1158,Valid,signal,-45,1,1.6717896000482142,1,4.0,2.979249599855393,True,1,33,A,2023-11-21_09h18.36.615,exp3,2022.2.2,
,,,,,,,,,,,,,,,,,,,,,,,,0,-1716,Valid,signal,45,1,1.6219687000848353,1,3.0,2.929810999892652,True,1,33,A,2023-11-21_09h18.36.615,exp3,2022.2.2,
,,,,,,,,,,,,,,,,,,,,,,,,0,1158,Valid,signal,-45,1,0.9542821999639273,1,3.0,2.2620431003160775,True,1,33,A,2023-11-21_09h18.36.615,exp3,2022.2.2,
,,,,,,,,,,,,,,,,,,,,,,,,0,1158,Valid,signal,-45,1,1.0212669000029564,1,3.0,2.3291222997941077,True,1,33,A,2023-11-21_09h18.36.615,exp3,2022.2.2,
,,,,,,,,,,,,,,,,,,,,,,,,0,-1158,Valid,noise,45,1,2.005530799739063,0,2.0,3.3131635999307036,True,1,33,A,2023-11-21_09h18.36.615,exp3,2022.2.2,
,,,,,,,,,,,,,,,,,,,,,,,,0,-1716,Valid,signal,-45,1,1.1220031999982893,1,2.0,2.429758199956268,True,1,33,A,2023-11-21_09h18.36.615,exp3,2022.2.2,
,,,,,,,,,,,,,,,,,,,,,,,,0,-2274,Valid,noise,45,2,1.5548876002430916,1,1.0,2.862635700032115,True,1,33,A,2023-11-21_09h18.36.615,exp3,2022.2.2,
,,,,,,,,,,,,,,,,,,,,,,,,0,557,Valid,noise,45,2,2.0711616999469697,1,3.0,3.3789629000239074,True,1,33,A,2023-11-21_09h18.36.615,exp3,2022.2.2,
,,,,,,,,,,,,,,,,,,,,,,,,0,-1716,Valid,noise,-45,2,1.389039000030607,1,2.0,2.6967042996548116,True,1,33,A,2023-11-21_09h18.36.615,exp3,2022.2.2,
,,,,,,,,,,,,,,,,,,,,,,,,0,557,Valid,noise,45,2,1.922001600265503,1,3.0,3.229620599653572,True,1,33,A,2023-11-21_09h18.36.615,exp3,2022.2.2,
,,,,,,,,,,,,,,,,,,,,,,,,0,557,Valid,noise,45,2,1.237989699933678,1,3.0,2.54563059983775,True,1,33,A,2023-11-21_09h18.36.615,exp3,2022.2.2,
,,,,,,,,,,,,,,,,,,,,,,,,0,-2274,Valid,signal,45,2,1.5713232001289725,0,1.0,2.87925919983536,True,1,33,A,2023-11-21_09h18.36.615,exp3,2022.2.2,
,,,,,,,,,,,,,,,,,,,,,,,,0,2274,Valid,signal,45,2,1.1053243996575475,0,1.0,2.4128612000495195,True,1,33,A,2023-11-21_09h18.36.615,exp3,2022.2.2,
,,,,,,,,,,,,,,,,,,,,,,,,0,-2274,Valid,signal,45,2,1.2376886000856757,0,2.0,2.5455670999363065,True,1,33,A,2023-11-21_09h18.36.615,exp3,2022.2.2,
,,,,,,,,,,,,,,,,,,,,,,,,0,1716,Valid,signal,-45,2,0.8884457000531256,0,2.0,2.1958992001600564,True,1,33,A,2023-11-21_09h18.36.615,exp3,2022.2.2,
,,,,,,,,,,,,,,,,,,,,,,,,0,557,Valid,noise,45,2,1.6385625000111759,1,3.0,2.9461860000155866,True,1,33,A,2023-11-21_09h18.36.615,exp3,2022.2.2,
,,,,,,,,,,,,,,,,,,,,,,,,0,-1716,Invalid,noise,-45,2,1.2715909001417458,1,2.0,2.5793415000662208,True,1,33,A,2023-11-21_09h18.36.615,exp3,2022.2.2,
,,,,,,,,,,,,,,,,,,,,,,,,0,1716,Invalid,noise,-45,2,2.5723045002669096,1,1.0,3.879882900044322,True,1,33,A,2023-11-21_09h18.36.615,exp3,2022.2.2,
,,,,,,,,,,,,,,,,,,,,,,,,0,-557,Invalid,signal,-45,1,1.7379844998940825,1,4.0,3.045826999936253,True,1,33,A,2023-11-21_09h18.36.615,exp3,2022.2.2,
,,,,,,,,,,,,,,,,,,,,,,,,1,1158,Valid,signal,45,1,1.8186837998218834,1,3.0,5.734422499779612,True,2,33,A,2023-11-21_09h18.36.615,exp3,2022.2.2,
,,,,,,,,,,,,,,,,,,,,,,,,2,-2274,Valid,signal,-45,2,1.2384677999652922,0,2.0,2.5465126000344753,True,1,33,A,2023-11-21_09h18.36.615,exp3,2022.2.2,
,,,,,,,,,,,,,,,,,,,,,,,,3,1158,Valid,signal,45,1,0.8874271996319294,1,3.0,2.1953719002194703,True,1,33,A,2023-11-21_09h18.36.615,exp3,2022.2.2,
,,,,,,,,,,,,,,,,,,,,,,,,4,557,Valid,noise,-45,2,2.1722090002149343,1,4.0,3.480346199590713,True,1,33,A,2023-11-21_09h18.36.615,exp3,2022.2.2,
,,,,,,,,,,,,,,,,,,,,,,,,5,1158,Valid,noise,-45,2,1.571342899929732,1,2.0,2.879398100078106,True,1,33,A,2023-11-21_09h18.36.615,exp3,2022.2.2,
,,,,,,,,,,,,,,,,,,,,,,,,6,557,Valid,signal,-45,1,4.805052500218153,1,3.0,6.113583799917251,True,1,33,A,2023-11-21_09h18.36.615,exp3,2022.2.2,
,,,,,,,,,,,,,,,,,,,,,,,,7,2274,Valid,noise,-45,2,1.4544997001066804,1,2.0,2.762565600220114,True,1,33,A,2023-11-21_09h18.36.615,exp3,2022.2.2,
,,,,,,,,,,,,,,,,,,,,,,,,8,-2274,Valid,noise,-45,2,1.5378934000618756,1,2.0,2.8460709997452796,True,1,33,A,2023-11-21_09h18.36.615,exp3,2022.2.2,
,,,,,,,,,,,,,,,,,,,,,,,,9,-557,Valid,noise,-45,2,1.8384045995771885,1,4.0,3.1467458000406623,True,1,33,A,2023-11-21_09h18.36.615,exp3,2022.2.2,
,,,,,,,,,,,,,,,,,,,,,,,,10,557,Valid,noise,45,2,0.7873614998534322,1,4.0,2.095533300191164,True,1,33,A,2023-11-21_09h18.36.615,exp3,2022.2.2,
,,,,,,,,,,,,,,,,,,,,,,,,11,2274,Valid,signal,-45,2,2.5053210998885334,0,2.0,3.8138970001600683,True,1,33,A,2023-11-21_09h18.36.615,exp3,2022.2.2,
,,,,,,,,,,,,,,,,,,,,,,,,12,557,Valid,noise,45,2,1.3385184002108872,1,4.0,2.646679099649191,True,1,33,A,2023-11-21_09h18.36.615,exp3,2022.2.2,
,,,,,,,,,,,,,,,,,,,,,,,,13,-557,Invalid,noise,-45,2,2.188208400271833,1,3.0,3.4960892000235617,True,1,33,A,2023-11-21_09h18.36.615,exp3,2022.2.2,
,,,,,,,,,,,,,,,,,,,,,,,,14,-557,Valid,signal,45,1,1.1207031002268195,1,4.0,2.428980399854481,True,1,33,A,2023-11-21_09h18.36.615,exp3,2022.2.2,
,,,,,,,,,,,,,,,,,,,,,,,,15,-1158,Valid,signal,45,1,1.0208492004312575,1,4.0,2.3291585999540985,True,1,33,A,2023-11-21_09h18.36.615,exp3,2022.2.2,
,,,,,,,,,,,,,,,,,,,,,,,,16,2274,Invalid,signal,-45,2,2.204546700231731,0,2.0,3.513466800097376,True,1,33,A,2023-11-21_09h18.36.615,exp3,2022.2.2,
,,,,,,,,,,,,,,,,,,,,,,,,17,1158,Invalid,noise,45,2,2.071373699698597,1,2.0,3.379429599735886,True,1,33,A,2023-11-21_09h18.36.615,exp3,2022.2.2,
,,,,,,,,,,,,,,,,,,,,,,,,18,-2274,Valid,noise,45,1,1.5545618003234267,0,1.0,2.8625941001810133,True,1,33,A,2023-11-21_09h18.36.615,exp3,2022.2.2,
,,,,,,,,,,,,,,,,,,,,,,,,19,1716,Invalid,signal,45,1,1.5215706997551024,1,3.0,2.829838899895549,True,1,33,A,2023-11-21_09h18.36.615,exp3,2022.2.2,
,,,,,,,,,,,,,,,,,,,,,,,,20,-1716,Valid,signal,-45,1,1.252951200120151,1,3.0,2.5618095002137125,True,1,33,A,2023-11-21_09h18.36.615,exp3,2022.2.2,
,,,,,,,,,,,,,,,,,,,,,,,,21,557,Valid,noise,-45,2,2.0388711001724005,1,2.0,3.346958899870515,True,1,33,A,2023-11-21_09h18.36.615,exp3,2022.2.2,
,,,,,,,,,,,,,,,,,,,,,,,,22,-2274,Valid,noise,45,1,3.0878894003108144,0,1.0,4.396209900267422,True,1,33,A,2023-11-21_09h18.36.615,exp3,2022.2.2,
,,,,,,,,,,,,,,,,,,,,,,,,23,1158,Valid,noise,45,2,7.00685240002349,1,1.0,8.314750799909234,True,1,33,A,2023-11-21_09h18.36.615,exp3,2022.2.2,
,,,,,,,,,,,,,,,,,,,,,,,,24,557,Invalid,signal,-45,1,3.1854004999622703,1,3.0,8.114560599904507,True,2,33,A,2023-11-21_09h18.36.615,exp3,2022.2.2,
,,,,,,,,,,,,,,,,,,,,,,,,25,-557,Valid,signal,-45,1,1.3378155999816954,1,4.0,2.6464124000631273,True,1,33,A,2023-11-21_09h18.36.615,exp3,2022.2.2,
,,,,,,,,,,,,,,,,,,,,,,,,26,-1716,Valid,signal,-45,1,1.7377128000371158,1,2.0,3.045873099938035,True,1,33,A,2023-11-21_09h18.36.615,exp3,2022.2.2,
,,,,,,,,,,,,,,,,,,,,,,,,27,-1716,Valid,signal,-45,1,1.0714290998876095,1,2.0,2.379690000321716,True,1,33,A,2023-11-21_09h18.36.615,exp3,2022.2.2,
,,,,,,,,,,,,,,,,,,,,,,,,28,1716,Invalid,noise,-45,2,1.555372899863869,1,2.0,2.8635276001878083,True,1,33,A,2023-11-21_09h18.36.615,exp3,2022.2.2,
,,,,,,,,,,,,,,,,,,,,,,,,29,557,Valid,signal,-45,1,1.0535228997468948,1,3.0,2.3619200997054577,True,1,33,A,2023-11-21_09h18.36.615,exp3,2022.2.2,
,,,,,,,,,,,,,,,,,,,,,,,,30,-1716,Valid,noise,-45,2,1.7049584998749197,1,2.0,3.0129896998405457,True,1,33,A,2023-11-21_09h18.36.615,exp3,2022.2.2,
,,,,,,,,,,,,,,,,,,,,,,,,31,2274,Valid,signal,-45,2,2.6549885999411345,0,3.0,3.9630384002812207,True,1,33,A,2023-11-21_09h18.36.615,exp3,2022.2.2,
,,,,,,,,,,,,,,,,,,,,,,,,32,2274,Valid,noise,45,2,2.304311300162226,1,2.0,3.6127308001741767,True,1,33,A,2023-11-21_09h18.36.615,exp3,2022.2.2,
,,,,,,,,,,,,,,,,,,,,,,,,33,-557,Invalid,signal,-45,1,1.404854599852115,1,4.0,2.7131473999470472,True,1,33,A,2023-11-21_09h18.36.615,exp3,2022.2.2,
,,,,,,,,,,,,,,,,,,,,,,,,34,1158,Valid,signal,45,1,1.038247900083661,1,4.0,2.346320300363004,True,1,33,A,2023-11-21_09h18.36.615,exp3,2022.2.2,
,,,,,,,,,,,,,,,,,,,,,,,,35,-1716,Valid,noise,-45,2,2.121080200187862,1,3.0,3.4292784999124706,True,1,33,A,2023-11-21_09h18.36.615,exp3,2022.2.2,
,,,,,,,,,,,,,,,,,,,,,,,,36,-1716,Invalid,noise,-45,2,2.054499499965459,1,2.0,3.3627325003035367,True,1,33,A,2023-11-21_09h18.36.615,exp3,2022.2.2,
,,,,,,,,,,,,,,,,,,,,,,,,37,1716,Valid,signal,-45,2,1.5383975999429822,0,2.0,2.8465972002595663,True,1,33,A,2023-11-21_09h18.36.615,exp3,2022.2.2,
,,,,,,,,,,,,,,,,,,,,,,,,38,557,Valid,signal,-45,1,1.5051412000320852,1,4.0,2.8129875999875367,True,1,33,A,2023-11-21_09h18.36.615,exp3,2022.2.2,
,,,,,,,,,,,,,,,,,,,,,,,,39,-557,Valid,noise,45,2,1.0041033998131752,1,4.0,2.3124425001442432,True,1,33,A,2023-11-21_09h18.36.615,exp3,2022.2.2,
,,,,,,,,,,,,,,,,,,,,,,,,40,-1716,Valid,noise,-45,2,1.6878538997843862,1,2.0,2.9959428999572992,True,1,33,A,2023-11-21_09h18.36.615,exp3,2022.2.2,
,,,,,,,,,,,,,,,,,,,,,,,,41,-2274,Valid,noise,-45,2,0.9882883001118898,1,2.0,2.2963144998066127,True,1,33,A,2023-11-21_09h18.36.615,exp3,2022.2.2,
,,,,,,,,,,,,,,,,,,,,,,,,42,1158,Valid,noise,45,2,1.1043670000508428,1,3.0,2.4125150996260345,True,1,33,A,2023-11-21_09h18.36.615,exp3,2022.2.2,
,,,,,,,,,,,,,,,,,,,,,,,,43,1716,Valid,noise,45,2,1.0040592001751065,1,2.0,2.3123312001116574,True,1,33,A,2023-11-21_09h18.36.615,exp3,2022.2.2,
,,,,,,,,,,,,,,,,,,,,,,,,44,1716,Valid,noise,45,2,1.421260999981314,1,2.0,2.7294164998456836,True,1,33,A,2023-11-21_09h18.36.615,exp3,2022.2.2,
,,,,,,,,,,,,,,,,,,,,,,,,45,-557,Valid,noise,45,2,4.022549800109118,1,3.0,5.330703900195658,True,1,33,A,2023-11-21_09h18.36.615,exp3,2022.2.2,
,,,,,,,,,,,,,,,,,,,,,,,,46,1716,Valid,noise,-45,1,1.8545315000228584,0,1.0,3.162649199832231,True,1,33,A,2023-11-21_09h18.36.615,exp3,2022.2.2,
,,,,,,,,,,,,,,,,,,,,,,,,47,-1716,Valid,signal,-45,1,1.670632100198418,1,4.0,2.9792152997106314,True,1,33,A,2023-11-21_09h18.36.615,exp3,2022.2.2,
,,,,,,,,,,,,,,,,,,,,,,,,48,1158,Invalid,noise,45,2,1.6044741999357939,1,2.0,2.9128482001833618,True,1,33,A,2023-11-21_09h18.36.615,exp3,2022.2.2,
,,,,,,,,,,,,,,,,,,,,,,,,49,557,Valid,noise,45,2,2.822468699887395,1,3.0,4.130458700004965,True,1,33,A,2023-11-21_09h18.36.615,exp3,2022.2.2,
,,,,,,,,,,,,,,,,,,,,,,,,50,-1716,Valid,noise,-45,2,1.2540192999877036,1,2.0,2.562811499927193,True,1,33,A,2023-11-21_09h18.36.615,exp3,2022.2.2,
,,,,,,,,,,,,,,,,,,,,,,,,51,-557,Valid,signal,-45,1,1.2706265999004245,1,4.0,2.5787633997388184,True,1,33,A,2023-11-21_09h18.36.615,exp3,2022.2.2,
,,,,,,,,,,,,,,,,,,,,,,,,52,557,Valid,noise,-45,2,1.855057899840176,1,3.0,3.1633107997477055,True,1,33,A,2023-11-21_09h18.36.615,exp3,2022.2.2,
,,,,,,,,,,,,,,,,,,,,,,,,53,1716,Valid,noise,-45,2,2.137545000296086,1,2.0,3.445880599785596,True,1,33,A,2023-11-21_09h18.36.615,exp3,2022.2.2,
,,,,,,,,,,,,,,,,,,,,,,,,54,-1158,Valid,noise,-45,1,2.9550835001282394,0,1.0,4.263325000181794,True,1,33,A,2023-11-21_09h18.36.615,exp3,2022.2.2,
,,,,,,,,,,,,,,,,,,,,,,,,55,1716,Valid,signal,-45,2,2.771866099908948,0,2.0,4.080145999789238,True,1,33,A,2023-11-21_09h18.36.615,exp3,2022.2.2,
,,,,,,,,,,,,,,,,,,,,,,,,56,-1716,Valid,signal,-45,1,1.254625900182873,1,3.0,2.562762400135398,True,1,33,A,2023-11-21_09h18.36.615,exp3,2022.2.2,
,,,,,,,,,,,,,,,,,,,,,,,,57,2274,Valid,signal,45,2,1.2047306997701526,0,1.0,2.5128647997044027,True,1,33,A,2023-11-21_09h18.36.615,exp3,2022.2.2,
,,,,,,,,,,,,,,,,,,,,,,,,58,1716,Valid,noise,45,2,1.1380409998819232,1,2.0,2.446067899931222,True,1,33,A,2023-11-21_09h18.36.615,exp3,2022.2.2,
,,,,,,,,,,,,,,,,,,,,,,,,59,-2274,Valid,noise,-45,2,1.454182299785316,1,1.0,2.762374899815768,True,1,33,A,2023-11-21_09h18.36.615,exp3,2022.2.2,
,,,,,,,,,,,,,,,,,,,,,,,,60,557,Valid,noise,45,2,1.337378100026399,1,4.0,2.6458525001071393,True,1,33,A,2023-11-21_09h18.36.615,exp3,2022.2.2,
,,,,,,,,,,,,,,,,,,,,,,,,61,557,Valid,signal,-45,1,1.1543701998889446,1,4.0,2.462768899742514,True,1,33,A,2023-11-21_09h18.36.615,exp3,2022.2.2,
,,,,,,,,,,,,,,,,,,,,,,,,62,-557,Valid,signal,-45,1,1.1373623004183173,1,4.0,2.445714899804443,True,1,33,A,2023-11-21_09h18.36.615,exp3,2022.2.2,
,,,,,,,,,,,,,,,,,,,,,,,,63,-1716,Valid,noise,45,1,1.6715571000240743,0,2.0,2.979972400236875,True,1,33,A,2023-11-21_09h18.36.615,exp3,2022.2.2,
,,,,,,,,,,,,,,,,,,,,,,,,64,-1716,Invalid,signal,-45,2,1.8878353000618517,0,2.0,3.1962570999749005,True,1,33,A,2023-11-21_09h18.36.615,exp3,2022.2.2,
,,,,,,,,,,,,,,,,,,,,,,,,65,-1158,Invalid,noise,-45,1,2.2216437999159098,0,1.0,3.5297640999779105,True,1,33,A,2023-11-21_09h18.36.615,exp3,2022.2.2,
,,,,,,,,,,,,,,,,,,,,,,,,66,-2274,Valid,noise,-45,2,0.8377806995995343,1,1.0,2.14611619990319,True,1,33,A,2023-11-21_09h18.36.615,exp3,2022.2.2,
,,,,,,,,,,,,,,,,,,,,,,,,67,2274,Valid,noise,45,2,1.1712309001013637,1,2.0,2.4794581001624465,True,1,33,A,2023-11-21_09h18.36.615,exp3,2022.2.2,
,,,,,,,,,,,,,,,,,,,,,,,,68,1716,Valid,signal,-45,2,1.570831899996847,0,3.0,2.8790359999984503,True,1,33,A,2023-11-21_09h18.36.615,exp3,2022.2.2,
,,,,,,,,,,,,,,,,,,,,,,,,69,557,Valid,signal,-45,1,1.8385875998064876,1,4.0,3.1466489997692406,True,1,33,A,2023-11-21_09h18.36.615,exp3,2022.2.2,
,,,,,,,,,,,,,,,,,,,,,,,,70,1158,Valid,noise,45,2,1.5044239000417292,1,2.0,2.812452800106257,True,1,33,A,2023-11-21_09h18.36.615,exp3,2022.2.2,
,,,,,,,,,,,,,,,,,,,,,,,,71,-1716,Valid,noise,-45,1,2.404999800026417,0,1.0,3.713010899722576,True,1,33,A,2023-11-21_09h18.36.615,exp3,2022.2.2,
,,,,,,,,,,,,,,,,,,,,,,,,72,1716,Valid,noise,-45,2,1.9544544997625053,1,2.0,3.262895899824798,True,1,33,A,2023-11-21_09h18.36.615,exp3,2022.2.2,
,,,,,,,,,,,,,,,,,,,,,,,,73,2274,Valid,signal,-45,2,1.8710302002727985,0,1.0,3.179427099879831,True,1,33,A,2023-11-21_09h18.36.615,exp3,2022.2.2,
,,,,,,,,,,,,,,,,,,,,,,,,74,2274,Valid,signal,45,2,1.8551452001556754,0,1.0,3.1631984999403358,True,1,33,A,2023-11-21_09h18.36.615,exp3,2022.2.2,
,,,,,,,,,,,,,,,,,,,,,,,,75,-1158,Valid,signal,45,1,0.7373625002801418,1,3.0,2.045673899818212,True,1,33,A,2023-11-21_09h18.36.615,exp3,2022.2.2,
,,,,,,,,,,,,,,,,,,,,,,,,76,1716,Valid,signal,-45,2,1.8054745998233557,0,2.0,3.113530999980867,True,1,33,A,2023-11-21_09h18.36.615,exp3,2022.2.2,
,,,,,,,,,,,,,,,,,,,,,,,,77,2274,Valid,noise,45,2,1.570728300139308,1,3.0,2.878968299832195,True,1,33,A,2023-11-21_09h18.36.615,exp3,2022.2.2,
,,,,,,,,,,,,,,,,,,,,,,,,78,-2274,Valid,signal,45,1,1.3881195997819304,1,2.0,2.696273900102824,True,1,33,A,2023-11-21_09h18.36.615,exp3,2022.2.2,
,,,,,,,,,,,,,,,,,,,,,,,,79,1158,Valid,noise,-45,2,1.4209038997069001,1,2.0,2.7291433000937104,True,1,33,A,2023-11-21_09h18.36.615,exp3,2022.2.2,
,,,,,,,,,,,,,,,,,,,,,,,,80,-557,Invalid,signal,-45,1,1.3049920997582376,1,4.0,2.612865900155157,True,1,33,A,2023-11-21_09h18.36.615,exp3,2022.2.2,
,,,,,,,,,,,,,,,,,,,,,,,,81,2274,Valid,noise,45,2,1.454025899991393,1,2.0,2.762215900234878,True,1,33,A,2023-11-21_09h18.36.615,exp3,2022.2.2,
,,,,,,,,,,,,,,,,,,,,,,,,82,-2274,Invalid,signal,-45,2,0.9383805003017187,0,2.0,2.2465551998466253,True,1,33,A,2023-11-21_09h18.36.615,exp3,2022.2.2,
,,,,,,,,,,,,,,,,,,,,,,,,83,-557,Valid,noise,-45,2,1.3879046998918056,1,3.0,2.6960796997882426,True,1,33,A,2023-11-21_09h18.36.615,exp3,2022.2.2,
,,,,,,,,,,,,,,,,,,,,,,,,84,-1158,Invalid,signal,45,1,1.287199200130999,1,4.0,2.595383800100535,True,1,33,A,2023-11-21_09h18.36.615,exp3,2022.2.2,
,,,,,,,,,,,,,,,,,,,,,,,,85,-557,Valid,signal,-45,1,0.8045057002454996,1,4.0,2.112510200124234,True,1,33,A,2023-11-21_09h18.36.615,exp3,2022.2.2,
,,,,,,,,,,,,,,,,,,,,,,,,86,2274,Invalid,noise,45,2,2.238303099758923,1,2.0,3.5465032001957297,True,1,33,A,2023-11-21_09h18.36.615,exp3,2022.2.2,
,,,,,,,,,,,,,,,,,,,,,,,,87,2274,Valid,signal,-45,2,2.6219946001656353,0,1.0,3.930148100014776,True,1,33,A,2023-11-21_09h18.36.615,exp3,2022.2.2,
,,,,,,,,,,,,,,,,,,,,,,,,88,1158,Valid,noise,-45,1,1.071164600085467,0,2.0,2.3791322000324726,True,1,33,A,2023-11-21_09h18.36.615,exp3,2022.2.2,
,,,,,,,,,,,,,,,,,,,,,,,,89,1158,Valid,signal,45,1,0.9707952998578548,1,3.0,2.2789552002213895,True,1,33,A,2023-11-21_09h18.36.615,exp3,2022.2.2,
,,,,,,,,,,,,,,,,,,,,,,,,90,-1716,Invalid,signal,-45,2,1.037033200263977,0,2.0,2.3451165999285877,True,1,33,A,2023-11-21_09h18.36.615,exp3,2022.2.2,
,,,,,,,,,,,,,,,,,,,,,,,,91,1716,Valid,signal,-45,2,1.154799500014633,0,2.0,2.463086800184101,True,1,33,A,2023-11-21_09h18.36.615,exp3,2022.2.2,
,,,,,,,,,,,,,,,,,,,,,,,,92,-557,Valid,signal,45,1,1.4713607002049685,1,4.0,2.7794332997873425,True,1,33,A,2023-11-21_09h18.36.615,exp3,2022.2.2,
,,,,,,,,,,,,,,,,,,,,,,,,93,-1716,Valid,signal,45,1,1.0376520999707282,1,4.0,2.3459628000855446,True,1,33,A,2023-11-21_09h18.36.615,exp3,2022.2.2,
,,,,,,,,,,,,,,,,,,,,,,,,94,-557,Valid,signal,45,1,1.1539960000663996,1,4.0,2.4619718003086746,True,1,33,A,2023-11-21_09h18.36.615,exp3,2022.2.2,
,,,,,,,,,,,,,,,,,,,,,,,,95,2274,Valid,noise,-45,2,1.4553952999413013,1,2.0,2.763542499858886,True,1,33,A,2023-11-21_09h18.36.615,exp3,2022.2.2,
,,,,,,,,,,,,,,,,,,,,,,,,96,2274,Valid,signal,45,2,0.936805899720639,0,2.0,2.245383100118488,True,1,33,A,2023-11-21_09h18.36.615,exp3,2022.2.2,
,,,,,,,,,,,,,,,,,,,,,,,,97,1158,Valid,noise,-45,2,3.5719848996959627,1,2.0,4.880481999833137,True,1,33,A,2023-11-21_09h18.36.615,exp3,2022.2.2,
,,,,,,,,,,,,,,,,,,,,,,,,98,-2274,Valid,noise,45,2,1.437655699905008,1,1.0,2.745965200010687,True,1,33,A,2023-11-21_09h18.36.615,exp3,2022.2.2,
,,,,,,,,,,,,,,,,,,,,,,,,99,2274,Invalid,noise,45,2,3.1385186999104917,1,1.0,4.446836200077087,True,1,33,A,2023-11-21_09h18.36.615,exp3,2022.2.2,
,,,,,,,,,,,,,,,,,,,,,,,,100,-2274,Invalid,noise,45,2,3.1392282997258008,1,1.0,4.447421800345182,True,1,33,A,2023-11-21_09h18.36.615,exp3,2022.2.2,
,,,,,,,,,,,,,,,,,,,,,,,,101,-2274,Valid,signal,45,2,0.8536007003858685,0,1.0,2.161830299999565,True,1,33,A,2023-11-21_09h18.36.615,exp3,2022.2.2,
,,,,,,,,,,,,,,,,,,,,,,,,102,-2274,Valid,signal,45,1,0.504038100130856,1,1.0,1.812222700100392,True,1,33,A,2023-11-21_09h18.36.615,exp3,2022.2.2,
,,,,,,,,,,,,,,,,,,,,,,,,103,2274,Valid,signal,45,2,1.0543207000009716,0,1.0,2.362678200006485,True,1,33,A,2023-11-21_09h18.36.615,exp3,2022.2.2,
,,,,,,,,,,,,,,,,,,,,,,,,104,1158,Valid,noise,45,2,1.322037999983877,1,1.0,2.6299208998680115,True,1,33,A,2023-11-21_09h18.36.615,exp3,2022.2.2,
,,,,,,,,,,,,,,,,,,,,,,,,105,-1716,Valid,noise,45,2,1.3709066999144852,1,2.0,2.679039499722421,True,1,33,A,2023-11-21_09h18.36.615,exp3,2022.2.2,
,,,,,,,,,,,,,,,,,,,,,,,,106,-1158,Valid,signal,-45,1,1.0214392999187112,1,4.0,2.3293976997956634,True,1,33,A,2023-11-21_09h18.36.615,exp3,2022.2.2,
,,,,,,,,,,,,,,,,,,,,,,,,107,-557,Valid,signal,-45,1,3.9054179000668228,1,4.0,5.213619099929929,True,1,33,A,2023-11-21_09h18.36.615,exp3,2022.2.2,
,,,,,,,,,,,,,,,,,,,,,,,,108,-1158,Valid,noise,45,2,2.5718002999201417,1,2.0,3.879737100098282,True,1,33,A,2023-11-21_09h18.36.615,exp3,2022.2.2,
,,,,,,,,,,,,,,,,,,,,,,,,109,-1158,Valid,signal,-45,1,1.3535998999141157,1,3.0,2.6620851000770926,True,1,33,A,2023-11-21_09h18.36.615,exp3,2022.2.2,
,,,,,,,,,,,,,,,,,,,,,,,,110,1716,Valid,noise,45,2,0.9718380998820066,1,2.0,2.279954200144857,True,1,33,A,2023-11-21_09h18.36.615,exp3,2022.2.2,
,,,,,,,,,,,,,,,,,,,,,,,,111,-557,Valid,noise,45,2,0.8875644002109766,1,2.0,2.195622999686748,True,1,33,A,2023-11-21_09h18.36.615,exp3,2022.2.2,
,,,,,,,,,,,,,,,,,,,,,,,,112,-1158,Valid,noise,-45,2,1.9043729999102652,1,3.0,3.2125253002159297,True,1,33,A,2023-11-21_09h18.36.615,exp3,2022.2.2,
,,,,,,,,,,,,,,,,,,,,,,,,113,-1716,Invalid,noise,-45,2,1.9047314999625087,1,1.0,3.212929700035602,True,1,33,A,2023-11-21_09h18.36.615,exp3,2022.2.2,
,,,,,,,,,,,,,,,,,,,,,,,,114,1158,Valid,signal,45,1,1.4377125999890268,1,3.0,2.74602930014953,True,1,33,A,2023-11-21_09h18.36.615,exp3,2022.2.2,
,,,,,,,,,,,,,,,,,,,,,,,,115,-557,Valid,noise,-45,1,3.1556815998628736,0,1.0,4.463685299735516,True,1,33,A,2023-11-21_09h18.36.615,exp3,2022.2.2,
,,,,,,,,,,,,,,,,,,,,,,,,116,1158,Valid,signal,-45,1,2.2040694998577237,1,4.0,3.512582399882376,True,1,33,A,2023-11-21_09h18.36.615,exp3,2022.2.2,
,,,,,,,,,,,,,,,,,,,,,,,,117,-1716,Valid,noise,45,2,2.0719238999299705,1,2.0,3.3800420998595655,True,1,33,A,2023-11-21_09h18.36.615,exp3,2022.2.2,
,,,,,,,,,,,,,,,,,,,,,,,,118,1158,Invalid,signal,45,1,1.5539345000870526,1,4.0,2.8621902000159025,True,1,33,A,2023-11-21_09h18.36.615,exp3,2022.2.2,
,,,,,,,,,,,,,,,,,,,,,,,,119,-557,Valid,noise,45,2,1.2049865000881255,1,4.0,2.512988599948585,True,1,33,A,2023-11-21_09h18.36.615,exp3,2022.2.2,
,,,,,,,,,,,,,,,,,,,,,,,,120,-1158,Valid,noise,-45,2,1.171291199978441,1,4.0,2.479401200078428,True,1,33,A,2023-11-21_09h18.36.615,exp3,2022.2.2,
,,,,,,,,,,,,,,,,,,,,,,,,121,1158,Valid,signal,45,1,0.9379119998775423,1,4.0,2.2458870001137257,True,1,33,A,2023-11-21_09h18.36.615,exp3,2022.2.2,
,,,,,,,,,,,,,,,,,,,,,,,,122,1716,Valid,signal,45,2,1.5541167999617755,0,2.0,2.862280000001192,True,1,33,A,2023-11-21_09h18.36.615,exp3,2022.2.2,
,,,,,,,,,,,,,,,,,,,,,,,,123,557,Valid,signal,-45,1,1.5379774002358317,1,4.0,2.8462362000718713,True,1,33,A,2023-11-21_09h18.36.615,exp3,2022.2.2,
,,,,,,,,,,,,,,,,,,,,,,,,124,-2274,Valid,signal,45,2,1.8721612999215722,0,2.0,3.1801634998992085,True,1,33,A,2023-11-21_09h18.36.615,exp3,2022.2.2,
,,,,,,,,,,,,,,,,,,,,,,,,125,-557,Valid,noise,45,2,1.4377556000836194,1,4.0,2.7457817001268268,True,1,33,A,2023-11-21_09h18.36.615,exp3,2022.2.2,
,,,,,,,,,,,,,,,,,,,,,,,,126,1716,Valid,signal,45,2,1.3536286000162363,0,2.0,2.6619242997840047,True,1,33,A,2023-11-21_09h18.36.615,exp3,2022.2.2,
,,,,,,,,,,,,,,,,,,,,,,,,127,-2274,Valid,noise,45,2,1.4379156003706157,1,1.0,2.7462430000305176,True,1,33,A,2023-11-21_09h18.36.615,exp3,2022.2.2,
,,,,,,,,,,,,,,,,,,,,,,,,128,-1716,Valid,signal,45,1,0.9710639002732933,1,3.0,2.2791885999031365,True,1,33,A,2023-11-21_09h18.36.615,exp3,2022.2.2,
,,,,,,,,,,,,,,,,,,,,,,,,129,-557,Valid,noise,45,2,1.1041266000829637,1,3.0,2.4124680999666452,True,1,33,A,2023-11-21_09h18.36.615,exp3,2022.2.2,
,,,,,,,,,,,,,,,,,,,,,,,,130,2274,Valid,noise,-45,2,1.3715894003398716,1,1.0,2.67985920002684,True,1,33,A,2023-11-21_09h18.36.615,exp3,2022.2.2,
,,,,,,,,,,,,,,,,,,,,,,,,131,-1158,Valid,signal,-45,1,1.2207092996686697,1,3.0,2.5289922999218106,True,1,33,A,2023-11-21_09h18.36.615,exp3,2022.2.2,
,,,,,,,,,,,,,,,,,,,,,,,,132,-2274,Valid,signal,45,2,3.755621399730444,0,1.0,5.063853699713945,True,1,33,A,2023-11-21_09h18.36.615,exp3,2022.2.2,
,,,,,,,,,,,,,,,,,,,,,,,,133,-2274,Invalid,signal,45,2,9.507713099941611,0,1.0,10.81573439994827,True,1,33,A,2023-11-21_09h18.36.615,exp3,2022.2.2,
,,,,,,,,,,,,,,,,,,,,,,,,134,1716,Invalid,signal,45,1,1.071181499864906,1,3.0,2.3793772999197245,True,1,33,A,2023-11-21_09h18.36.615,exp3,2022.2.2,
,,,,,,,,,,,,,,,,,,,,,,,,135,-1158,Valid,signal,45,1,1.137750499881804,1,4.0,2.445995000191033,True,1,33,A,2023-11-21_09h18.36.615,exp3,2022.2.2,
,,,,,,,,,,,,,,,,,,,,,,,,136,-2274,Valid,noise,-45,2,1.5881529999896884,1,1.0,2.8963481998071074,True,1,33,A,2023-11-21_09h18.36.615,exp3,2022.2.2,
,,,,,,,,,,,,,,,,,,,,,,,,137,-1158,Invalid,noise,-45,2,2.204676500055939,1,2.0,3.5129046998918056,True,1,33,A,2023-11-21_09h18.36.615,exp3,2022.2.2,
,,,,,,,,,,,,,,,,,,,,,,,,138,1158,Invalid,signal,45,1,1.0202843002043664,1,3.0,2.328601600136608,True,1,33,A,2023-11-21_09h18.36.615,exp3,2022.2.2,
,,,,,,,,,,,,,,,,,,,,,,,,139,-1158,Valid,signal,-45,1,1.3382552000693977,1,4.0,2.6460947999730706,True,1,33,A,2023-11-21_09h18.36.615,exp3,2022.2.2,
,,,,,,,,,,,,,,,,,,,,,,,,140,-2274,Valid,signal,-45,2,1.3545555998571217,0,2.0,2.662791000213474,True,1,33,A,2023-11-21_09h18.36.615,exp3,2022.2.2,
,,,,,,,,,,,,,,,,,,,,,,,,141,557,Invalid,noise,45,2,1.6879072999581695,1,4.0,2.9961240999400616,True,1,33,A,2023-11-21_09h18.36.615,exp3,2022.2.2,
,,,,,,,,,,,,,,,,,,,,,,,,142,1716,Invalid,noise,45,1,1.2542886002920568,0,2.0,2.562659500166774,True,1,33,A,2023-11-21_09h18.36.615,exp3,2022.2.2,
,,,,,,,,,,,,,,,,,,,,,,,,143,1158,Valid,signal,45,1,1.0216184998862445,1,3.0,2.329794100020081,True,1,33,A,2023-11-21_09h18.36.615,exp3,2022.2.2,
,,,,,,,,,,,,,,,,,,,,,,,,144,557,Valid,signal,45,1,1.0876091001555324,1,4.0,2.395891800057143,True,1,33,A,2023-11-21_09h18.36.615,exp3,2022.2.2,
,,,,,,,,,,,,,,,,,,,,,,,,145,-2274,Valid,signal,-45,2,2.0379625000059605,0,1.0,3.34603470005095,True,1,33,A,2023-11-21_09h18.36.615,exp3,2022.2.2,
,,,,,,,,,,,,,,,,,,,,,,,,146,-1716,Valid,signal,45,1,1.0376770002767444,1,3.0,2.3456971999257803,True,1,33,A,2023-11-21_09h18.36.615,exp3,2022.2.2,
,,,,,,,,,,,,,,,,,,,,,,,,147,557,Invalid,noise,45,2,1.3538208999671042,1,3.0,2.66225459985435,True,1,33,A,2023-11-21_09h18.36.615,exp3,2022.2.2,
,,,,,,,,,,,,,,,,,,,,,,,,148,-1158,Valid,noise,-45,2,1.3544866000302136,1,2.0,2.6629781001247466,True,1,33,A,2023-11-21_09h18.36.615,exp3,2022.2.2,
,,,,,,,,,,,,,,,,,,,,,,,,149,1716,Valid,signal,45,2,2.121662199962884,0,2.0,3.429726299829781,True,1,33,A,2023-11-21_09h18.36.615,exp3,2022.2.2,
,,,,,,,,,,,,,,,,,,,,,,,,150,2274,Invalid,signal,-45,2,5.506391599774361,0,2.0,6.814423799980432,True,1,33,A,2023-11-21_09h18.36.615,exp3,2022.2.2,
,,,,,,,,,,,,,,,,,,,,,,,,151,-1158,Valid,signal,45,1,1.1205199998803437,1,3.0,2.4287600996904075,True,1,33,A,2023-11-21_09h18.36.615,exp3,2022.2.2,
,,,,,,,,,,,,,,,,,,,,,,,,152,-1716,Valid,noise,45,1,1.0710702002979815,0,3.0,2.3793779998086393,True,1,33,A,2023-11-21_09h18.36.615,exp3,2022.2.2,
,,,,,,,,,,,,,,,,,,,,,,,,153,1716,Valid,signal,45,1,2.105141299776733,1,2.0,3.4133350998163223,True,1,33,A,2023-11-21_09h18.36.615,exp3,2022.2.2,
,,,,,,,,,,,,,,,,,,,,,,,,154,557,Valid,noise,45,2,1.3381950003094971,1,4.0,2.6462701000273228,True,1,33,A,2023-11-21_09h18.36.615,exp3,2022.2.2,
,,,,,,,,,,,,,,,,,,,,,,,,155,557,Valid,signal,45,1,1.193534200079739,1,4.0,6.31319440016523,True,2,33,A,2023-11-21_09h18.36.615,exp3,2022.2.2,
,,,,,,,,,,,,,,,,,,,,,,,,156,557,Valid,signal,-45,1,0.6880535003729165,1,4.0,1.9963519000448287,True,1,33,A,2023-11-21_09h18.36.615,exp3,2022.2.2,
,,,,,,,,,,,,,,,,,,,,,,,,157,-2274,Valid,signal,45,2,1.1713157002814114,0,1.0,2.4794863001443446,True,1,33,A,2023-11-21_09h18.36.615,exp3,2022.2.2,
,,,,,,,,,,,,,,,,,,,,,,,,158,-557,Valid,signal,45,1,1.337247600313276,1,4.0,2.6454162001609802,True,1,33,A,2023-11-21_09h18.36.615,exp3,2022.2.2,
,,,,,,,,,,,,,,,,,,,,,,,,159,1716,Valid,noise,45,2,3.1884960997849703,1,2.0,4.496634399984032,True,1,33,A,2023-11-21_09h18.36.615,exp3,2022.2.2,
,,,,,,,,,,,,,,,,,,,,,,,,160,-1158,Invalid,signal,45,1,1.25410920009017,1,4.0,2.5621691001579165,True,1,33,A,2023-11-21_09h18.36.615,exp3,2022.2.2,
,,,,,,,,,,,,,,,,,,,,,,,,161,2274,Valid,noise,-45,2,2.204961000010371,1,1.0,3.5132637000642717,True,1,33,A,2023-11-21_09h18.36.615,exp3,2022.2.2,
,,,,,,,,,,,,,,,,,,,,,,,,162,-1158,Valid,noise,45,1,1.8380384999327362,0,2.0,3.1464681001380086,True,1,33,A,2023-11-21_09h18.36.615,exp3,2022.2.2,
,,,,,,,,,,,,,,,,,,,,,,,,163,2274,Valid,signal,-45,2,1.7719175997190177,0,1.0,3.079934099689126,True,1,33,A,2023-11-21_09h18.36.615,exp3,2022.2.2,
,,,,,,,,,,,,,,,,,,,,,,,,164,1158,Valid,noise,45,1,3.672085199970752,0,1.0,4.980255000293255,True,1,33,A,2023-11-21_09h18.36.615,exp3,2022.2.2,
,,,,,,,,,,,,,,,,,,,,,,,,165,2274,Valid,noise,45,2,0.6874237000010908,1,1.0,1.995134700089693,True,1,33,A,2023-11-21_09h18.36.615,exp3,2022.2.2,
,,,,,,,,,,,,,,,,,,,,,,,,166,1716,Valid,noise,-45,2,1.003617400303483,1,1.0,2.311888999771327,True,1,33,A,2023-11-21_09h18.36.615,exp3,2022.2.2,
,,,,,,,,,,,,,,,,,,,,,,,,167,-1158,Valid,noise,-45,2,1.8548002997413278,1,1.0,3.1633083997294307,True,1,33,A,2023-11-21_09h18.36.615,exp3,2022.2.2,
,,,,,,,,,,,,,,,,,,,,,,,,168,-1158,Valid,noise,45,1,1.9710525996051729,0,2.0,3.279672499746084,True,1,33,A,2023-11-21_09h18.36.615,exp3,2022.2.2,
,,,,,,,,,,,,,,,,,,,,,,,,169,-1158,Valid,noise,-45,1,1.1375508001074195,0,2.0,2.4459976996295154,True,1,33,A,2023-11-21_09h18.36.615,exp3,2022.2.2,
,,,,,,,,,,,,,,,,,,,,,,,,170,557,Valid,noise,-45,2,1.5880666999146342,1,2.0,2.896086599677801,True,1,33,A,2023-11-21_09h18.36.615,exp3,2022.2.2,
,,,,,,,,,,,,,,,,,,,,,,,,171,-2274,Invalid,noise,-45,2,2.0881490004248917,1,1.0,3.396403499878943,True,1,33,A,2023-11-21_09h18.36.615,exp3,2022.2.2,
,,,,,,,,,,,,,,,,,,,,,,,,172,-1716,Valid,signal,-45,1,1.304180100094527,1,2.0,2.6123876003548503,True,1,33,A,2023-11-21_09h18.36.615,exp3,2022.2.2,
,,,,,,,,,,,,,,,,,,,,,,,,173,557,Invalid,signal,45,1,1.63762929989025,1,4.0,2.9459608998149633,True,1,33,A,2023-11-21_09h18.36.615,exp3,2022.2.2,
,,,,,,,,,,,,,,,,,,,,,,,,174,-557,Invalid,noise,45,2,2.50497019989416,1,4.0,3.8131717001087964,True,1,33,A,2023-11-21_09h18.36.615,exp3,2022.2.2,
,,,,,,,,,,,,,,,,,,,,,,,,175,1158,Valid,signal,-45,1,0.8879141001962125,1,4.0,2.196188300382346,True,1,33,A,2023-11-21_09h18.36.615,exp3,2022.2.2,
,,,,,,,,,,,,,,,,,,,,,,,,176,-1158,Valid,signal,-45,1,0.8706185002811253,1,4.0,2.178902099840343,True,1,33,A,2023-11-21_09h18.36.615,exp3,2022.2.2,
,,,,,,,,,,,,,,,,,,,,,,,,2,557,Valid,signal,45,1,1.3772255000658333,1,4.0,2.68596119992435,True,1,33,A,2023-11-21_09h18.36.615,exp3,2022.2.2,
,,,,,,,,,,,,,,,,,,,,,,,,4,-2274,Valid,signal,45,2,1.2205306999385357,0,1.0,2.5292694000527263,True,1,33,A,2023-11-21_09h18.36.615,exp3,2022.2.2,
,,,,,,,,,,,,,,,,,,,,,,,,6,1716,Valid,signal,45,1,2.271056499797851,1,2.0,3.5797661999240518,True,1,33,A,2023-11-21_09h18.36.615,exp3,2022.2.2,
,,,,,,,,,,,,,,,,,,,,,,,,8,1716,Valid,signal,45,2,1.8375264997594059,0,1.0,3.1462802002206445,True,1,33,A,2023-11-21_09h18.36.615,exp3,2022.2.2,
,,,,,,,,,,,,,,,,,,,,,,,,10,1158,Valid,signal,-45,1,0.9711138000711799,1,3.0,2.279684300068766,True,1,33,A,2023-11-21_09h18.36.615,exp3,2022.2.2,
,,,,,,,,,,,,,,,,,,,,,,,,12,-1158,Valid,noise,-45,2,2.4550510002300143,1,1.0,3.763334299903363,True,1,33,A,2023-11-21_09h18.36.615,exp3,2022.2.2,
,,,,,,,,,,,,,,,,,,,,,,,,14,557,Valid,noise,-45,2,2.220686699729413,1,3.0,3.5291102998889983,True,1,33,A,2023-11-21_09h18.36.615,exp3,2022.2.2,
,,,,,,,,,,,,,,,,,,,,,,,,16,2274,Valid,noise,-45,1,1.8710960000753403,0,1.0,3.1796955997124314,True,1,33,A,2023-11-21_09h18.36.615,exp3,2022.2.2,
,,,,,,,,,,,,,,,,,,,,,,,,18,-1716,Valid,noise,45,2,1.1881129001267254,1,1.0,2.496489700395614,True,1,33,A,2023-11-21_09h18.36.615,exp3,2022.2.2,
,,,,,,,,,,,,,,,,,,,,,,,,20,557,Valid,noise,-45,2,1.4039574000053108,1,4.0,2.712664899881929,True,1,33,A,2023-11-21_09h18.36.615,exp3,2022.2.2,
,,,,,,,,,,,,,,,,,,,,,,,,22,1158,Invalid,noise,-45,1,1.5375749999657273,0,3.0,2.8463159003295004,True,1,33,A,2023-11-21_09h18.36.615,exp3,2022.2.2,
,,,,,,,,,,,,,,,,,,,,,,,,24,1158,Valid,signal,45,1,0.7703479998745024,1,3.0,2.078875799663365,True,1,33,A,2023-11-21_09h18.36.615,exp3,2022.2.2,
,,,,,,,,,,,,,,,,,,,,,,,,26,-2274,Valid,signal,-45,2,1.3375889998860657,0,1.0,2.646319800056517,True,1,33,A,2023-11-21_09h18.36.615,exp3,2022.2.2,
,,,,,,,,,,,,,,,,,,,,,,,,28,1716,Valid,noise,-45,2,1.8043981003575027,1,2.0,3.1127243996597826,True,1,33,A,2023-11-21_09h18.36.615,exp3,2022.2.2,
,,,,,,,,,,,,,,,,,,,,,,,,30,-1158,Valid,noise,45,2,1.3535449001938105,1,2.0,2.6624500998295844,True,1,33,A,2023-11-21_09h18.36.615,exp3,2022.2.2,
,,,,,,,,,,,,,,,,,,,,,,,,32,-557,Invalid,noise,45,2,1.5211308998987079,1,3.0,2.829533700365573,True,1,33,A,2023-11-21_09h18.36.615,exp3,2022.2.2,
,,,,,,,,,,,,,,,,,,,,,,,,34,-557,Valid,signal,-45,1,1.4210167997516692,1,4.0,2.729664800222963,True,1,33,A,2023-11-21_09h18.36.615,exp3,2022.2.2,
,,,,,,,,,,,,,,,,,,,,,,,,36,1716,Invalid,noise,45,2,1.17015379993245,1,2.0,2.478950399905443,True,1,33,A,2023-11-21_09h18.36.615,exp3,2022.2.2,
,,,,,,,,,,,,,,,,,,,,,,,,38,1716,Valid,noise,45,1,1.621104299556464,0,1.0,2.9299391000531614,True,1,33,A,2023-11-21_09h18.36.615,exp3,2022.2.2,
,,,,,,,,,,,,,,,,,,,,,,,,40,557,Valid,signal,45,1,0.9544012998230755,1,4.0,2.2627183999866247,True,1,33,A,2023-11-21_09h18.36.615,exp3,2022.2.2,
,,,,,,,,,,,,,,,,,,,,,,,,42,1158,Valid,noise,45,2,1.670835199765861,1,2.0,2.979293499607593,True,1,33,A,2023-11-21_09h18.36.615,exp3,2022.2.2,
,,,,,,,,,,,,,,,,,,,,,,,,44,1716,Valid,signal,45,2,3.1547871003858745,0,2.0,4.463197099976242,True,1,33,A,2023-11-21_09h18.36.615,exp3,2022.2.2,
,,,,,,,,,,,,,,,,,,,,,,,,46,-2274,Valid,noise,-45,2,1.821204099804163,1,1.0,3.1295708999969065,True,1,33,A,2023-11-21_09h18.36.615,exp3,2022.2.2,
,,,,,,,,,,,,,,,,,,,,,,,,48,557,Invalid,signal,-45,1,1.2539387997239828,1,4.0,2.5628323000855744,True,1,33,A,2023-11-21_09h18.36.615,exp3,2022.2.2,
,,,,,,,,,,,,,,,,,,,,,,,,50,2274,Valid,noise,-45,2,1.7376775001175702,1,1.0,3.046150399837643,True,1,33,A,2023-11-21_09h18.36.615,exp3,2022.2.2,
,,,,,,,,,,,,,,,,,,,,,,,,52,-2274,Valid,signal,45,2,1.0712148998863995,0,1.0,2.3797796997241676,True,1,33,A,2023-11-21_09h18.36.615,exp3,2022.2.2,
,,,,,,,,,,,,,,,,,,,,,,,,54,557,Valid,signal,45,1,1.303509899880737,1,4.0,2.6121443998999894,True,1,33,A,2023-11-21_09h18.36.615,exp3,2022.2.2,
,,,,,,,,,,,,,,,,,,,,,,,,56,1158,Valid,signal,45,1,1.0544965001754463,1,4.0,2.3631026996299624,True,1,33,A,2023-11-21_09h18.36.615,exp3,2022.2.2,
,,,,,,,,,,,,,,,,,,,,,,,,58,1716,Invalid,noise,45,2,1.6872780001722276,1,1.0,2.9960567001253366,True,1,33,A,2023-11-21_09h18.36.615,exp3,2022.2.2,
,,,,,,,,,,,,,,,,,,,,,,,,60,2274,Invalid,signal,45,2,1.4376374003477395,0,1.0,2.746304100379348,True,1,33,A,2023-11-21_09h18.36.615,exp3,2022.2.2,
,,,,,,,,,,,,,,,,,,,,,,,,62,-1716,Valid,signal,-45,1,0.9702537995763123,1,3.0,2.279093500226736,True,1,33,A,2023-11-21_09h18.36.615,exp3,2022.2.2,
,,,,,,,,,,,,,,,,,,,,,,,,64,2274,Valid,noise,-45,2,1.1206447998993099,1,1.0,2.42912430036813,True,1,33,A,2023-11-21_09h18.36.615,exp3,2022.2.2,
,,,,,,,,,,,,,,,,,,,,,,,,66,-1716,Valid,noise,-45,2,0.6204177001491189,1,1.0,1.9290138999931514,True,1,33,A,2023-11-21_09h18.36.615,exp3,2022.2.2,
,,,,,,,,,,,,,,,,,,,,,,,,68,-557,Valid,noise,-45,2,0.6874281000345945,1,1.0,1.9958365000784397,True,1,33,A,2023-11-21_09h18.36.615,exp3,2022.2.2,
,,,,,,,,,,,,,,,,,,,,,,,,70,-2274,Invalid,noise,45,2,0.7705851998180151,1,1.0,2.0791513002477586,True,1,33,A,2023-11-21_09h18.36.615,exp3,2022.2.2,
,,,,,,,,,,,,,,,,,,,,,,,,72,1158,Valid,signal,45,1,0.6541368002071977,1,3.0,1.9626553999260068,True,1,33,A,2023-11-21_09h18.36.615,exp3,2022.2.2,
,,,,,,,,,,,,,,,,,,,,,,,,74,2274,Valid,noise,-45,2,0.8874388998374343,1,2.0,2.19567590020597,True,1,33,A,2023-11-21_09h18.36.615,exp3,2022.2.2,
,,,,,,,,,,,,,,,,,,,,,,,,76,-2274,Invalid,noise,45,2,0.8876002002507448,1,1.0,2.195808300282806,True,1,33,A,2023-11-21_09h18.36.615,exp3,2022.2.2,
,,,,,,,,,,,,,,,,,,,,,,,,78,-1158,Valid,signal,45,1,0.7697850000113249,1,4.0,2.079025300219655,True,1,33,A,2023-11-21_09h18.36.615,exp3,2022.2.2,
,,,,,,,,,,,,,,,,,,,,,,,,80,557,Valid,noise,45,2,0.9878354002721608,1,4.0,2.296277899760753,True,1,33,A,2023-11-21_09h18.36.615,exp3,2022.2.2,
,,,,,,,,,,,,,,,,,,,,,,,,82,557,Valid,noise,-45,2,0.6540922997519374,1,4.0,1.9622712000273168,True,1,33,A,2023-11-21_09h18.36.615,exp3,2022.2.2,
,,,,,,,,,,,,,,,,,,,,,,,,84,-2274,Valid,signal,45,2,0.7199179003946483,0,2.0,2.0288384999148548,True,1,33,A,2023-11-21_09h18.36.615,exp3,2022.2.2,
,,,,,,,,,,,,,,,,,,,,,,,,86,557,Valid,noise,45,2,0.6370097999460995,1,4.0,1.945856699720025,True,1,33,A,2023-11-21_09h18.36.615,exp3,2022.2.2,
,,,,,,,,,,,,,,,,,,,,,,,,88,-557,Valid,signal,45,1,0.7205802001990378,1,4.0,2.029301700182259,True,1,33,A,2023-11-21_09h18.36.615,exp3,2022.2.2,
,,,,,,,,,,,,,,,,,,,,,,,,90,-557,Valid,noise,-45,2,0.5542028998024762,1,4.0,1.8625733000226319,True,1,33,A,2023-11-21_09h18.36.615,exp3,2022.2.2,
,,,,,,,,,,,,,,,,,,,,,,,,92,2274,Invalid,noise,-45,2,0.9539169003255665,1,1.0,2.2625107001513243,True,1,33,A,2023-11-21_09h18.36.615,exp3,2022.2.2,
,,,,,,,,,,,,,,,,,,,,,,,,94,1716,Valid,noise,45,2,0.7700058999471366,1,2.0,2.07841830002144,True,1,33,A,2023-11-21_09h18.36.615,exp3,2022.2.2,
,,,,,,,,,,,,,,,,,,,,,,,,96,-1158,Valid,signal,-45,1,0.6703429999761283,1,3.0,1.9791822996921837,True,1,33,A,2023-11-21_09h18.36.615,exp3,2022.2.2,
,,,,,,,,,,,,,,,,,,,,,,,,98,1158,Valid,noise,-45,1,0.8044665004126728,0,3.0,2.1128703001886606,True,1,33,A,2023-11-21_09h18.36.615,exp3,2022.2.2,
,,,,,,,,,,,,,,,,,,,,,,,,100,-1716,Valid,signal,45,2,1.4542545001022518,0,1.0,2.7625754000619054,True,1,33,A,2023-11-21_09h18.36.615,exp3,2022.2.2,
,,,,,,,,,,,,,,,,,,,,,,,,102,1716,Valid,signal,45,2,1.0881659002043307,0,1.0,2.396624400280416,True,1,33,A,2023-11-21_09h18.36.615,exp3,2022.2.2,
,,,,,,,,,,,,,,,,,,,,,,,,104,-1716,Invalid,noise,-45,2,1.620151299983263,1,1.0,2.9286386002786458,True,1,33,A,2023-11-21_09h18.36.615,exp3,2022.2.2,
,,,,,,,,,,,,,,,,,,,,,,,,106,-2274,Valid,signal,-45,2,1.0204678997397423,0,1.0,2.329203899949789,True,1,33,A,2023-11-21_09h18.36.615,exp3,2022.2.2,
