trials.label,trials.startVal,trials.maxVal,trials.minVal,trials.startValSd,trials.pthreshold,trials.beta,trials.delta,trials.gamma,trials.grain,trials.stepSize,trials.range,trials.cue,trials.thisIndex,trials.thisRepN,trials.thisN,trials.direction,trials.stepType,trials.intensity,signalOpacity,stair_response_correct,level,trials.response,stair_eye_ok,nTrial,position,validity,Stimulus,orientation,response_key,response_rt,response_correct,confidence,confidence_rt,eye_ok,trial_rep,participant,session,date,expName,psychopyVersion,
low_opac_i,0.4,1,0.01,3,0.82,3.5,0.01,0,0.01,4,5,Invalid,2,1,0,start,lin,0.4,0.4,0,0.4,0,True,,,,,,,,,,,,,31,A,2023-11-15_10h42.02.878,exp3,2022.2.2,
high_opac_v,0.01,1,0.01,3,0.82,3.5,0.01,0,0.01,4,5,Valid,1,1,1,start,lin,0.01,0.01,0,0.01,0,True,,,,,,,,,,,,,31,A,2023-11-15_10h42.02.878,exp3,2022.2.2,
low_opac_v,0.4,1,0.01,3,0.82,3.5,0.01,0,0.01,4,5,Valid,0,1,2,start,lin,0.4,0.4,1,0.4,1,True,,,,,,,,,,,,,31,A,2023-11-15_10h42.02.878,exp3,2022.2.2,
low_opac_i,0.4,1,0.01,3,0.82,3.5,0.01,0,0.01,4,5,Invalid,2,2,3,start,lin,1,1,1,1,1,True,,,,,,,,,,,,,31,A,2023-11-15_10h42.02.878,exp3,2022.2.2,
high_opac_v,0.01,1,0.01,3,0.82,3.5,0.01,0,0.01,4,5,Valid,1,2,4,start,lin,1,1,1,1,1,True,,,,,,,,,,,,,31,A,2023-11-15_10h42.02.878,exp3,2022.2.2,
low_opac_v,0.4,1,0.01,3,0.82,3.5,0.01,0,0.01,4,5,Valid,0,2,5,start,lin,0.01,0.01,0,0.01,0,True,,,,,,,,,,,,,31,A,2023-11-15_10h42.02.878,exp3,2022.2.2,
high_opac_v,0.01,1,0.01,3,0.82,3.5,0.01,0,0.01,4,5,Valid,1,3,6,start,lin,0.6092784667527542,0,1,0.6092784667527542,1,True,,,,,,,,,,,,,31,A,2023-11-15_10h42.02.878,exp3,2022.2.2,
low_opac_i,0.4,1,0.01,3,0.82,3.5,0.01,0,0.01,4,5,Invalid,2,3,7,start,lin,0.8091950431803865,0.8091950431803865,1,0.8091950431803865,1,True,,,,,,,,,,,,,31,A,2023-11-15_10h42.02.878,exp3,2022.2.2,
low_opac_v,0.4,1,0.01,3,0.82,3.5,0.01,0,0.01,4,5,Valid,0,3,8,start,lin,0.3144098688205103,0.3144098688205103,0,0.3144098688205103,0,True,,,,,,,,,,,,,31,A,2023-11-15_10h42.02.878,exp3,2022.2.2,
low_opac_v,0.4,1,0.01,3,0.82,3.5,0.01,0,0.01,4,5,Valid,0,4,9,start,lin,0.4916057657997278,0.4916057657997278,1,0.4916057657997278,1,True,,,,,,,,,,,,,31,A,2023-11-15_10h42.02.878,exp3,2022.2.2,
low_opac_i,0.4,1,0.01,3,0.82,3.5,0.01,0,0.01,4,5,Invalid,2,4,10,start,lin,0.6973591848232542,0,0,0.6973591848232542,0,True,,,,,,,,,,,,,31,A,2023-11-15_10h42.02.878,exp3,2022.2.2,
high_opac_v,0.01,1,0.01,3,0.82,3.5,0.01,0,0.01,4,5,Valid,1,4,11,start,lin,0.41662067589367746,0.41662067589367746,1,0.41662067589367746,1,True,,,,,,,,,,,,,31,A,2023-11-15_10h42.02.878,exp3,2022.2.2,
low_opac_v,0.4,1,0.01,3,0.82,3.5,0.01,0,0.01,4,5,Valid,0,5,12,start,lin,0.4413846231900958,0,0,0.4413846231900958,0,True,,,,,,,,,,,,,31,A,2023-11-15_10h42.02.878,exp3,2022.2.2,
low_opac_i,0.4,1,0.01,3,0.82,3.5,0.01,0,0.01,4,5,Invalid,2,5,13,start,lin,0.8614513918880656,0.8614513918880656,1,0.8614513918880656,1,True,,,,,,,,,,,,,31,A,2023-11-15_10h42.02.878,exp3,2022.2.2,
high_opac_v,0.01,1,0.01,3,0.82,3.5,0.01,0,0.01,4,5,Valid,1,5,14,start,lin,0.3073330120243674,0.3073330120243674,1,0.3073330120243674,1,True,,,,,,,,,,,,,31,A,2023-11-15_10h42.02.878,exp3,2022.2.2,
low_opac_i,0.4,1,0.01,3,0.82,3.5,0.01,0,0.01,4,5,Invalid,2,6,15,start,lin,0.8245013483899439,0,0,0.8245013483899439,0,True,,,,,,,,,,,,,31,A,2023-11-15_10h42.02.878,exp3,2022.2.2,
low_opac_v,0.4,1,0.01,3,0.82,3.5,0.01,0,0.01,4,5,Valid,0,6,16,start,lin,0.5368537959040814,0.5368537959040814,1,0.5368537959040814,1,True,,,,,,,,,,,,,31,A,2023-11-15_10h42.02.878,exp3,2022.2.2,
high_opac_v,0.01,1,0.01,3,0.82,3.5,0.01,0,0.01,4,5,Valid,1,6,17,start,lin,0.2346279982429363,0,0,0.2346279982429363,0,True,,,,,,,,,,,,,31,A,2023-11-15_10h42.02.878,exp3,2022.2.2,
low_opac_v,0.4,1,0.01,3,0.82,3.5,0.01,0,0.01,4,5,Valid,0,7,18,start,lin,0.5117085611740074,0,0,0.5117085611740074,0,True,,,,,,,,,,,,,31,A,2023-11-15_10h42.02.878,exp3,2022.2.2,
low_opac_i,0.4,1,0.01,3,0.82,3.5,0.01,0,0.01,4,5,Invalid,2,7,19,start,lin,0.9069917802693265,0.9069917802693265,1,0.9069917802693265,1,True,,,,,,,,,,,,,31,A,2023-11-15_10h42.02.878,exp3,2022.2.2,
high_opac_v,0.01,1,0.01,3,0.82,3.5,0.01,0,0.01,4,5,Valid,1,7,20,start,lin,0.3638700592295882,0.3638700592295882,1,0.3638700592295882,1,True,,,,,,,,,,,,,31,A,2023-11-15_10h42.02.878,exp3,2022.2.2,
low_opac_v,0.4,1,0.01,3,0.82,3.5,0.01,0,0.01,4,5,Valid,0,8,21,start,lin,0.5767355940769698,0,1,0.5767355940769698,1,True,,,,,,,,,,,,,31,A,2023-11-15_10h42.02.878,exp3,2022.2.2,
low_opac_i,0.4,1,0.01,3,0.82,3.5,0.01,0,0.01,4,5,Invalid,2,8,22,start,lin,0.8869874825037962,0.8869874825037962,1,0.8869874825037962,1,True,,,,,,,,,,,,,31,A,2023-11-15_10h42.02.878,exp3,2022.2.2,
high_opac_v,0.01,1,0.01,3,0.82,3.5,0.01,0,0.01,4,5,Valid,1,8,23,start,lin,0.33435092510312747,0.33435092510312747,1,0.33435092510312747,1,True,,,,,,,,,,,,,31,A,2023-11-15_10h42.02.878,exp3,2022.2.2,
low_opac_i,0.4,1,0.01,3,0.82,3.5,0.01,0,0.01,4,5,Invalid,2,9,24,start,lin,0.8708946842615641,0.8708946842615641,0,0.8708946842615641,0,True,,,,,,,,,,,,,31,A,2023-11-15_10h42.02.878,exp3,2022.2.2,
low_opac_v,0.4,1,0.01,3,0.82,3.5,0.01,0,0.01,4,5,Valid,0,9,25,start,lin,0.5599336500855765,0,1,0.5599336500855765,1,True,,,,,,,,,,,,,31,A,2023-11-15_10h42.02.878,exp3,2022.2.2,
high_opac_v,0.01,1,0.01,3,0.82,3.5,0.01,0,0.01,4,5,Valid,1,9,26,start,lin,0.3113354935495346,0,1,0.3113354935495346,1,True,,,,,,,,,,,,,31,A,2023-11-15_10h42.02.878,exp3,2022.2.2,
high_opac_v,0.01,1,0.01,3,0.82,3.5,0.01,0,0.01,4,5,Valid,1,10,27,start,lin,0.29269220835217613,0.29269220835217613,1,0.29269220835217613,1,True,,,,,,,,,,,,,31,A,2023-11-15_10h42.02.878,exp3,2022.2.2,
low_opac_v,0.4,1,0.01,3,0.82,3.5,0.01,0,0.01,4,5,Valid,0,10,28,start,lin,0.5461378105433399,0,0,0.5461378105433399,0,True,,,,,,,,,,,,,31,A,2023-11-15_10h42.02.878,exp3,2022.2.2,
low_opac_i,0.4,1,0.01,3,0.82,3.5,0.01,0,0.01,4,5,Invalid,2,10,29,start,lin,0.9197499499768598,0,0,0.9197499499768598,0,True,,,,,,,,,,,,,31,A,2023-11-15_10h42.02.878,exp3,2022.2.2,
low_opac_i,0.4,1,0.01,3,0.82,3.5,0.01,0,0.01,4,5,Invalid,2,11,30,start,lin,0.9630957195379497,0.9630957195379497,1,0.9630957195379497,1,True,,,,,,,,,,,,,31,A,2023-11-15_10h42.02.878,exp3,2022.2.2,
low_opac_v,0.4,1,0.01,3,0.82,3.5,0.01,0,0.01,4,5,Valid,0,11,31,start,lin,0.5899120383015839,0,0,0.5899120383015839,0,True,,,,,,,,,,,,,31,A,2023-11-15_10h42.02.878,exp3,2022.2.2,
high_opac_v,0.01,1,0.01,3,0.82,3.5,0.01,0,0.01,4,5,Valid,1,11,32,start,lin,0.27642718558883334,0,1,0.27642718558883334,1,True,,,,,,,,,,,,,31,A,2023-11-15_10h42.02.878,exp3,2022.2.2,
low_opac_i,0.4,1,0.01,3,0.82,3.5,0.01,0,0.01,4,5,Invalid,2,12,33,start,lin,0.9520107631587368,0.9520107631587368,1,0.9520107631587368,1,True,,,,,,,,,,,,,31,A,2023-11-15_10h42.02.878,exp3,2022.2.2,
low_opac_v,0.4,1,0.01,3,0.82,3.5,0.01,0,0.01,4,5,Valid,0,12,34,start,lin,0.6298706549314446,0,1,0.6298706549314446,1,True,,,,,,,,,,,,,31,A,2023-11-15_10h42.02.878,exp3,2022.2.2,
high_opac_v,0.01,1,0.01,3,0.82,3.5,0.01,0,0.01,4,5,Valid,1,12,35,start,lin,0.26265187280154895,0,0,0.26265187280154895,0,True,,,,,,,,,,,,,31,A,2023-11-15_10h42.02.878,exp3,2022.2.2,
low_opac_i,0.4,1,0.01,3,0.82,3.5,0.01,0,0.01,4,5,Invalid,2,13,36,start,lin,0.9424607651023764,0,0,0.9424607651023764,0,True,,,,,,,,,,,,,31,A,2023-11-15_10h42.02.878,exp3,2022.2.2,
low_opac_v,0.4,1,0.01,3,0.82,3.5,0.01,0,0.01,4,5,Valid,0,13,37,start,lin,0.6196555330596263,0,1,0.6196555330596263,1,True,,,,,,,,,,,,,31,A,2023-11-15_10h42.02.878,exp3,2022.2.2,
high_opac_v,0.01,1,0.01,3,0.82,3.5,0.01,0,0.01,4,5,Valid,1,13,38,start,lin,0.3064637833261827,0,0,0.3064637833261827,0,True,,,,,,,,,,,,,31,A,2023-11-15_10h42.02.878,exp3,2022.2.2,
low_opac_v,0.4,1,0.01,3,0.82,3.5,0.01,0,0.01,4,5,Valid,0,14,39,start,lin,0.6108066994390737,0,1,0.6108066994390737,1,True,,,,,,,,,,,,,31,A,2023-11-15_10h42.02.878,exp3,2022.2.2,
low_opac_i,0.4,1,0.01,3,0.82,3.5,0.01,0,0.01,4,5,Invalid,2,14,40,start,lin,0.9736371995789312,0,1,0.9736371995789312,1,True,,,,,,,,,,,,,31,A,2023-11-15_10h42.02.878,exp3,2022.2.2,
high_opac_v,0.01,1,0.01,3,0.82,3.5,0.01,0,0.01,4,5,Valid,1,14,41,start,lin,0.34308734634388066,0.34308734634388066,1,0.34308734634388066,1,True,,,,,,,,,,,,,31,A,2023-11-15_10h42.02.878,exp3,2022.2.2,
low_opac_i,0.4,1,0.01,3,0.82,3.5,0.01,0,0.01,4,5,Invalid,2,15,42,start,lin,0.9656160988214285,0.9656160988214285,0,0.9656160988214285,0,True,,,,,,,,,,,,,31,A,2023-11-15_10h42.02.878,exp3,2022.2.2,
low_opac_v,0.4,1,0.01,3,0.82,3.5,0.01,0,0.01,4,5,Valid,0,15,43,start,lin,0.6028773308473786,0,1,0.6028773308473786,1,True,,,,,,,,,,,,,31,A,2023-11-15_10h42.02.878,exp3,2022.2.2,
high_opac_v,0.01,1,0.01,3,0.82,3.5,0.01,0,0.01,4,5,Valid,1,15,44,start,lin,0.3343603067552272,0.3343603067552272,1,0.3343603067552272,1,True,,,,,,,,,,,,,31,A,2023-11-15_10h42.02.878,exp3,2022.2.2,
high_opac_v,0.01,1,0.01,3,0.82,3.5,0.01,0,0.01,4,5,Valid,1,16,45,start,lin,0.3263858323777712,0.3263858323777712,1,0.3263858323777712,1,True,,,,,,,,,,,,,31,A,2023-11-15_10h42.02.878,exp3,2022.2.2,
low_opac_i,0.4,1,0.01,3,0.82,3.5,0.01,0,0.01,4,5,Invalid,2,16,46,start,lin,0.9934886202272735,0.9934886202272735,1,0.9934886202272735,1,True,,,,,,,,,,,,,31,A,2023-11-15_10h42.02.878,exp3,2022.2.2,
low_opac_v,0.4,1,0.01,3,0.82,3.5,0.01,0,0.01,4,5,Valid,0,16,47,start,lin,0.5955836003801167,0,1,0.5955836003801167,1,True,,,,,,,,,,,,,31,A,2023-11-15_10h42.02.878,exp3,2022.2.2,
low_opac_i,0.4,1,0.01,3,0.82,3.5,0.01,0,0.01,4,5,Invalid,2,17,48,start,lin,0.9866040916174498,0,0,0.9866040916174498,0,True,,,,,,,,,,,,,31,A,2023-11-15_10h42.02.878,exp3,2022.2.2,
high_opac_v,0.01,1,0.01,3,0.82,3.5,0.01,0,0.01,4,5,Valid,1,17,49,start,lin,0.3195357415469494,0.3195357415469494,1,0.3195357415469494,1,True,,,,,,,,,,,,,31,A,2023-11-15_10h42.02.878,exp3,2022.2.2,
low_opac_v,0.4,1,0.01,3,0.82,3.5,0.01,0,0.01,4,5,Valid,0,17,50,start,lin,0.5892850803670534,0,1,0.5892850803670534,1,True,,,,,,,,,,,,,31,A,2023-11-15_10h42.02.878,exp3,2022.2.2,
low_opac_i,0.4,1,0.01,3,0.82,3.5,0.01,0,0.01,4,5,Invalid,2,18,51,start,lin,1,1,1,1,1,True,,,,,,,,,,,,,31,A,2023-11-15_10h42.02.878,exp3,2022.2.2,
high_opac_v,0.01,1,0.01,3,0.82,3.5,0.01,0,0.01,4,5,Valid,1,18,52,start,lin,0.3130477290931969,0,0,0.3130477290931969,0,True,,,,,,,,,,,,,31,A,2023-11-15_10h42.02.878,exp3,2022.2.2,
low_opac_v,0.4,1,0.01,3,0.82,3.5,0.01,0,0.01,4,5,Valid,0,18,53,start,lin,0.5833058377412859,0,0,0.5833058377412859,0,True,,,,,,,,,,,,,31,A,2023-11-15_10h42.02.878,exp3,2022.2.2,
low_opac_i,0.4,1,0.01,3,0.82,3.5,0.01,0,0.01,4,5,Invalid,2,19,54,start,lin,1,0,1,1,1,True,,,,,,,,,,,,,31,A,2023-11-15_10h42.02.878,exp3,2022.2.2,
high_opac_v,0.01,1,0.01,3,0.82,3.5,0.01,0,0.01,4,5,Valid,1,19,55,start,lin,0.3359869071909396,0.3359869071909396,1,0.3359869071909396,1,True,,,,,,,,,,,,,31,A,2023-11-15_10h42.02.878,exp3,2022.2.2,
low_opac_v,0.4,1,0.01,3,0.82,3.5,0.01,0,0.01,4,5,Valid,0,19,56,start,lin,0.6046666616563788,0,1,0.6046666616563788,1,True,,,,,,,,,,,,,31,A,2023-11-15_10h42.02.878,exp3,2022.2.2,
high_opac_v,0.01,1,0.01,3,0.82,3.5,0.01,0,0.01,4,5,Valid,1,20,57,start,lin,0.3306325456612635,0.3306325456612635,0,0.3306325456612635,0,True,,,,,,,,,,,,,31,A,2023-11-15_10h42.02.878,exp3,2022.2.2,
low_opac_i,0.4,1,0.01,3,0.82,3.5,0.01,0,0.01,4,5,Invalid,2,20,58,start,lin,0.9989392364911746,0.9989392364911746,1,0.9989392364911746,1,True,,,,,,,,,,,,,31,A,2023-11-15_10h42.02.878,exp3,2022.2.2,
low_opac_v,0.4,1,0.01,3,0.82,3.5,0.01,0,0.01,4,5,Valid,0,20,59,start,lin,0.5992226135893868,0,0,0.5992226135893868,0,True,,,,,,,,,,,,,31,A,2023-11-15_10h42.02.878,exp3,2022.2.2,
low_opac_i,0.4,1,0.01,3,0.82,3.5,0.01,0,0.01,4,5,Invalid,2,21,60,start,lin,0.9939822153996754,0.9939822153996754,1,0.9939822153996754,1,True,,,,,,,,,,,,,31,A,2023-11-15_10h42.02.878,exp3,2022.2.2,
low_opac_v,0.4,1,0.01,3,0.82,3.5,0.01,0,0.01,4,5,Valid,0,21,61,start,lin,0.6185655811988147,0,1,0.6185655811988147,1,True,,,,,,,,,,,,,31,A,2023-11-15_10h42.02.878,exp3,2022.2.2,
high_opac_v,0.01,1,0.01,3,0.82,3.5,0.01,0,0.01,4,5,Valid,1,21,62,start,lin,0.35081677790560084,0.35081677790560084,1,0.35081677790560084,1,True,,,,,,,,,,,,,31,A,2023-11-15_10h42.02.878,exp3,2022.2.2,
high_opac_v,0.01,1,0.01,3,0.82,3.5,0.01,0,0.01,4,5,Valid,1,22,63,start,lin,0.34591988362619264,0.34591988362619264,1,0.34591988362619264,1,True,,,,,,,,,,,,,31,A,2023-11-15_10h42.02.878,exp3,2022.2.2,
low_opac_i,0.4,1,0.01,3,0.82,3.5,0.01,0,0.01,4,5,Invalid,2,22,64,start,lin,0.989111588545748,0.989111588545748,1,0.989111588545748,1,True,,,,,,,,,,,,,31,A,2023-11-15_10h42.02.878,exp3,2022.2.2,
low_opac_v,0.4,1,0.01,3,0.82,3.5,0.01,0,0.01,4,5,Valid,0,22,65,start,lin,0.6139854686556829,0.6139854686556829,0,0.6139854686556829,0,True,,,,,,,,,,,,,31,A,2023-11-15_10h42.02.878,exp3,2022.2.2,
high_opac_v,0.01,1,0.01,3,0.82,3.5,0.01,0,0.01,4,5,Valid,1,23,66,start,lin,0.3415096608166008,0.3415096608166008,0,0.3415096608166008,0,True,,,,,,,,,,,,,31,A,2023-11-15_10h42.02.878,exp3,2022.2.2,
low_opac_v,0.4,1,0.01,3,0.82,3.5,0.01,0,0.01,4,5,Valid,0,23,67,start,lin,0.6308702277341589,0,1,0.6308702277341589,1,True,,,,,,,,,,,,,31,A,2023-11-15_10h42.02.878,exp3,2022.2.2,
low_opac_i,0.4,1,0.01,3,0.82,3.5,0.01,0,0.01,4,5,Invalid,2,23,68,start,lin,0.9847396174726617,0.9847396174726617,1,0.9847396174726617,1,True,,,,,,,,,,,,,31,A,2023-11-15_10h42.02.878,exp3,2022.2.2,
low_opac_v,0.4,1,0.01,3,0.82,3.5,0.01,0,0.01,4,5,Valid,0,24,69,start,lin,0.6266154453777336,0,0,0.6266154453777336,0,True,,,,,,,,,,,,,31,A,2023-11-15_10h42.02.878,exp3,2022.2.2,
high_opac_v,0.01,1,0.01,3,0.82,3.5,0.01,0,0.01,4,5,Valid,1,24,70,start,lin,0.35841701233453616,0.35841701233453616,1,0.35841701233453616,1,True,,,,,,,,,,,,,31,A,2023-11-15_10h42.02.878,exp3,2022.2.2,
low_opac_i,0.4,1,0.01,3,0.82,3.5,0.01,0,0.01,4,5,Invalid,2,24,71,start,lin,0.980392206507217,0,1,0.980392206507217,1,True,,,,,,,,,,,,,31,A,2023-11-15_10h42.02.878,exp3,2022.2.2,
low_opac_v,0.4,1,0.01,3,0.82,3.5,0.01,0,0.01,4,5,Valid,0,25,72,start,lin,0.6428767695354834,0,1,0.6428767695354834,1,True,,,,,,,,,,,,,31,A,2023-11-15_10h42.02.878,exp3,2022.2.2,
low_opac_i,0.4,1,0.01,3,0.82,3.5,0.01,0,0.01,4,5,Invalid,2,25,73,start,lin,0.9764028192796741,0.9764028192796741,0,0.9764028192796741,0,True,,,,,,,,,,,,,31,A,2023-11-15_10h42.02.878,exp3,2022.2.2,
high_opac_v,0.01,1,0.01,3,0.82,3.5,0.01,0,0.01,4,5,Valid,1,25,74,start,lin,0.3543785890742209,0,1,0.3543785890742209,1,True,,,,,,,,,,,,,31,A,2023-11-15_10h42.02.878,exp3,2022.2.2,
low_opac_v,0.4,1,0.01,3,0.82,3.5,0.01,0,0.01,4,5,Valid,0,26,75,start,lin,0.6388954402324183,0,0,0.6388954402324183,0,True,,,,,,,,,,,,,31,A,2023-11-15_10h42.02.878,exp3,2022.2.2,
low_opac_i,0.4,1,0.01,3,0.82,3.5,0.01,0,0.01,4,5,Invalid,2,26,76,start,lin,0.9918411549309273,0.9918411549309273,1,0.9918411549309273,1,True,,,,,,,,,,,,,31,A,2023-11-15_10h42.02.878,exp3,2022.2.2,
high_opac_v,0.01,1,0.01,3,0.82,3.5,0.01,0,0.01,4,5,Valid,1,26,77,start,lin,0.35032898485325814,0.35032898485325814,1,0.35032898485325814,1,True,,,,,,,,,,,,,31,A,2023-11-15_10h42.02.878,exp3,2022.2.2,
low_opac_v,0.4,1,0.01,3,0.82,3.5,0.01,0,0.01,4,5,Valid,0,27,78,start,lin,0.6536902249700804,0.6536902249700804,1,0.6536902249700804,1,True,,,,,,,,,,,,,31,A,2023-11-15_10h42.02.878,exp3,2022.2.2,
low_opac_i,0.4,1,0.01,3,0.82,3.5,0.01,0,0.01,4,5,Invalid,2,27,79,start,lin,0.9881583874203772,0,0,0.9881583874203772,0,True,,,,,,,,,,,,,31,A,2023-11-15_10h42.02.878,exp3,2022.2.2,
high_opac_v,0.01,1,0.01,3,0.82,3.5,0.01,0,0.01,4,5,Valid,1,27,80,start,lin,0.3465973125390223,0,1,0.3465973125390223,1,True,,,,,,,,,,,,,31,A,2023-11-15_10h42.02.878,exp3,2022.2.2,
low_opac_i,0.4,1,0.01,3,0.82,3.5,0.01,0,0.01,4,5,Invalid,2,28,81,start,lin,1,0,0,1,0,True,,,,,,,,,,,,,31,A,2023-11-15_10h42.02.878,exp3,2022.2.2,
high_opac_v,0.01,1,0.01,3,0.82,3.5,0.01,0,0.01,4,5,Valid,1,28,82,start,lin,0.3431710163794693,0.3431710163794693,0,0.3431710163794693,0,True,,,,,,,,,,,,,31,A,2023-11-15_10h42.02.878,exp3,2022.2.2,
low_opac_v,0.4,1,0.01,3,0.82,3.5,0.01,0,0.01,4,5,Valid,0,28,83,start,lin,0.6499908150391853,0.6499908150391853,1,0.6499908150391853,1,True,,,,,,,,,,,,,31,A,2023-11-15_10h42.02.878,exp3,2022.2.2,
low_opac_i,0.4,1,0.01,3,0.82,3.5,0.01,0,0.01,4,5,Invalid,2,29,84,start,lin,1,0,1,1,1,True,,,,,,,,,,,,,31,A,2023-11-15_10h42.02.878,exp3,2022.2.2,
low_opac_v,0.4,1,0.01,3,0.82,3.5,0.01,0,0.01,4,5,Valid,0,29,85,start,lin,0.6465980928454341,0.6465980928454341,1,0.6465980928454341,1,True,,,,,,,,,,,,,31,A,2023-11-15_10h42.02.878,exp3,2022.2.2,
high_opac_v,0.01,1,0.01,3,0.82,3.5,0.01,0,0.01,4,5,Valid,1,29,86,start,lin,0.35644655484613996,0,0,0.35644655484613996,0,True,,,,,,,,,,,,,31,A,2023-11-15_10h42.02.878,exp3,2022.2.2,
high_opac_v,0.01,1,0.01,3,0.82,3.5,0.01,0,0.01,4,5,Valid,1,30,87,start,lin,0.36981560715351064,0,0,0.36981560715351064,0,True,,,,,,,,,,,,,31,A,2023-11-15_10h42.02.878,exp3,2022.2.2,
low_opac_v,0.4,1,0.01,3,0.82,3.5,0.01,0,0.01,4,5,Valid,0,30,88,start,lin,0.6434720193136636,0.6434720193136636,1,0.6434720193136636,1,True,,,,,,,,,,,,,31,A,2023-11-15_10h42.02.878,exp3,2022.2.2,
low_opac_i,0.4,1,0.01,3,0.82,3.5,0.01,0,0.01,4,5,Invalid,2,30,89,start,lin,1,0,0,1,0,True,,,,,,,,,,,,,31,A,2023-11-15_10h42.02.878,exp3,2022.2.2,
low_opac_i,0.4,1,0.01,3,0.82,3.5,0.01,0,0.01,4,5,Invalid,2,31,90,start,lin,1,1,1,1,1,True,,,,,,,,,,,,,31,A,2023-11-15_10h42.02.878,exp3,2022.2.2,
low_opac_v,0.4,1,0.01,3,0.82,3.5,0.01,0,0.01,4,5,Valid,0,31,91,start,lin,0.6402651005503125,0,1,0.6402651005503125,1,True,,,,,,,,,,,,,31,A,2023-11-15_10h42.02.878,exp3,2022.2.2,
high_opac_v,0.01,1,0.01,3,0.82,3.5,0.01,0,0.01,4,5,Valid,1,31,92,start,lin,0.3824948663813448,0,0,0.3824948663813448,0,True,,,,,,,,,,,,,31,A,2023-11-15_10h42.02.878,exp3,2022.2.2,
low_opac_i,0.4,1,0.01,3,0.82,3.5,0.01,0,0.01,4,5,Invalid,2,32,93,start,lin,1,1,1,1,1,True,,,,,,,,,,,,,31,A,2023-11-15_10h42.02.878,exp3,2022.2.2,
low_opac_v,0.4,1,0.01,3,0.82,3.5,0.01,0,0.01,4,5,Valid,0,32,94,start,lin,0.6372702782453642,0.6372702782453642,1,0.6372702782453642,1,True,,,,,,,,,,,,,31,A,2023-11-15_10h42.02.878,exp3,2022.2.2,
high_opac_v,0.01,1,0.01,3,0.82,3.5,0.01,0,0.01,4,5,Valid,1,32,95,start,lin,0.39459507053378046,0,0,0.39459507053378046,0,True,,,,,,,,,,,,,31,A,2023-11-15_10h42.02.878,exp3,2022.2.2,
low_opac_i,0.4,1,0.01,3,0.82,3.5,0.01,0,0.01,4,5,Invalid,2,33,96,start,lin,1,0,0,1,0,True,,,,,,,,,,,,,31,A,2023-11-15_10h42.02.878,exp3,2022.2.2,
low_opac_v,0.4,1,0.01,3,0.82,3.5,0.01,0,0.01,4,5,Valid,0,33,97,start,lin,0.6344961030037838,0,0,0.6344961030037838,0,True,,,,,,,,,,,,,31,A,2023-11-15_10h42.02.878,exp3,2022.2.2,
high_opac_v,0.01,1,0.01,3,0.82,3.5,0.01,0,0.01,4,5,Valid,1,33,98,start,lin,0.4062670155640151,0.4062670155640151,1,0.4062670155640151,1,True,,,,,,,,,,,,,31,A,2023-11-15_10h42.02.878,exp3,2022.2.2,
low_opac_i,0.4,1,0.01,3,0.82,3.5,0.01,0,0.01,4,5,Invalid,2,34,99,start,lin,1,0,0,1,0,True,,,,,,,,,,,,,31,A,2023-11-15_10h42.02.878,exp3,2022.2.2,
low_opac_v,0.4,1,0.01,3,0.82,3.5,0.01,0,0.01,4,5,Valid,0,34,100,start,lin,0.6452824373165478,0,0,0.6452824373165478,0,True,,,,,,,,,,,,,31,A,2023-11-15_10h42.02.878,exp3,2022.2.2,
high_opac_v,0.01,1,0.01,3,0.82,3.5,0.01,0,0.01,4,5,Valid,1,34,101,start,lin,0.4034450824544207,0.4034450824544207,0,0.4034450824544207,0,True,,,,,,,,,,,,,31,A,2023-11-15_10h42.02.878,exp3,2022.2.2,
low_opac_v,0.4,1,0.01,3,0.82,3.5,0.01,0,0.01,4,5,Valid,0,35,102,start,lin,0.6564741785061832,0.6564741785061832,1,0.6564741785061832,1,True,,,,,,,,,,,,,31,A,2023-11-15_10h42.02.878,exp3,2022.2.2,
high_opac_v,0.01,1,0.01,3,0.82,3.5,0.01,0,0.01,4,5,Valid,1,35,103,start,lin,0.4145632258337697,0.4145632258337697,1,0.4145632258337697,1,True,,,,,,,,,,,,,31,A,2023-11-15_10h42.02.878,exp3,2022.2.2,
low_opac_i,0.4,1,0.01,3,0.82,3.5,0.01,0,0.01,4,5,Invalid,2,35,104,start,lin,1,1,0,1,0,True,,,,,,,,,,,,,31,A,2023-11-15_10h42.02.878,exp3,2022.2.2,
low_opac_v,0.4,1,0.01,3,0.82,3.5,0.01,0,0.01,4,5,Valid,0,36,105,start,lin,0.6539577481294049,0.6539577481294049,0,0.6539577481294049,0,True,,,,,,,,,,,,,31,A,2023-11-15_10h42.02.878,exp3,2022.2.2,
high_opac_v,0.01,1,0.01,3,0.82,3.5,0.01,0,0.01,4,5,Valid,1,36,106,start,lin,0.41169606273054543,0,0,0.41169606273054543,0,True,,,,,,,,,,,,,31,A,2023-11-15_10h42.02.878,exp3,2022.2.2,
low_opac_i,0.4,1,0.01,3,0.82,3.5,0.01,0,0.01,4,5,Invalid,2,36,107,start,lin,1,0,0,1,0,True,,,,,,,,,,,,,31,A,2023-11-15_10h42.02.878,exp3,2022.2.2,
low_opac_i,0.4,1,0.01,3,0.82,3.5,0.01,0,0.01,4,5,Invalid,2,37,108,start,lin,1,1,0,1,0,True,,,,,,,,,,,,,31,A,2023-11-15_10h42.02.878,exp3,2022.2.2,
high_opac_v,0.01,1,0.01,3,0.82,3.5,0.01,0,0.01,4,5,Valid,1,37,109,start,lin,0.4223632664785846,0.4223632664785846,1,0.4223632664785846,1,True,,,,,,,,,,,,,31,A,2023-11-15_10h42.02.878,exp3,2022.2.2,
low_opac_v,0.4,1,0.01,3,0.82,3.5,0.01,0,0.01,4,5,Valid,0,37,110,start,lin,0.6639221916778018,0.6639221916778018,0,0.6639221916778018,0,True,,,,,,,,,,,,,31,A,2023-11-15_10h42.02.878,exp3,2022.2.2,
low_opac_v,0.4,1,0.01,3,0.82,3.5,0.01,0,0.01,4,5,Valid,0,38,111,start,lin,0.6737016351213658,0.6737016351213658,1,0.6737016351213658,1,True,,,,,,,,,,,,,31,A,2023-11-15_10h42.02.878,exp3,2022.2.2,
high_opac_v,0.01,1,0.01,3,0.82,3.5,0.01,0,0.01,4,5,Valid,1,38,112,start,lin,0.41965759153653054,0.41965759153653054,1,0.41965759153653054,1,True,,,,,,,,,,,,,31,A,2023-11-15_10h42.02.878,exp3,2022.2.2,
low_opac_i,0.4,1,0.01,3,0.82,3.5,0.01,0,0.01,4,5,Invalid,2,38,113,start,lin,1,1,1,1,1,True,,,,,,,,,,,,,31,A,2023-11-15_10h42.02.878,exp3,2022.2.2,
high_opac_v,0.01,1,0.01,3,0.82,3.5,0.01,0,0.01,4,5,Valid,1,39,114,start,lin,0.41713807329818875,0.41713807329818875,1,0.41713807329818875,1,True,,,,,,,,,,,,,31,A,2023-11-15_10h42.02.878,exp3,2022.2.2,
low_opac_i,0.4,1,0.01,3,0.82,3.5,0.01,0,0.01,4,5,Invalid,2,39,115,start,lin,1,1,1,1,1,True,,,,,,,,,,,,,31,A,2023-11-15_10h42.02.878,exp3,2022.2.2,
low_opac_v,0.4,1,0.01,3,0.82,3.5,0.01,0,0.01,4,5,Valid,0,39,116,start,lin,0.6711908195649011,0.6711908195649011,0,0.6711908195649011,0,True,,,,,,,,,,,,,31,A,2023-11-15_10h42.02.878,exp3,2022.2.2,
high_opac_v,0.01,1,0.01,3,0.82,3.5,0.01,0,0.01,4,5,Valid,1,40,117,start,lin,0.4147836956115534,0,0,0.4147836956115534,0,True,,,,,,,,,,,,,31,A,2023-11-15_10h42.02.878,exp3,2022.2.2,
low_opac_i,0.4,1,0.01,3,0.82,3.5,0.01,0,0.01,4,5,Invalid,2,40,118,start,lin,1,1,1,1,1,True,,,,,,,,,,,,,31,A,2023-11-15_10h42.02.878,exp3,2022.2.2,
low_opac_v,0.4,1,0.01,3,0.82,3.5,0.01,0,0.01,4,5,Valid,0,40,119,start,lin,0.6806658872873163,0.6806658872873163,1,0.6806658872873163,1,True,,,,,,,,,,,,,31,A,2023-11-15_10h42.02.878,exp3,2022.2.2,
high_opac_v,0.01,1,0.01,3,0.82,3.5,0.01,0,0.01,4,5,Valid,1,41,120,start,lin,0.42404838166093206,0.42404838166093206,1,0.42404838166093206,1,True,,,,,,,,,,,,,31,A,2023-11-15_10h42.02.878,exp3,2022.2.2,
low_opac_v,0.4,1,0.01,3,0.82,3.5,0.01,0,0.01,4,5,Valid,0,41,121,start,lin,0.6783091270637955,0,0,0.6783091270637955,0,True,,,,,,,,,,,,,31,A,2023-11-15_10h42.02.878,exp3,2022.2.2,
low_opac_i,0.4,1,0.01,3,0.82,3.5,0.01,0,0.01,4,5,Invalid,2,41,122,start,lin,1,1,1,1,1,True,,,,,,,,,,,,,31,A,2023-11-15_10h42.02.878,exp3,2022.2.2,
low_opac_v,0.4,1,0.01,3,0.82,3.5,0.01,0,0.01,4,5,Valid,0,42,123,start,lin,0.6875469355123736,0,0,0.6875469355123736,0,True,,,,,,,,,,,,,31,A,2023-11-15_10h42.02.878,exp3,2022.2.2,
high_opac_v,0.01,1,0.01,3,0.82,3.5,0.01,0,0.01,4,5,Valid,1,42,124,start,lin,0.42165868990670297,0,0,0.42165868990670297,0,True,,,,,,,,,,,,,31,A,2023-11-15_10h42.02.878,exp3,2022.2.2,
low_opac_i,0.4,1,0.01,3,0.82,3.5,0.01,0,0.01,4,5,Invalid,2,42,125,start,lin,1,1,1,1,1,True,,,,,,,,,,,,,31,A,2023-11-15_10h42.02.878,exp3,2022.2.2,
high_opac_v,0.01,1,0.01,3,0.82,3.5,0.01,0,0.01,4,5,Valid,1,43,126,start,lin,0.43067177894112024,0.43067177894112024,1,0.43067177894112024,1,True,,,,,,,,,,,,,31,A,2023-11-15_10h42.02.878,exp3,2022.2.2,
low_opac_i,0.4,1,0.01,3,0.82,3.5,0.01,0,0.01,4,5,Invalid,2,43,127,start,lin,1,1,0,1,0,True,,,,,,,,,,,,,31,A,2023-11-15_10h42.02.878,exp3,2022.2.2,
low_opac_v,0.4,1,0.01,3,0.82,3.5,0.01,0,0.01,4,5,Valid,0,43,128,start,lin,0.6967214284981902,0.6967214284981902,1,0.6967214284981902,1,True,,,,,,,,,,,,,31,A,2023-11-15_10h42.02.878,exp3,2022.2.2,
low_opac_v,0.4,1,0.01,3,0.82,3.5,0.01,0,0.01,4,5,Valid,0,44,129,start,lin,0.6946204101623019,0.6946204101623019,1,0.6946204101623019,1,True,,,,,,,,,,,,,31,A,2023-11-15_10h42.02.878,exp3,2022.2.2,
low_opac_i,0.4,1,0.01,3,0.82,3.5,0.01,0,0.01,4,5,Invalid,2,44,130,start,lin,1,0,0,1,0,True,,,,,,,,,,,,,31,A,2023-11-15_10h42.02.878,exp3,2022.2.2,
high_opac_v,0.01,1,0.01,3,0.82,3.5,0.01,0,0.01,4,5,Valid,1,44,131,start,lin,0.4284200059111533,0,0,0.4284200059111533,0,True,,,,,,,,,,,,,31,A,2023-11-15_10h42.02.878,exp3,2022.2.2,
low_opac_v,0.4,1,0.01,3,0.82,3.5,0.01,0,0.01,4,5,Valid,0,45,132,start,lin,0.6924367985632038,0.6924367985632038,0,0.6924367985632038,0,True,,,,,,,,,,,,,31,A,2023-11-15_10h42.02.878,exp3,2022.2.2,
high_opac_v,0.01,1,0.01,3,0.82,3.5,0.01,0,0.01,4,5,Valid,1,45,133,start,lin,0.4372533122753864,0,1,0.4372533122753864,1,True,,,,,,,,,,,,,31,A,2023-11-15_10h42.02.878,exp3,2022.2.2,
low_opac_i,0.4,1,0.01,3,0.82,3.5,0.01,0,0.01,4,5,Invalid,2,45,134,start,lin,1,1,0,1,0,True,,,,,,,,,,,,,31,A,2023-11-15_10h42.02.878,exp3,2022.2.2,
high_opac_v,0.01,1,0.01,3,0.82,3.5,0.01,0,0.01,4,5,Valid,1,46,135,start,lin,0.4352111211775743,0,0,0.4352111211775743,0,True,,,,,,,,,,,,,31,A,2023-11-15_10h42.02.878,exp3,2022.2.2,
low_opac_i,0.4,1,0.01,3,0.82,3.5,0.01,0,0.01,4,5,Invalid,2,46,136,start,lin,1,1,1,1,1,True,,,,,,,,,,,,,31,A,2023-11-15_10h42.02.878,exp3,2022.2.2,
low_opac_v,0.4,1,0.01,3,0.82,3.5,0.01,0,0.01,4,5,Valid,0,46,137,start,lin,0.7006630145352492,0.7006630145352492,1,0.7006630145352492,1,True,,,,,,,,,,,,,31,A,2023-11-15_10h42.02.878,exp3,2022.2.2,
low_opac_i,0.4,1,0.01,3,0.82,3.5,0.01,0,0.01,4,5,Invalid,2,47,138,start,lin,1,1,1,1,1,True,,,,,,,,,,,,,31,A,2023-11-15_10h42.02.878,exp3,2022.2.2,
low_opac_v,0.4,1,0.01,3,0.82,3.5,0.01,0,0.01,4,5,Valid,0,47,139,start,lin,0.6985901336446305,0,0,0.6985901336446305,0,True,,,,,,,,,,,,,31,A,2023-11-15_10h42.02.878,exp3,2022.2.2,
high_opac_v,0.01,1,0.01,3,0.82,3.5,0.01,0,0.01,4,5,Valid,1,47,140,start,lin,0.4438885572565936,0.4438885572565936,1,0.4438885572565936,1,True,,,,,,,,,,,,,31,A,2023-11-15_10h42.02.878,exp3,2022.2.2,
low_opac_v,0.4,1,0.01,3,0.82,3.5,0.01,0,0.01,4,5,Valid,0,48,141,start,lin,0.7067352403942354,0,0,0.7067352403942354,0,True,,,,,,,,,,,,,31,A,2023-11-15_10h42.02.878,exp3,2022.2.2,
low_opac_i,0.4,1,0.01,3,0.82,3.5,0.01,0,0.01,4,5,Invalid,2,48,142,start,lin,1,0,1,1,1,True,,,,,,,,,,,,,31,A,2023-11-15_10h42.02.878,exp3,2022.2.2,
high_opac_v,0.01,1,0.01,3,0.82,3.5,0.01,0,0.01,4,5,Valid,1,48,143,start,lin,0.44180398609865784,0,1,0.44180398609865784,1,True,,,,,,,,,,,,,31,A,2023-11-15_10h42.02.878,exp3,2022.2.2,
high_opac_v,0.01,1,0.01,3,0.82,3.5,0.01,0,0.01,4,5,Valid,1,49,144,start,lin,0.43977164964473725,0.43977164964473725,0,0.43977164964473725,0,True,,,,,,,,,,,,,31,A,2023-11-15_10h42.02.878,exp3,2022.2.2,
low_opac_i,0.4,1,0.01,3,0.82,3.5,0.01,0,0.01,4,5,Invalid,2,49,145,start,lin,1,0,0,1,0,True,,,,,,,,,,,,,31,A,2023-11-15_10h42.02.878,exp3,2022.2.2,
low_opac_v,0.4,1,0.01,3,0.82,3.5,0.01,0,0.01,4,5,Valid,0,49,146,start,lin,0.7149199665702557,0,0,0.7149199665702557,0,True,,,,,,,,,,,,,31,A,2023-11-15_10h42.02.878,exp3,2022.2.2,
low_opac_v,0.4,1,0.01,3,0.82,3.5,0.01,0,0.01,4,5,Valid,0,50,147,start,lin,0.722572214409966,0.722572214409966,0,0.722572214409966,0,True,,,,,,,,,,,,,31,A,2023-11-15_10h42.02.878,exp3,2022.2.2,
low_opac_i,0.4,1,0.01,3,0.82,3.5,0.01,0,0.01,4,5,Invalid,2,50,148,start,lin,1,0,1,1,1,True,,,,,,,,,,,,,31,A,2023-11-15_10h42.02.878,exp3,2022.2.2,
high_opac_v,0.01,1,0.01,3,0.82,3.5,0.01,0,0.01,4,5,Valid,1,50,149,start,lin,0.4475936349444773,0.4475936349444773,0,0.4475936349444773,0,True,,,,,,,,,,,,,31,A,2023-11-15_10h42.02.878,exp3,2022.2.2,
high_opac_v,0.01,1,0.01,3,0.82,3.5,0.01,0,0.01,4,5,Valid,1,51,150,start,lin,0.4554787085040729,0.4554787085040729,1,0.4554787085040729,1,True,,,,,,,,,,,,,31,A,2023-11-15_10h42.02.878,exp3,2022.2.2,
low_opac_i,0.4,1,0.01,3,0.82,3.5,0.01,0,0.01,4,5,Invalid,2,51,151,start,lin,1,1,1,1,1,True,,,,,,,,,,,,,31,A,2023-11-15_10h42.02.878,exp3,2022.2.2,
low_opac_v,0.4,1,0.01,3,0.82,3.5,0.01,0,0.01,4,5,Valid,0,51,152,start,lin,0.7302434830598907,0,0,0.7302434830598907,0,True,,,,,,,,,,,,,31,A,2023-11-15_10h42.02.878,exp3,2022.2.2,
low_opac_i,0.4,1,0.01,3,0.82,3.5,0.01,0,0.01,4,5,Invalid,2,52,153,start,lin,1,1,1,1,1,True,,,,,,,,,,,,,31,A,2023-11-15_10h42.02.878,exp3,2022.2.2,
high_opac_v,0.01,1,0.01,3,0.82,3.5,0.01,0,0.01,4,5,Valid,1,52,154,start,lin,0.4537043928137164,0.4537043928137164,1,0.4537043928137164,1,True,,,,,,,,,,,,,31,A,2023-11-15_10h42.02.878,exp3,2022.2.2,
low_opac_v,0.4,1,0.01,3,0.82,3.5,0.01,0,0.01,4,5,Valid,0,52,155,start,lin,0.7379946411893591,0,0,0.7379946411893591,0,True,,,,,,,,,,,,,31,A,2023-11-15_10h42.02.878,exp3,2022.2.2,
low_opac_v,0.4,1,0.01,3,0.82,3.5,0.01,0,0.01,4,5,Valid,0,53,156,start,lin,0.7458677629757678,0.7458677629757678,0,0.7458677629757678,0,True,,,,,,,,,,,,,31,A,2023-11-15_10h42.02.878,exp3,2022.2.2,
low_opac_i,0.4,1,0.01,3,0.82,3.5,0.01,0,0.01,4,5,Invalid,2,53,157,start,lin,1,0,0,1,0,True,,,,,,,,,,,,,31,A,2023-11-15_10h42.02.878,exp3,2022.2.2,
high_opac_v,0.01,1,0.01,3,0.82,3.5,0.01,0,0.01,4,5,Valid,1,53,158,start,lin,0.4518346314091197,0,0,0.4518346314091197,0,True,,,,,,,,,,,,,31,A,2023-11-15_10h42.02.878,exp3,2022.2.2,
high_opac_v,0.01,1,0.01,3,0.82,3.5,0.01,0,0.01,4,5,Valid,1,54,159,start,lin,0.45895192739606133,0.45895192739606133,1,0.45895192739606133,1,True,,,,,,,,,,,,,31,A,2023-11-15_10h42.02.878,exp3,2022.2.2,
low_opac_v,0.4,1,0.01,3,0.82,3.5,0.01,0,0.01,4,5,Valid,0,54,160,start,lin,0.7538278025820326,0,1,0.7538278025820326,1,True,,,,,,,,,,,,,31,A,2023-11-15_10h42.02.878,exp3,2022.2.2,
low_opac_i,0.4,1,0.01,3,0.82,3.5,0.01,0,0.01,4,5,Invalid,2,54,161,start,lin,1,1,1,1,1,True,,,,,,,,,,,,,31,A,2023-11-15_10h42.02.878,exp3,2022.2.2,
low_opac_v,0.4,1,0.01,3,0.82,3.5,0.01,0,0.01,4,5,Valid,0,55,162,start,lin,0.7519028165491202,0,0,0.7519028165491202,0,True,,,,,,,,,,,,,31,A,2023-11-15_10h42.02.878,exp3,2022.2.2,
low_opac_i,0.4,1,0.01,3,0.82,3.5,0.01,0,0.01,4,5,Invalid,2,55,163,start,lin,1,1,1,1,1,True,,,,,,,,,,,,,31,A,2023-11-15_10h42.02.878,exp3,2022.2.2,
high_opac_v,0.01,1,0.01,3,0.82,3.5,0.01,0,0.01,4,5,Valid,1,55,164,start,lin,0.4572144716529051,0.4572144716529051,0,0.4572144716529051,0,True,,,,,,,,,,,,,31,A,2023-11-15_10h42.02.878,exp3,2022.2.2,
low_opac_i,0.4,1,0.01,3,0.82,3.5,0.01,0,0.01,4,5,Invalid,2,56,165,start,lin,1,0,0,1,0,True,,,,,,,,,,,,,31,A,2023-11-15_10h42.02.878,exp3,2022.2.2,
high_opac_v,0.01,1,0.01,3,0.82,3.5,0.01,0,0.01,4,5,Valid,1,56,166,start,lin,0.46440356920071585,0,0,0.46440356920071585,0,True,,,,,,,,,,,,,31,A,2023-11-15_10h42.02.878,exp3,2022.2.2,
low_opac_v,0.4,1,0.01,3,0.82,3.5,0.01,0,0.01,4,5,Valid,0,56,167,start,lin,0.759210625550732,0.759210625550732,0,0.759210625550732,0,True,,,,,,,,,,,,,31,A,2023-11-15_10h42.02.878,exp3,2022.2.2,
high_opac_v,0.01,1,0.01,3,0.82,3.5,0.01,0,0.01,4,5,Valid,1,57,168,start,lin,0.4711370913983833,0,0,0.4711370913983833,0,True,,,,,,,,,,,,,31,A,2023-11-15_10h42.02.878,exp3,2022.2.2,
low_opac_v,0.4,1,0.01,3,0.82,3.5,0.01,0,0.01,4,5,Valid,0,57,169,start,lin,0.7666777081625593,0.7666777081625593,1,0.7666777081625593,1,True,,,,,,,,,,,,,31,A,2023-11-15_10h42.02.878,exp3,2022.2.2,
low_opac_i,0.4,1,0.01,3,0.82,3.5,0.01,0,0.01,4,5,Invalid,2,57,170,start,lin,1,0,0,1,0,True,,,,,,,,,,,,,31,A,2023-11-15_10h42.02.878,exp3,2022.2.2,
high_opac_v,0.01,1,0.01,3,0.82,3.5,0.01,0,0.01,4,5,Valid,1,58,171,start,lin,0.47791160270390254,0,0,0.47791160270390254,0,True,,,,,,,,,,,,,31,A,2023-11-15_10h42.02.878,exp3,2022.2.2,
low_opac_v,0.4,1,0.01,3,0.82,3.5,0.01,0,0.01,4,5,Valid,0,58,172,start,lin,0.7649507536216094,0.7649507536216094,1,0.7649507536216094,1,True,,,,,,,,,,,,,31,A,2023-11-15_10h42.02.878,exp3,2022.2.2,
low_opac_i,0.4,1,0.01,3,0.82,3.5,0.01,0,0.01,4,5,Invalid,2,58,173,start,lin,1,0,1,1,1,True,,,,,,,,,,,,,31,A,2023-11-15_10h42.02.878,exp3,2022.2.2,
high_opac_v,0.01,1,0.01,3,0.82,3.5,0.01,0,0.01,4,5,Valid,1,59,174,start,lin,0.4848738786181971,0.4848738786181971,0,0.4848738786181971,0,True,,,,,,,,,,,,,31,A,2023-11-15_10h42.02.878,exp3,2022.2.2,
low_opac_i,0.4,1,0.01,3,0.82,3.5,0.01,0,0.01,4,5,Invalid,2,59,175,start,lin,1,1,1,1,1,True,,,,,,,,,,,,,31,A,2023-11-15_10h42.02.878,exp3,2022.2.2,
low_opac_v,0.4,1,0.01,3,0.82,3.5,0.01,0,0.01,4,5,Valid,0,59,176,start,lin,0.7631463965326784,0,1,0.7631463965326784,1,True,,,,,,,,,,,,,31,A,2023-11-15_10h42.02.878,exp3,2022.2.2,
low_opac_v,0.4,1,0.01,3,0.82,3.5,0.01,0,0.01,4,5,Valid,0,60,177,start,lin,0.7613914945171414,0,1,0.7613914945171414,1,True,,,,,,,,,,,,,31,A,2023-11-15_10h42.02.878,exp3,2022.2.2,
low_opac_i,0.4,1,0.01,3,0.82,3.5,0.01,0,0.01,4,5,Invalid,2,60,178,start,lin,1,1,1,1,1,True,,,,,,,,,,,,,31,A,2023-11-15_10h42.02.878,exp3,2022.2.2,
high_opac_v,0.01,1,0.01,3,0.82,3.5,0.01,0,0.01,4,5,Valid,1,60,179,start,lin,0.4914335394883371,0.4914335394883371,1,0.4914335394883371,1,True,,,,,,,,,,,,,31,A,2023-11-15_10h42.02.878,exp3,2022.2.2,
high_opac_v,0.01,1,0.01,3,0.82,3.5,0.01,0,0.01,4,5,Valid,1,61,180,start,lin,0.4897360666527159,0,0,0.4897360666527159,0,True,,,,,,,,,,,,,31,A,2023-11-15_10h42.02.878,exp3,2022.2.2,
low_opac_v,0.4,1,0.01,3,0.82,3.5,0.01,0,0.01,4,5,Valid,0,61,181,start,lin,0.7596686442264691,0.7596686442264691,1,0.7596686442264691,1,True,,,,,,,,,,,,,31,A,2023-11-15_10h42.02.878,exp3,2022.2.2,
low_opac_i,0.4,1,0.01,3,0.82,3.5,0.01,0,0.01,4,5,Invalid,2,61,182,start,lin,1,1,0,1,0,True,,,,,,,,,,,,,31,A,2023-11-15_10h42.02.878,exp3,2022.2.2,
low_opac_i,0.4,1,0.01,3,0.82,3.5,0.01,0,0.01,4,5,Invalid,2,62,183,start,lin,1,0,1,1,1,True,,,,,,,,,,,,,31,A,2023-11-15_10h42.02.878,exp3,2022.2.2,
low_opac_v,0.4,1,0.01,3,0.82,3.5,0.01,0,0.01,4,5,Valid,0,62,184,start,lin,0.7580357318274291,0.7580357318274291,1,0.7580357318274291,1,True,,,,,,,,,,,,,31,A,2023-11-15_10h42.02.878,exp3,2022.2.2,
high_opac_v,0.01,1,0.01,3,0.82,3.5,0.01,0,0.01,4,5,Valid,1,62,185,start,lin,0.4963163852681871,0.4963163852681871,0,0.4963163852681871,0,True,,,,,,,,,,,,,31,A,2023-11-15_10h42.02.878,exp3,2022.2.2,
low_opac_i,0.4,1,0.01,3,0.82,3.5,0.01,0,0.01,4,5,Invalid,2,63,186,start,lin,1,0,0,1,0,True,,,,,,,,,,,,,31,A,2023-11-15_10h42.02.878,exp3,2022.2.2,
low_opac_v,0.4,1,0.01,3,0.82,3.5,0.01,0,0.01,4,5,Valid,0,63,187,start,lin,0.756489877639584,0,0,0.756489877639584,0,True,,,,,,,,,,,,,31,A,2023-11-15_10h42.02.878,exp3,2022.2.2,
high_opac_v,0.01,1,0.01,3,0.82,3.5,0.01,0,0.01,4,5,Valid,1,63,188,start,lin,0.5030623853890175,0,1,0.5030623853890175,1,True,,,,,,,,,,,,,31,A,2023-11-15_10h42.02.878,exp3,2022.2.2,
high_opac_v,0.01,1,0.01,3,0.82,3.5,0.01,0,0.01,4,5,Valid,1,64,189,start,lin,0.5014407119239902,0,0,0.5014407119239902,0,True,,,,,,,,,,,,,31,A,2023-11-15_10h42.02.878,exp3,2022.2.2,
low_opac_i,0.4,1,0.01,3,0.82,3.5,0.01,0,0.01,4,5,Invalid,2,64,190,start,lin,1,0,1,1,1,True,,,,,,,,,,,,,31,A,2023-11-15_10h42.02.878,exp3,2022.2.2,
low_opac_v,0.4,1,0.01,3,0.82,3.5,0.01,0,0.01,4,5,Valid,0,64,191,start,lin,0.7630644797374853,0.7630644797374853,1,0.7630644797374853,1,True,,,,,,,,,,,,,31,A,2023-11-15_10h42.02.878,exp3,2022.2.2,
low_opac_v,0.4,1,0.01,3,0.82,3.5,0.01,0,0.01,4,5,Valid,0,65,192,start,lin,0.7614866506837503,0,0,0.7614866506837503,0,True,,,,,,,,,,,,,31,A,2023-11-15_10h42.02.878,exp3,2022.2.2,
low_opac_i,0.4,1,0.01,3,0.82,3.5,0.01,0,0.01,4,5,Invalid,2,65,193,start,lin,1,1,1,1,1,True,,,,,,,,,,,,,31,A,2023-11-15_10h42.02.878,exp3,2022.2.2,
high_opac_v,0.01,1,0.01,3,0.82,3.5,0.01,0,0.01,4,5,Valid,1,65,194,start,lin,0.5076575045187804,0.5076575045187804,1,0.5076575045187804,1,True,,,,,,,,,,,,,31,A,2023-11-15_10h42.02.878,exp3,2022.2.2,
low_opac_i,0.4,1,0.01,3,0.82,3.5,0.01,0,0.01,4,5,Invalid,2,66,195,start,lin,1,0,1,1,1,True,,,,,,,,,,,,,31,A,2023-11-15_10h42.02.878,exp3,2022.2.2,
low_opac_v,0.4,1,0.01,3,0.82,3.5,0.01,0,0.01,4,5,Valid,0,66,196,start,lin,0.7675404567549394,0,0,0.7675404567549394,0,True,,,,,,,,,,,,,31,A,2023-11-15_10h42.02.878,exp3,2022.2.2,
high_opac_v,0.01,1,0.01,3,0.82,3.5,0.01,0,0.01,4,5,Valid,1,66,197,start,lin,0.5061720361515244,0,0,0.5061720361515244,0,True,,,,,,,,,,,,,31,A,2023-11-15_10h42.02.878,exp3,2022.2.2,
low_opac_v,0.4,1,0.01,3,0.82,3.5,0.01,0,0.01,4,5,Valid,0,67,198,start,lin,0.7738384356731944,0.7738384356731944,1,0.7738384356731944,1,True,,,,,,,,,,,,,31,A,2023-11-15_10h42.02.878,exp3,2022.2.2,
high_opac_v,0.01,1,0.01,3,0.82,3.5,0.01,0,0.01,4,5,Valid,1,67,199,start,lin,0.5125534950354562,0.5125534950354562,1,0.5125534950354562,1,True,,,,,,,,,,,,,31,A,2023-11-15_10h42.02.878,exp3,2022.2.2,
low_opac_i,0.4,1,0.01,3,0.82,3.5,0.01,0,0.01,4,5,Invalid,2,67,200,start,lin,1,0,0,1,0,True,,,,,,,,,,,,,31,A,2023-11-15_10h42.02.878,exp3,2022.2.2,
low_opac_v,0.4,1,0.01,3,0.82,3.5,0.01,0,0.01,4,5,Valid,0,68,201,start,lin,0.7723207680871377,0,0,0.7723207680871377,0,True,,,,,,,,,,,,,31,A,2023-11-15_10h42.02.878,exp3,2022.2.2,
high_opac_v,0.01,1,0.01,3,0.82,3.5,0.01,0,0.01,4,5,Valid,1,68,202,start,lin,0.5110210171861211,0,0,0.5110210171861211,0,True,,,,,,,,,,,,,31,A,2023-11-15_10h42.02.878,exp3,2022.2.2,
low_opac_i,0.4,1,0.01,3,0.82,3.5,0.01,0,0.01,4,5,Invalid,2,68,203,start,lin,1,0,1,1,1,True,,,,,,,,,,,,,31,A,2023-11-15_10h42.02.878,exp3,2022.2.2,
low_opac_v,0.4,1,0.01,3,0.82,3.5,0.01,0,0.01,4,5,Valid,0,69,204,start,lin,0.7781187515516736,0.7781187515516736,0,0.7781187515516736,0,True,,,,,,,,,,,,,31,A,2023-11-15_10h42.02.878,exp3,2022.2.2,
high_opac_v,0.01,1,0.01,3,0.82,3.5,0.01,0,0.01,4,5,Valid,1,69,205,start,lin,0.5169233379313307,0.5169233379313307,1,0.5169233379313307,1,True,,,,,,,,,,,,,31,A,2023-11-15_10h42.02.878,exp3,2022.2.2,
low_opac_i,0.4,1,0.01,3,0.82,3.5,0.01,0,0.01,4,5,Invalid,2,69,206,start,lin,1,1,1,1,1,True,,,,,,,,,,,,,31,A,2023-11-15_10h42.02.878,exp3,2022.2.2,
high_opac_v,0.01,1,0.01,3,0.82,3.5,0.01,0,0.01,4,5,Valid,1,70,207,start,lin,0.5155354432846646,0.5155354432846646,1,0.5155354432846646,1,True,,,,,,,,,,,,,31,A,2023-11-15_10h42.02.878,exp3,2022.2.2,
low_opac_v,0.4,1,0.01,3,0.82,3.5,0.01,0,0.01,4,5,Valid,0,70,208,start,lin,0.7841808019008633,0.7841808019008633,0,0.7841808019008633,0,True,,,,,,,,,,,,,31,A,2023-11-15_10h42.02.878,exp3,2022.2.2,
low_opac_i,0.4,1,0.01,3,0.82,3.5,0.01,0,0.01,4,5,Invalid,2,70,209,start,lin,1,1,1,1,1,True,,,,,,,,,,,,,31,A,2023-11-15_10h42.02.878,exp3,2022.2.2,
low_opac_v,0.4,1,0.01,3,0.82,3.5,0.01,0,0.01,4,5,Valid,0,71,210,start,lin,0.7898708152702929,0.7898708152702929,1,0.7898708152702929,1,True,,,,,,,,,,,,,31,A,2023-11-15_10h42.02.878,exp3,2022.2.2,
high_opac_v,0.01,1,0.01,3,0.82,3.5,0.01,0,0.01,4,5,Valid,1,71,211,start,lin,0.5141966912198841,0,1,0.5141966912198841,1,True,,,,,,,,,,,,,31,A,2023-11-15_10h42.02.878,exp3,2022.2.2,
low_opac_i,0.4,1,0.01,3,0.82,3.5,0.01,0,0.01,4,5,Invalid,2,71,212,start,lin,1,0,1,1,1,True,,,,,,,,,,,,,31,A,2023-11-15_10h42.02.878,exp3,2022.2.2,
low_opac_v,0.4,1,0.01,3,0.82,3.5,0.01,0,0.01,4,5,Valid,0,72,213,start,lin,0.788425559369736,0.788425559369736,0,0.788425559369736,0,True,,,,,,,,,,,,,31,A,2023-11-15_10h42.02.878,exp3,2022.2.2,
low_opac_i,0.4,1,0.01,3,0.82,3.5,0.01,0,0.01,4,5,Invalid,2,72,214,start,lin,1,0,1,1,1,True,,,,,,,,,,,,,31,A,2023-11-15_10h42.02.878,exp3,2022.2.2,
high_opac_v,0.01,1,0.01,3,0.82,3.5,0.01,0,0.01,4,5,Valid,1,72,215,start,lin,0.5127770886885848,0.5127770886885848,1,0.5127770886885848,1,True,,,,,,,,,,,,,31,A,2023-11-15_10h42.02.878,exp3,2022.2.2,
high_opac_v,0.01,1,0.01,3,0.82,3.5,0.01,0,0.01,4,5,Valid,1,73,216,start,lin,0.511381198469992,0,0,0.511381198469992,0,True,,,,,,,,,,,,,31,A,2023-11-15_10h42.02.878,exp3,2022.2.2,
low_opac_v,0.4,1,0.01,3,0.82,3.5,0.01,0,0.01,4,5,Valid,0,73,217,start,lin,0.7942874488209419,0.7942874488209419,1,0.7942874488209419,1,True,,,,,,,,,,,,,31,A,2023-11-15_10h42.02.878,exp3,2022.2.2,
low_opac_i,0.4,1,0.01,3,0.82,3.5,0.01,0,0.01,4,5,Invalid,2,73,218,start,lin,1,1,1,1,1,True,,,,,,,,,,,,,31,A,2023-11-15_10h42.02.878,exp3,2022.2.2,
low_opac_v,0.4,1,0.01,3,0.82,3.5,0.01,0,0.01,4,5,Valid,0,74,219,start,lin,0.7928681858995388,0.7928681858995388,1,0.7928681858995388,1,True,,,,,,,,,,,,,31,A,2023-11-15_10h42.02.878,exp3,2022.2.2,
low_opac_i,0.4,1,0.01,3,0.82,3.5,0.01,0,0.01,4,5,Invalid,2,74,220,start,lin,1,0,0,1,0,True,,,,,,,,,,,,,31,A,2023-11-15_10h42.02.878,exp3,2022.2.2,
high_opac_v,0.01,1,0.01,3,0.82,3.5,0.01,0,0.01,4,5,Valid,1,74,221,start,lin,0.5167619250606694,0,1,0.5167619250606694,1,True,,,,,,,,,,,,,31,A,2023-11-15_10h42.02.878,exp3,2022.2.2,
low_opac_v,0.4,1,0.01,3,0.82,3.5,0.01,0,0.01,4,5,Valid,0,75,222,start,lin,0.7914738866740758,0,1,0.7914738866740758,1,True,,,,,,,,,,,,,31,A,2023-11-15_10h42.02.878,exp3,2022.2.2,
high_opac_v,0.01,1,0.01,3,0.82,3.5,0.01,0,0.01,4,5,Valid,1,75,223,start,lin,0.5154968935424138,0.5154968935424138,1,0.5154968935424138,1,True,,,,,,,,,,,,,31,A,2023-11-15_10h42.02.878,exp3,2022.2.2,
low_opac_i,0.4,1,0.01,3,0.82,3.5,0.01,0,0.01,4,5,Invalid,2,75,224,start,lin,1,1,0,1,0,True,,,,,,,,,,,,,31,A,2023-11-15_10h42.02.878,exp3,2022.2.2,
,,,,,,,,,,,,,,,,,,,,,,,,0,1158,Invalid,signal,-45,1,7.574708600062877,1,2.0,12.057683899998665,True,2,31,A,2023-11-15_10h42.02.878,exp3,2022.2.2,
,,,,,,,,,,,,,,,,,,,,,,,,0,-1716,Invalid,signal,-45,2,2.4948714000638574,0,3.0,8.348154800012708,True,2,31,A,2023-11-15_10h42.02.878,exp3,2022.2.2,
,,,,,,,,,,,,,,,,,,,,,,,,0,1716,Invalid,signal,45,2,2.772257899865508,0,2.0,4.079980899812654,True,1,31,A,2023-11-15_10h42.02.878,exp3,2022.2.2,
,,,,,,,,,,,,,,,,,,,,,,,,0,2274,Valid,signal,-45,2,2.286578099941835,0,1.0,5.780199200147763,True,2,31,A,2023-11-15_10h42.02.878,exp3,2022.2.2,
,,,,,,,,,,,,,,,,,,,,,,,,0,-1716,Valid,noise,-45,2,1.6387618998996913,1,3.0,2.946656099986285,True,1,31,A,2023-11-15_10h42.02.878,exp3,2022.2.2,
,,,,,,,,,,,,,,,,,,,,,,,,0,-2274,Invalid,signal,45,2,4.555409299908206,0,1.0,5.863284299848601,True,1,31,A,2023-11-15_10h42.02.878,exp3,2022.2.2,
,,,,,,,,,,,,,,,,,,,,,,,,0,557,Valid,signal,45,1,2.3380883999634534,1,4.0,3.6460121001582593,True,1,31,A,2023-11-15_10h42.02.878,exp3,2022.2.2,
,,,,,,,,,,,,,,,,,,,,,,,,0,557,Valid,noise,-45,2,1.6399756998289376,1,4.0,8.331932100001723,True,4,31,A,2023-11-15_10h42.02.878,exp3,2022.2.2,
,,,,,,,,,,,,,,,,,,,,,,,,0,1716,Invalid,noise,45,2,4.372712700162083,1,2.0,5.680748600047082,True,1,31,A,2023-11-15_10h42.02.878,exp3,2022.2.2,
,,,,,,,,,,,,,,,,,,,,,,,,0,1158,Valid,signal,45,1,1.9883191001135856,1,3.0,3.296339000109583,True,1,31,A,2023-11-15_10h42.02.878,exp3,2022.2.2,
,,,,,,,,,,,,,,,,,,,,,,,,0,-1716,Valid,signal,-45,2,1.8390140999108553,0,4.0,3.1467673999723047,True,1,31,A,2023-11-15_10h42.02.878,exp3,2022.2.2,
,,,,,,,,,,,,,,,,,,,,,,,,0,-1158,Valid,noise,45,2,1.5182922999374568,1,4.0,4.6134030998218805,True,2,31,A,2023-11-15_10h42.02.878,exp3,2022.2.2,
,,,,,,,,,,,,,,,,,,,,,,,,0,-557,Valid,noise,45,2,1.3743744001258165,1,4.0,13.683131900150329,True,6,31,A,2023-11-15_10h42.02.878,exp3,2022.2.2,
,,,,,,,,,,,,,,,,,,,,,,,,0,1158,Valid,noise,-45,2,1.3382242999505252,1,4.0,2.6460040998645127,True,1,31,A,2023-11-15_10h42.02.878,exp3,2022.2.2,
,,,,,,,,,,,,,,,,,,,,,,,,0,-2274,Invalid,noise,45,2,2.705583600094542,1,4.0,18.785622199997306,True,8,31,A,2023-11-15_10h42.02.878,exp3,2022.2.2,
,,,,,,,,,,,,,,,,,,,,,,,,0,-2274,Valid,signal,45,1,2.3548904999624938,1,2.0,3.662755500059575,True,1,31,A,2023-11-15_10h42.02.878,exp3,2022.2.2,
,,,,,,,,,,,,,,,,,,,,,,,,0,-557,Valid,noise,45,2,2.3315902000758797,1,4.0,8.448190599912778,True,3,31,A,2023-11-15_10h42.02.878,exp3,2022.2.2,
,,,,,,,,,,,,,,,,,,,,,,,,0,-1716,Valid,noise,-45,2,1.338168099988252,1,4.0,2.646164400037378,True,1,31,A,2023-11-15_10h42.02.878,exp3,2022.2.2,
,,,,,,,,,,,,,,,,,,,,,,,,0,1158,Valid,signal,-45,1,1.471412800019607,1,4.0,2.77956679998897,True,1,31,A,2023-11-15_10h42.02.878,exp3,2022.2.2,
,,,,,,,,,,,,,,,,,,,,,,,,0,-557,Valid,signal,-45,1,1.5047200999688357,1,4.0,2.812934899935499,True,1,31,A,2023-11-15_10h42.02.878,exp3,2022.2.2,
,,,,,,,,,,,,,,,,,,,,,,,,0,-1716,Valid,noise,45,2,1.1719005999621004,1,4.0,2.4794944000896066,True,1,31,A,2023-11-15_10h42.02.878,exp3,2022.2.2,
,,,,,,,,,,,,,,,,,,,,,,,,0,-1716,Invalid,signal,-45,2,1.1050545000471175,0,4.0,2.4127931999973953,True,1,31,A,2023-11-15_10h42.02.878,exp3,2022.2.2,
,,,,,,,,,,,,,,,,,,,,,,,,0,-1716,Valid,noise,-45,2,1.5181861000601202,1,4.0,9.415131599875167,True,3,31,A,2023-11-15_10h42.02.878,exp3,2022.2.2,
,,,,,,,,,,,,,,,,,,,,,,,,0,-1158,Valid,signal,45,1,1.2703696000389755,1,4.0,2.5785135000478476,True,1,31,A,2023-11-15_10h42.02.878,exp3,2022.2.2,
,,,,,,,,,,,,,,,,,,,,,,,,0,557,Valid,signal,45,1,0.9889095998369157,1,4.0,2.2967689998913556,True,1,31,A,2023-11-15_10h42.02.878,exp3,2022.2.2,
,,,,,,,,,,,,,,,,,,,,,,,,0,1716,Valid,signal,45,1,1.1041452002245933,1,4.0,2.4119317000731826,True,1,31,A,2023-11-15_10h42.02.878,exp3,2022.2.2,
,,,,,,,,,,,,,,,,,,,,,,,,0,-557,Valid,noise,-45,1,1.2546331998892128,0,4.0,2.562617299845442,True,1,31,A,2023-11-15_10h42.02.878,exp3,2022.2.2,
,,,,,,,,,,,,,,,,,,,,,,,,0,2274,Valid,noise,45,1,2.6728135000448674,0,2.0,8.19878609990701,True,2,31,A,2023-11-15_10h42.02.878,exp3,2022.2.2,
,,,,,,,,,,,,,,,,,,,,,,,,0,1716,Valid,noise,45,2,1.4382243000436574,1,4.0,2.746059900149703,True,1,31,A,2023-11-15_10h42.02.878,exp3,2022.2.2,
,,,,,,,,,,,,,,,,,,,,,,,,0,-1716,Valid,noise,-45,2,1.005115200066939,1,4.0,2.3126948999706656,True,1,31,A,2023-11-15_10h42.02.878,exp3,2022.2.2,
,,,,,,,,,,,,,,,,,,,,,,,,0,1716,Valid,noise,45,2,0.9215118000283837,1,4.0,2.2292339000850916,True,1,31,A,2023-11-15_10h42.02.878,exp3,2022.2.2,
,,,,,,,,,,,,,,,,,,,,,,,,0,-1158,Invalid,noise,45,2,2.3485377999022603,1,2.0,13.96638790005818,True,4,31,A,2023-11-15_10h42.02.878,exp3,2022.2.2,
,,,,,,,,,,,,,,,,,,,,,,,,0,-1716,Valid,signal,-45,2,2.038292200071737,0,2.0,3.346383099909872,True,1,31,A,2023-11-15_10h42.02.878,exp3,2022.2.2,
,,,,,,,,,,,,,,,,,,,,,,,,0,-1158,Valid,signal,-45,1,1.071421300061047,1,3.0,2.3793005999177694,True,1,31,A,2023-11-15_10h42.02.878,exp3,2022.2.2,
,,,,,,,,,,,,,,,,,,,,,,,,0,-1158,Invalid,noise,45,1,2.871912800008431,0,4.0,4.180129099870101,True,1,31,A,2023-11-15_10h42.02.878,exp3,2022.2.2,
,,,,,,,,,,,,,,,,,,,,,,,,0,557,Valid,noise,45,2,1.0878435000777245,1,4.0,2.39594620000571,True,1,31,A,2023-11-15_10h42.02.878,exp3,2022.2.2,
,,,,,,,,,,,,,,,,,,,,,,,,0,1716,Valid,noise,-45,2,1.1255524000152946,1,4.0,4.296973899938166,True,2,31,A,2023-11-15_10h42.02.878,exp3,2022.2.2,
,,,,,,,,,,,,,,,,,,,,,,,,0,-557,Valid,signal,-45,1,2.662533499998972,1,4.0,5.71421099989675,True,2,31,A,2023-11-15_10h42.02.878,exp3,2022.2.2,
,,,,,,,,,,,,,,,,,,,,,,,,0,557,Invalid,noise,45,2,1.321587699931115,1,4.0,2.6295071998611093,True,1,31,A,2023-11-15_10h42.02.878,exp3,2022.2.2,
,,,,,,,,,,,,,,,,,,,,,,,,0,-557,Invalid,signal,-45,1,1.3212220999412239,1,4.0,2.629018400097266,True,1,31,A,2023-11-15_10h42.02.878,exp3,2022.2.2,
,,,,,,,,,,,,,,,,,,,,,,,,0,557,Valid,signal,-45,1,1.0880578998476267,1,4.0,2.3956762000452727,True,1,31,A,2023-11-15_10h42.02.878,exp3,2022.2.2,
,,,,,,,,,,,,,,,,,,,,,,,,0,557,Valid,signal,45,1,1.2214079999830574,1,4.0,2.5292860998306423,True,1,31,A,2023-11-15_10h42.02.878,exp3,2022.2.2,
,,,,,,,,,,,,,,,,,,,,,,,,0,557,Valid,noise,-45,2,0.9713231001514941,1,4.0,2.2789860998746008,True,1,31,A,2023-11-15_10h42.02.878,exp3,2022.2.2,
,,,,,,,,,,,,,,,,,,,,,,,,0,1716,Valid,signal,-45,1,1.0216208000201732,1,4.0,2.329103299882263,True,1,31,A,2023-11-15_10h42.02.878,exp3,2022.2.2,
,,,,,,,,,,,,,,,,,,,,,,,,0,-557,Invalid,noise,-45,2,1.2028020001016557,1,4.0,7.014396799961105,True,3,31,A,2023-11-15_10h42.02.878,exp3,2022.2.2,
,,,,,,,,,,,,,,,,,,,,,,,,0,1716,Valid,signal,-45,2,1.1543034000787884,0,4.0,2.4622261999174953,True,1,31,A,2023-11-15_10h42.02.878,exp3,2022.2.2,
,,,,,,,,,,,,,,,,,,,,,,,,0,-557,Valid,signal,-45,1,1.104338499950245,1,4.0,2.4124276998918504,True,1,31,A,2023-11-15_10h42.02.878,exp3,2022.2.2,
,,,,,,,,,,,,,,,,,,,,,,,,0,-1158,Valid,signal,-45,1,0.8885682998225093,1,4.0,2.1961977002210915,True,1,31,A,2023-11-15_10h42.02.878,exp3,2022.2.2,
,,,,,,,,,,,,,,,,,,,,,,,,0,-2274,Valid,signal,45,1,2.4503853002097458,1,3.0,6.763815300073475,True,2,31,A,2023-11-15_10h42.02.878,exp3,2022.2.2,
,,,,,,,,,,,,,,,,,,,,,,,,0,-1716,Valid,noise,45,2,1.1387836001813412,1,4.0,2.4464728001039475,True,1,31,A,2023-11-15_10h42.02.878,exp3,2022.2.2,
,,,,,,,,,,,,,,,,,,,,,,,,0,2274,Valid,signal,-45,2,1.1549053001217544,0,4.0,2.4625495998188853,True,1,31,A,2023-11-15_10h42.02.878,exp3,2022.2.2,
,,,,,,,,,,,,,,,,,,,,,,,,0,-1716,Invalid,noise,-45,2,0.854976300150156,1,4.0,2.1627321999985725,True,1,31,A,2023-11-15_10h42.02.878,exp3,2022.2.2,
,,,,,,,,,,,,,,,,,,,,,,,,0,-1158,Valid,signal,45,1,1.0875545998569578,1,4.0,2.395193099975586,True,1,31,A,2023-11-15_10h42.02.878,exp3,2022.2.2,
,,,,,,,,,,,,,,,,,,,,,,,,0,2274,Valid,noise,-45,1,2.2054596999660134,0,4.0,3.5132341999560595,True,1,31,A,2023-11-15_10h42.02.878,exp3,2022.2.2,
,,,,,,,,,,,,,,,,,,,,,,,,0,-2274,Valid,signal,-45,2,1.1214552999008447,0,4.0,2.4292204999364913,True,1,31,A,2023-11-15_10h42.02.878,exp3,2022.2.2,
,,,,,,,,,,,,,,,,,,,,,,,,0,557,Valid,signal,45,1,1.4577207998372614,1,4.0,4.479655399918556,True,2,31,A,2023-11-15_10h42.02.878,exp3,2022.2.2,
,,,,,,,,,,,,,,,,,,,,,,,,0,-557,Valid,noise,-45,2,0.9378464999608696,1,4.0,2.2456173000391573,True,1,31,A,2023-11-15_10h42.02.878,exp3,2022.2.2,
,,,,,,,,,,,,,,,,,,,,,,,,0,-1158,Valid,noise,45,2,1.8218078000936657,1,4.0,3.1296316999942064,True,1,31,A,2023-11-15_10h42.02.878,exp3,2022.2.2,
,,,,,,,,,,,,,,,,,,,,,,,,0,1158,Valid,noise,45,2,1.0885614999569952,1,4.0,2.396332199918106,True,1,31,A,2023-11-15_10h42.02.878,exp3,2022.2.2,
,,,,,,,,,,,,,,,,,,,,,,,,0,557,Invalid,noise,45,2,1.733881900086999,1,4.0,8.130885299993679,True,2,31,A,2023-11-15_10h42.02.878,exp3,2022.2.2,
,,,,,,,,,,,,,,,,,,,,,,,,0,2274,Valid,noise,45,2,1.7554635000415146,1,4.0,3.063487100182101,True,1,31,A,2023-11-15_10h42.02.878,exp3,2022.2.2,
,,,,,,,,,,,,,,,,,,,,,,,,0,-1716,Invalid,noise,-45,2,1.8940711999312043,1,3.0,14.31690980005078,True,6,31,A,2023-11-15_10h42.02.878,exp3,2022.2.2,
,,,,,,,,,,,,,,,,,,,,,,,,0,-1716,Valid,signal,-45,2,0.9711611999664456,0,3.0,2.2791317999362946,True,1,31,A,2023-11-15_10h42.02.878,exp3,2022.2.2,
,,,,,,,,,,,,,,,,,,,,,,,,0,557,Valid,noise,45,2,0.7553566000424325,1,3.0,2.0629978999495506,True,1,31,A,2023-11-15_10h42.02.878,exp3,2022.2.2,
,,,,,,,,,,,,,,,,,,,,,,,,0,-1158,Valid,noise,45,2,2.237488000188023,1,4.0,3.545416299952194,True,1,31,A,2023-11-15_10h42.02.878,exp3,2022.2.2,
,,,,,,,,,,,,,,,,,,,,,,,,0,-2274,Invalid,signal,-45,2,1.071871600113809,0,4.0,2.3797365999780595,True,1,31,A,2023-11-15_10h42.02.878,exp3,2022.2.2,
,,,,,,,,,,,,,,,,,,,,,,,,0,2274,Valid,noise,-45,2,1.1876605001743883,1,4.0,2.4955742000602186,True,1,31,A,2023-11-15_10h42.02.878,exp3,2022.2.2,
,,,,,,,,,,,,,,,,,,,,,,,,0,-1158,Valid,signal,45,1,1.0968607000540942,1,4.0,5.464229699922726,True,3,31,A,2023-11-15_10h42.02.878,exp3,2022.2.2,
,,,,,,,,,,,,,,,,,,,,,,,,0,-1716,Valid,signal,-45,2,2.534165699966252,0,3.0,9.614964599953964,True,3,31,A,2023-11-15_10h42.02.878,exp3,2022.2.2,
,,,,,,,,,,,,,,,,,,,,,,,,0,-1158,Valid,signal,-45,1,2.1254534998442978,1,4.0,19.385928200092167,True,7,31,A,2023-11-15_10h42.02.878,exp3,2022.2.2,
,,,,,,,,,,,,,,,,,,,,,,,,0,-2274,Valid,signal,-45,2,1.0207536998204887,0,4.0,2.328584099886939,True,1,31,A,2023-11-15_10h42.02.878,exp3,2022.2.2,
,,,,,,,,,,,,,,,,,,,,,,,,0,-1158,Valid,signal,-45,1,1.6990424999967217,1,3.0,12.817762600025162,True,5,31,A,2023-11-15_10h42.02.878,exp3,2022.2.2,
,,,,,,,,,,,,,,,,,,,,,,,,0,557,Valid,noise,45,2,1.2385264001786709,1,3.0,2.5460705999284983,True,1,31,A,2023-11-15_10h42.02.878,exp3,2022.2.2,
,,,,,,,,,,,,,,,,,,,,,,,,0,1158,Valid,noise,45,2,3.0044765998609364,1,2.0,4.312519600149244,True,1,31,A,2023-11-15_10h42.02.878,exp3,2022.2.2,
,,,,,,,,,,,,,,,,,,,,,,,,0,-1716,Valid,noise,45,2,1.2048943999689072,1,4.0,2.5126145998947322,True,1,31,A,2023-11-15_10h42.02.878,exp3,2022.2.2,
,,,,,,,,,,,,,,,,,,,,,,,,0,1158,Valid,signal,45,1,1.3214451998937875,1,4.0,2.629488600185141,True,1,31,A,2023-11-15_10h42.02.878,exp3,2022.2.2,
,,,,,,,,,,,,,,,,,,,,,,,,0,2274,Invalid,signal,-45,2,2.3946418000850827,0,4.0,10.949074199888855,True,4,31,A,2023-11-15_10h42.02.878,exp3,2022.2.2,
,,,,,,,,,,,,,,,,,,,,,,,,0,2274,Valid,signal,-45,2,2.0980590998660773,0,4.0,7.481278399936855,True,3,31,A,2023-11-15_10h42.02.878,exp3,2022.2.2,
,,,,,,,,,,,,,,,,,,,,,,,,0,1716,Valid,signal,-45,2,1.8509506001137197,0,4.0,7.148125300183892,True,2,31,A,2023-11-15_10h42.02.878,exp3,2022.2.2,
,,,,,,,,,,,,,,,,,,,,,,,,0,-2274,Valid,noise,-45,2,1.5220786998979747,1,4.0,2.8298796000890434,True,1,31,A,2023-11-15_10h42.02.878,exp3,2022.2.2,
,,,,,,,,,,,,,,,,,,,,,,,,0,1158,Invalid,noise,-45,1,1.6652414000127465,0,2.0,4.846231300150976,True,2,31,A,2023-11-15_10h42.02.878,exp3,2022.2.2,
,,,,,,,,,,,,,,,,,,,,,,,,0,-2274,Valid,signal,45,2,2.4394523999653757,0,3.0,3.7471525999717414,True,1,31,A,2023-11-15_10h42.02.878,exp3,2022.2.2,
,,,,,,,,,,,,,,,,,,,,,,,,0,1158,Valid,noise,45,2,1.6706858000252396,1,3.0,2.97881369991228,True,1,31,A,2023-11-15_10h42.02.878,exp3,2022.2.2,
,,,,,,,,,,,,,,,,,,,,,,,,0,557,Valid,noise,45,2,1.972438600147143,1,3.0,3.2802347000688314,True,1,31,A,2023-11-15_10h42.02.878,exp3,2022.2.2,
,,,,,,,,,,,,,,,,,,,,,,,,0,-557,Valid,noise,-45,2,1.4707511998713017,1,4.0,2.7785678999498487,True,1,31,A,2023-11-15_10h42.02.878,exp3,2022.2.2,
,,,,,,,,,,,,,,,,,,,,,,,,0,-1716,Valid,signal,45,2,1.0890909999143332,0,4.0,2.3966610999777913,True,1,31,A,2023-11-15_10h42.02.878,exp3,2022.2.2,
,,,,,,,,,,,,,,,,,,,,,,,,0,-1716,Valid,noise,45,2,1.4783238999079913,1,4.0,6.6302054999396205,True,3,31,A,2023-11-15_10h42.02.878,exp3,2022.2.2,
,,,,,,,,,,,,,,,,,,,,,,,,0,1158,Valid,signal,45,1,1.433692199876532,1,4.0,6.214789600111544,True,3,31,A,2023-11-15_10h42.02.878,exp3,2022.2.2,
,,,,,,,,,,,,,,,,,,,,,,,,0,-557,Valid,signal,-45,1,1.9715166001114994,1,4.0,3.279494100017473,True,1,31,A,2023-11-15_10h42.02.878,exp3,2022.2.2,
,,,,,,,,,,,,,,,,,,,,,,,,0,2274,Invalid,noise,45,1,1.404116899939254,0,4.0,2.711917100008577,True,1,31,A,2023-11-15_10h42.02.878,exp3,2022.2.2,
,,,,,,,,,,,,,,,,,,,,,,,,0,557,Valid,noise,-45,2,2.0797619000077248,1,4.0,5.013483399990946,True,2,31,A,2023-11-15_10h42.02.878,exp3,2022.2.2,
,,,,,,,,,,,,,,,,,,,,,,,,0,2274,Valid,signal,-45,2,1.7827542000450194,0,4.0,6.297300799982622,True,2,31,A,2023-11-15_10h42.02.878,exp3,2022.2.2,
,,,,,,,,,,,,,,,,,,,,,,,,0,2274,Valid,signal,-45,2,1.6030260999687016,0,4.0,11.983221499947831,True,3,31,A,2023-11-15_10h42.02.878,exp3,2022.2.2,
,,,,,,,,,,,,,,,,,,,,,,,,0,2274,Valid,signal,45,2,3.3382641999050975,0,4.0,4.646389700006694,True,1,31,A,2023-11-15_10h42.02.878,exp3,2022.2.2,
,,,,,,,,,,,,,,,,,,,,,,,,0,1158,Valid,noise,45,1,1.3980793999508023,0,3.0,5.297332700109109,True,2,31,A,2023-11-15_10h42.02.878,exp3,2022.2.2,
,,,,,,,,,,,,,,,,,,,,,,,,0,-557,Valid,signal,-45,1,2.287808299995959,1,4.0,3.595842400100082,True,1,31,A,2023-11-15_10h42.02.878,exp3,2022.2.2,
,,,,,,,,,,,,,,,,,,,,,,,,0,-557,Valid,noise,-45,2,4.358105099992827,1,4.0,25.70495120016858,True,7,31,A,2023-11-15_10h42.02.878,exp3,2022.2.2,
,,,,,,,,,,,,,,,,,,,,,,,,0,1158,Valid,noise,45,1,2.4486151000019163,0,4.0,47.63037779997103,True,9,31,A,2023-11-15_10h42.02.878,exp3,2022.2.2,
,,,,,,,,,,,,,,,,,,,,,,,,0,1716,Valid,signal,-45,2,2.5943247999530286,0,4.0,6.164084800053388,True,2,31,A,2023-11-15_10h42.02.878,exp3,2022.2.2,
,,,,,,,,,,,,,,,,,,,,,,,,0,-557,Valid,signal,45,1,1.2536259000189602,1,4.0,4.229983100201935,True,2,31,A,2023-11-15_10h42.02.878,exp3,2022.2.2,
,,,,,,,,,,,,,,,,,,,,,,,,0,-2274,Valid,noise,45,2,1.705636299913749,1,4.0,3.013570699840784,True,1,31,A,2023-11-15_10h42.02.878,exp3,2022.2.2,
,,,,,,,,,,,,,,,,,,,,,,,,0,-1716,Valid,signal,-45,2,1.3040904998779297,0,4.0,2.6119721001014113,True,1,31,A,2023-11-15_10h42.02.878,exp3,2022.2.2,
,,,,,,,,,,,,,,,,,,,,,,,,0,1158,Valid,signal,45,2,3.3198243998922408,0,4.0,8.031623099930584,True,2,31,A,2023-11-15_10h42.02.878,exp3,2022.2.2,
,,,,,,,,,,,,,,,,,,,,,,,,0,-557,Invalid,signal,45,1,1.4121469999663532,1,4.0,10.01554729999043,True,2,31,A,2023-11-15_10h42.02.878,exp3,2022.2.2,
,,,,,,,,,,,,,,,,,,,,,,,,0,-1716,Valid,signal,45,1,1.4125826000235975,1,3.0,16.467712400015444,True,7,31,A,2023-11-15_10h42.02.878,exp3,2022.2.2,
,,,,,,,,,,,,,,,,,,,,,,,,0,-557,Valid,signal,45,1,1.668636699905619,1,3.0,14.417520399903879,True,6,31,A,2023-11-15_10h42.02.878,exp3,2022.2.2,
,,,,,,,,,,,,,,,,,,,,,,,,0,1716,Valid,noise,-45,2,3.6890181000344455,1,4.0,10.198538399999961,True,3,31,A,2023-11-15_10h42.02.878,exp3,2022.2.2,
,,,,,,,,,,,,,,,,,,,,,,,,0,1716,Valid,noise,-45,2,1.6548510000575334,1,3.0,2.9627458001486957,True,1,31,A,2023-11-15_10h42.02.878,exp3,2022.2.2,
,,,,,,,,,,,,,,,,,,,,,,,,0,1158,Valid,signal,45,1,1.3511731000617146,1,3.0,8.481049900176004,True,4,31,A,2023-11-15_10h42.02.878,exp3,2022.2.2,
,,,,,,,,,,,,,,,,,,,,,,,,0,1716,Valid,noise,45,1,1.95163800008595,0,2.0,22.570516800042242,True,7,31,A,2023-11-15_10h42.02.878,exp3,2022.2.2,
,,,,,,,,,,,,,,,,,,,,,,,,0,-1716,Valid,signal,-45,2,1.9548357999883592,0,2.0,3.262955999933183,True,1,31,A,2023-11-15_10h42.02.878,exp3,2022.2.2,
,,,,,,,,,,,,,,,,,,,,,,,,0,-2274,Valid,noise,-45,1,1.6055693998932838,0,4.0,2.9134103001561016,True,1,31,A,2023-11-15_10h42.02.878,exp3,2022.2.2,
,,,,,,,,,,,,,,,,,,,,,,,,0,2274,Valid,signal,-45,1,1.854837000137195,1,4.0,3.1624068999662995,True,1,31,A,2023-11-15_10h42.02.878,exp3,2022.2.2,
,,,,,,,,,,,,,,,,,,,,,,,,0,1158,Valid,signal,45,1,1.302493100054562,1,3.0,5.063142100116238,True,2,31,A,2023-11-15_10h42.02.878,exp3,2022.2.2,
,,,,,,,,,,,,,,,,,,,,,,,,0,2274,Invalid,noise,45,1,1.5602871000301093,0,3.0,20.01991940010339,True,9,31,A,2023-11-15_10h42.02.878,exp3,2022.2.2,
,,,,,,,,,,,,,,,,,,,,,,,,0,-1158,Valid,noise,45,1,1.4208081001415849,0,3.0,2.7291516000404954,True,1,31,A,2023-11-15_10h42.02.878,exp3,2022.2.2,
,,,,,,,,,,,,,,,,,,,,,,,,0,-1158,Valid,noise,-45,2,1.47653830004856,1,3.0,11.048841000068933,True,3,31,A,2023-11-15_10h42.02.878,exp3,2022.2.2,
,,,,,,,,,,,,,,,,,,,,,,,,0,2274,Valid,noise,-45,1,2.559378700098023,0,3.0,10.349058400141075,True,4,31,A,2023-11-15_10h42.02.878,exp3,2022.2.2,
,,,,,,,,,,,,,,,,,,,,,,,,0,-2274,Valid,noise,45,1,3.388235100079328,0,4.0,8.414968800032511,True,3,31,A,2023-11-15_10h42.02.878,exp3,2022.2.2,
,,,,,,,,,,,,,,,,,,,,,,,,0,-2274,Valid,noise,45,2,1.3046097999904305,1,3.0,2.6125484998337924,True,1,31,A,2023-11-15_10h42.02.878,exp3,2022.2.2,
,,,,,,,,,,,,,,,,,,,,,,,,0,-1158,Valid,noise,45,2,1.4212704000528902,1,3.0,2.7291994001716375,True,1,31,A,2023-11-15_10h42.02.878,exp3,2022.2.2,
,,,,,,,,,,,,,,,,,,,,,,,,0,1716,Valid,signal,45,2,1.6405696999281645,0,4.0,59.71818850003183,True,15,31,A,2023-11-15_10h42.02.878,exp3,2022.2.2,
,,,,,,,,,,,,,,,,,,,,,,,,0,-1158,Valid,signal,45,1,0.9048866000957787,1,4.0,2.212640800047666,True,1,31,A,2023-11-15_10h42.02.878,exp3,2022.2.2,
,,,,,,,,,,,,,,,,,,,,,,,,0,-557,Invalid,noise,-45,2,1.2549946999642998,1,4.0,2.5626623001880944,True,1,31,A,2023-11-15_10h42.02.878,exp3,2022.2.2,
,,,,,,,,,,,,,,,,,,,,,,,,0,1158,Valid,signal,45,2,1.3504929000046104,0,4.0,4.462957500014454,True,2,31,A,2023-11-15_10h42.02.878,exp3,2022.2.2,
,,,,,,,,,,,,,,,,,,,,,,,,0,-557,Valid,noise,-45,1,1.9046893999911845,0,4.0,3.2128799001220614,True,1,31,A,2023-11-15_10h42.02.878,exp3,2022.2.2,
,,,,,,,,,,,,,,,,,,,,,,,,0,-2274,Valid,signal,45,2,0.8472598998341709,0,4.0,4.063735299976543,True,2,31,A,2023-11-15_10h42.02.878,exp3,2022.2.2,
,,,,,,,,,,,,,,,,,,,,,,,,0,557,Invalid,signal,-45,2,2.37742600007914,0,4.0,11.565754499984905,True,5,31,A,2023-11-15_10h42.02.878,exp3,2022.2.2,
,,,,,,,,,,,,,,,,,,,,,,,,0,557,Valid,noise,-45,2,1.4139676000922918,1,3.0,4.446053699823096,True,2,31,A,2023-11-15_10h42.02.878,exp3,2022.2.2,
,,,,,,,,,,,,,,,,,,,,,,,,0,-1158,Valid,noise,45,2,1.3583452000748366,1,3.0,15.467893899884075,True,8,31,A,2023-11-15_10h42.02.878,exp3,2022.2.2,
,,,,,,,,,,,,,,,,,,,,,,,,0,-557,Valid,signal,-45,2,1.2051347999367863,0,3.0,2.512908299919218,True,1,31,A,2023-11-15_10h42.02.878,exp3,2022.2.2,
,,,,,,,,,,,,,,,,,,,,,,,,0,1158,Invalid,noise,45,2,0.9708225999493152,1,3.0,2.2787381999660283,True,1,31,A,2023-11-15_10h42.02.878,exp3,2022.2.2,
,,,,,,,,,,,,,,,,,,,,,,,,0,-2274,Valid,noise,-45,2,0.788232299964875,1,3.0,2.096211399883032,True,1,31,A,2023-11-15_10h42.02.878,exp3,2022.2.2,
,,,,,,,,,,,,,,,,,,,,,,,,0,1158,Valid,noise,-45,1,2.0382894000504166,0,2.0,3.345832500141114,True,1,31,A,2023-11-15_10h42.02.878,exp3,2022.2.2,
,,,,,,,,,,,,,,,,,,,,,,,,0,-557,Valid,noise,45,2,1.2053259999956936,1,3.0,2.513131400104612,True,1,31,A,2023-11-15_10h42.02.878,exp3,2022.2.2,
,,,,,,,,,,,,,,,,,,,,,,,,0,-1158,Invalid,signal,-45,2,1.417993500130251,0,3.0,8.08095599990338,True,3,31,A,2023-11-15_10h42.02.878,exp3,2022.2.2,
,,,,,,,,,,,,,,,,,,,,,,,,0,-557,Valid,noise,-45,1,2.005313300061971,0,3.0,3.3130185999907553,True,1,31,A,2023-11-15_10h42.02.878,exp3,2022.2.2,
,,,,,,,,,,,,,,,,,,,,,,,,0,-2274,Valid,noise,45,2,0.804861799813807,1,3.0,2.1125986999832094,True,1,31,A,2023-11-15_10h42.02.878,exp3,2022.2.2,
,,,,,,,,,,,,,,,,,,,,,,,,0,-2274,Valid,noise,45,2,1.2643430000171065,1,3.0,4.362939599901438,True,2,31,A,2023-11-15_10h42.02.878,exp3,2022.2.2,
,,,,,,,,,,,,,,,,,,,,,,,,0,-1158,Valid,noise,-45,2,0.9546195999719203,1,3.0,2.2625072998926044,True,1,31,A,2023-11-15_10h42.02.878,exp3,2022.2.2,
,,,,,,,,,,,,,,,,,,,,,,,,0,2274,Valid,signal,-45,2,1.3950385001953691,0,3.0,7.26480510015972,True,2,31,A,2023-11-15_10h42.02.878,exp3,2022.2.2,
,,,,,,,,,,,,,,,,,,,,,,,,0,-1158,Valid,signal,-45,1,0.8040957998018712,1,3.0,2.1121360000688583,True,1,31,A,2023-11-15_10h42.02.878,exp3,2022.2.2,
,,,,,,,,,,,,,,,,,,,,,,,,0,1716,Valid,signal,45,1,1.038167499937117,1,3.0,2.346014100126922,True,1,31,A,2023-11-15_10h42.02.878,exp3,2022.2.2,
,,,,,,,,,,,,,,,,,,,,,,,,0,-557,Valid,signal,45,1,0.7715715002268553,1,3.0,2.079401700058952,True,1,31,A,2023-11-15_10h42.02.878,exp3,2022.2.2,
,,,,,,,,,,,,,,,,,,,,,,,,0,2274,Invalid,signal,-45,1,2.005443900125101,1,1.0,3.313189199892804,True,1,31,A,2023-11-15_10h42.02.878,exp3,2022.2.2,
,,,,,,,,,,,,,,,,,,,,,,,,0,1716,Valid,noise,45,2,1.1371023999527097,1,3.0,2.4449718999676406,True,1,31,A,2023-11-15_10h42.02.878,exp3,2022.2.2,
,,,,,,,,,,,,,,,,,,,,,,,,0,1716,Valid,noise,45,2,1.0717814001254737,1,3.0,2.3796461999882013,True,1,31,A,2023-11-15_10h42.02.878,exp3,2022.2.2,
,,,,,,,,,,,,,,,,,,,,,,,,0,2274,Valid,signal,45,2,1.1545114999171346,0,3.0,2.4623869000934064,True,1,31,A,2023-11-15_10h42.02.878,exp3,2022.2.2,
,,,,,,,,,,,,,,,,,,,,,,,,0,-2274,Valid,signal,45,1,2.0221274001523852,1,2.0,3.329924700083211,True,1,31,A,2023-11-15_10h42.02.878,exp3,2022.2.2,
,,,,,,,,,,,,,,,,,,,,,,,,0,-2274,Valid,signal,45,1,1.1880320000927895,1,3.0,2.495837700087577,True,1,31,A,2023-11-15_10h42.02.878,exp3,2022.2.2,
,,,,,,,,,,,,,,,,,,,,,,,,0,1158,Valid,noise,-45,1,1.2216469999402761,0,3.0,2.529445799998939,True,1,31,A,2023-11-15_10h42.02.878,exp3,2022.2.2,
,,,,,,,,,,,,,,,,,,,,,,,,0,-2274,Invalid,noise,45,1,2.569106100127101,0,4.0,6.413967700209469,True,2,31,A,2023-11-15_10h42.02.878,exp3,2022.2.2,
,,,,,,,,,,,,,,,,,,,,,,,,0,1716,Invalid,noise,-45,1,1.672186200041324,0,3.0,6.130895599955693,True,2,31,A,2023-11-15_10h42.02.878,exp3,2022.2.2,
,,,,,,,,,,,,,,,,,,,,,,,,0,2274,Valid,noise,45,2,1.4403691000770777,1,3.0,8.73154930002056,True,2,31,A,2023-11-15_10h42.02.878,exp3,2022.2.2,
,,,,,,,,,,,,,,,,,,,,,,,,0,1158,Invalid,signal,45,1,0.9380155999679118,1,3.0,2.245741599937901,True,1,31,A,2023-11-15_10h42.02.878,exp3,2022.2.2,
,,,,,,,,,,,,,,,,,,,,,,,,0,-1158,Valid,noise,-45,1,0.7212779999244958,0,3.0,2.0291138000320643,True,1,31,A,2023-11-15_10h42.02.878,exp3,2022.2.2,
,,,,,,,,,,,,,,,,,,,,,,,,0,-2274,Valid,noise,45,1,2.1716696000657976,0,3.0,3.4799089999869466,True,1,31,A,2023-11-15_10h42.02.878,exp3,2022.2.2,
,,,,,,,,,,,,,,,,,,,,,,,,0,1716,Valid,signal,45,2,2.2058232000563294,0,4.0,3.513457299908623,True,1,31,A,2023-11-15_10h42.02.878,exp3,2022.2.2,
,,,,,,,,,,,,,,,,,,,,,,,,0,557,Valid,signal,-45,1,1.3380112999584526,1,4.0,2.6457028000149876,True,1,31,A,2023-11-15_10h42.02.878,exp3,2022.2.2,
,,,,,,,,,,,,,,,,,,,,,,,,0,-1158,Invalid,signal,-45,1,0.9707603000570089,1,4.0,2.278666300000623,True,1,31,A,2023-11-15_10h42.02.878,exp3,2022.2.2,
,,,,,,,,,,,,,,,,,,,,,,,,0,-1716,Valid,noise,45,2,0.9547409999649972,1,4.0,2.262730099959299,True,1,31,A,2023-11-15_10h42.02.878,exp3,2022.2.2,
,,,,,,,,,,,,,,,,,,,,,,,,0,1716,Valid,noise,-45,2,1.0876863999292254,1,4.0,2.395764400018379,True,1,31,A,2023-11-15_10h42.02.878,exp3,2022.2.2,
,,,,,,,,,,,,,,,,,,,,,,,,0,2274,Valid,noise,45,2,1.02146300021559,1,4.0,2.329430100042373,True,1,31,A,2023-11-15_10h42.02.878,exp3,2022.2.2,
,,,,,,,,,,,,,,,,,,,,,,,,0,557,Valid,signal,45,1,0.9544861998874694,1,4.0,2.2627469999715686,True,1,31,A,2023-11-15_10h42.02.878,exp3,2022.2.2,
,,,,,,,,,,,,,,,,,,,,,,,,0,557,Invalid,signal,45,1,1.765667000086978,1,4.0,7.9980371000710875,True,3,31,A,2023-11-15_10h42.02.878,exp3,2022.2.2,
,,,,,,,,,,,,,,,,,,,,,,,,0,1716,Invalid,signal,-45,1,0.8544411000330001,1,4.0,2.1623402000404894,True,1,31,A,2023-11-15_10h42.02.878,exp3,2022.2.2,
,,,,,,,,,,,,,,,,,,,,,,,,0,1158,Valid,signal,-45,1,0.7548655001446605,1,4.0,2.0628686998970807,True,1,31,A,2023-11-15_10h42.02.878,exp3,2022.2.2,
,,,,,,,,,,,,,,,,,,,,,,,,0,-2274,Valid,signal,-45,1,1.054960499983281,1,4.0,2.3627395001240075,True,1,31,A,2023-11-15_10h42.02.878,exp3,2022.2.2,
,,,,,,,,,,,,,,,,,,,,,,,,0,2274,Valid,noise,-45,1,0.8041229001246393,0,4.0,2.111957099987194,True,1,31,A,2023-11-15_10h42.02.878,exp3,2022.2.2,
,,,,,,,,,,,,,,,,,,,,,,,,0,557,Valid,signal,45,1,0.938234900124371,1,4.0,2.2461278999689966,True,1,31,A,2023-11-15_10h42.02.878,exp3,2022.2.2,
,,,,,,,,,,,,,,,,,,,,,,,,0,557,Valid,noise,45,2,0.9716595001518726,1,4.0,2.279333299957216,True,1,31,A,2023-11-15_10h42.02.878,exp3,2022.2.2,
,,,,,,,,,,,,,,,,,,,,,,,,0,1716,Valid,signal,45,2,0.904718599980697,0,4.0,2.212382599944249,True,1,31,A,2023-11-15_10h42.02.878,exp3,2022.2.2,
,,,,,,,,,,,,,,,,,,,,,,,,0,-1716,Valid,signal,-45,1,0.8053049000445753,1,4.0,2.1129719999153167,True,1,31,A,2023-11-15_10h42.02.878,exp3,2022.2.2,
,,,,,,,,,,,,,,,,,,,,,,,,0,557,Valid,signal,45,2,0.9541868001688272,0,4.0,2.2619742997922003,True,1,31,A,2023-11-15_10h42.02.878,exp3,2022.2.2,
,,,,,,,,,,,,,,,,,,,,,,,,0,2274,Valid,noise,45,2,0.937962899915874,1,4.0,2.245620199944824,True,1,31,A,2023-11-15_10h42.02.878,exp3,2022.2.2,
,,,,,,,,,,,,,,,,,,,,,,,,0,1158,Valid,noise,-45,1,0.921656500082463,0,4.0,2.2293088999576867,True,1,31,A,2023-11-15_10h42.02.878,exp3,2022.2.2,
,,,,,,,,,,,,,,,,,,,,,,,,1,1158,Valid,signal,-45,2,2.3325284998863935,0,3.0,3.640859500039369,True,1,31,A,2023-11-15_10h42.02.878,exp3,2022.2.2,
,,,,,,,,,,,,,,,,,,,,,,,,2,557,Valid,noise,45,1,1.8358457998838276,0,1.0,3.1459836000576615,True,1,31,A,2023-11-15_10h42.02.878,exp3,2022.2.2,
,,,,,,,,,,,,,,,,,,,,,,,,3,-557,Valid,noise,45,1,4.405032000038773,0,1.0,5.713353799888864,True,1,31,A,2023-11-15_10h42.02.878,exp3,2022.2.2,
,,,,,,,,,,,,,,,,,,,,,,,,4,2274,Valid,noise,-45,2,2.3383044998627156,1,4.0,3.6464343999978155,True,1,31,A,2023-11-15_10h42.02.878,exp3,2022.2.2,
,,,,,,,,,,,,,,,,,,,,,,,,5,2274,Invalid,signal,45,1,0.9710717999842018,1,4.0,2.279223799938336,True,1,31,A,2023-11-15_10h42.02.878,exp3,2022.2.2,
,,,,,,,,,,,,,,,,,,,,,,,,6,2274,Valid,noise,45,2,1.7714219000190496,1,3.0,3.079561799997464,True,1,31,A,2023-11-15_10h42.02.878,exp3,2022.2.2,
,,,,,,,,,,,,,,,,,,,,,,,,7,1158,Invalid,signal,-45,2,5.00580279994756,0,3.0,16.934780100127682,True,6,31,A,2023-11-15_10h42.02.878,exp3,2022.2.2,
,,,,,,,,,,,,,,,,,,,,,,,,8,-1716,Valid,signal,45,1,0.821033300133422,1,3.0,2.1291956999339163,True,1,31,A,2023-11-15_10h42.02.878,exp3,2022.2.2,
,,,,,,,,,,,,,,,,,,,,,,,,9,-1716,Valid,noise,45,2,1.0917929999995977,1,3.0,6.314004099927843,True,2,31,A,2023-11-15_10h42.02.878,exp3,2022.2.2,
,,,,,,,,,,,,,,,,,,,,,,,,10,-557,Valid,signal,45,1,0.9377815001644194,1,3.0,2.2460896999109536,True,1,31,A,2023-11-15_10h42.02.878,exp3,2022.2.2,
,,,,,,,,,,,,,,,,,,,,,,,,11,-1716,Valid,noise,-45,2,0.803699400043115,1,3.0,2.112162500154227,True,1,31,A,2023-11-15_10h42.02.878,exp3,2022.2.2,
,,,,,,,,,,,,,,,,,,,,,,,,12,1158,Valid,noise,45,1,0.7876591000240296,0,3.0,2.0958136001136154,True,1,31,A,2023-11-15_10h42.02.878,exp3,2022.2.2,
,,,,,,,,,,,,,,,,,,,,,,,,13,1716,Valid,signal,-45,2,0.5042665000073612,0,3.0,1.81242539989762,True,1,31,A,2023-11-15_10h42.02.878,exp3,2022.2.2,
,,,,,,,,,,,,,,,,,,,,,,,,14,1716,Invalid,noise,-45,2,0.5043086998630315,1,3.0,1.8125708000734448,True,1,31,A,2023-11-15_10h42.02.878,exp3,2022.2.2,
,,,,,,,,,,,,,,,,,,,,,,,,15,1716,Valid,signal,45,2,1.037613800028339,0,3.0,2.345822599949315,True,1,31,A,2023-11-15_10h42.02.878,exp3,2022.2.2,
,,,,,,,,,,,,,,,,,,,,,,,,16,-557,Valid,signal,45,1,0.7208604000043124,1,3.0,2.029029499972239,True,1,31,A,2023-11-15_10h42.02.878,exp3,2022.2.2,
,,,,,,,,,,,,,,,,,,,,,,,,17,-2274,Invalid,signal,45,1,1.1048288000747561,1,3.0,2.41287020011805,True,1,31,A,2023-11-15_10h42.02.878,exp3,2022.2.2,
,,,,,,,,,,,,,,,,,,,,,,,,18,2274,Valid,signal,-45,1,0.8707468998618424,1,3.0,2.1790608998853713,True,1,31,A,2023-11-15_10h42.02.878,exp3,2022.2.2,
,,,,,,,,,,,,,,,,,,,,,,,,19,1158,Valid,noise,-45,1,0.6208349999506027,0,3.0,1.9291970999911427,True,1,31,A,2023-11-15_10h42.02.878,exp3,2022.2.2,
,,,,,,,,,,,,,,,,,,,,,,,,20,1158,Valid,signal,45,1,0.9642904999200255,1,3.0,4.030432499945164,True,2,31,A,2023-11-15_10h42.02.878,exp3,2022.2.2,
,,,,,,,,,,,,,,,,,,,,,,,,21,-1158,Valid,signal,45,1,0.936877700034529,1,3.0,2.2451035000849515,True,1,31,A,2023-11-15_10h42.02.878,exp3,2022.2.2,
,,,,,,,,,,,,,,,,,,,,,,,,22,1716,Valid,noise,45,2,0.7048424000386149,1,3.0,2.013200000161305,True,1,31,A,2023-11-15_10h42.02.878,exp3,2022.2.2,
,,,,,,,,,,,,,,,,,,,,,,,,23,1158,Valid,signal,45,2,1.0988700999878347,0,3.0,4.796070799930021,True,2,31,A,2023-11-15_10h42.02.878,exp3,2022.2.2,
,,,,,,,,,,,,,,,,,,,,,,,,24,-2274,Valid,signal,-45,2,1.2388553998898715,0,3.0,2.5468218999449164,True,1,31,A,2023-11-15_10h42.02.878,exp3,2022.2.2,
,,,,,,,,,,,,,,,,,,,,,,,,25,-1158,Valid,signal,-45,1,0.8032275999430567,1,3.0,2.111547299893573,True,1,31,A,2023-11-15_10h42.02.878,exp3,2022.2.2,
,,,,,,,,,,,,,,,,,,,,,,,,26,557,Valid,noise,-45,2,0.8420603000558913,1,3.0,4.213265500031412,True,2,31,A,2023-11-15_10h42.02.878,exp3,2022.2.2,
,,,,,,,,,,,,,,,,,,,,,,,,27,-2274,Valid,noise,-45,2,3.3894004998728633,1,3.0,4.697471299907193,True,1,31,A,2023-11-15_10h42.02.878,exp3,2022.2.2,
,,,,,,,,,,,,,,,,,,,,,,,,28,-557,Valid,noise,-45,2,0.854098099982366,1,3.0,2.1619610998313874,True,1,31,A,2023-11-15_10h42.02.878,exp3,2022.2.2,
,,,,,,,,,,,,,,,,,,,,,,,,29,2274,Valid,signal,-45,2,1.658583200071007,0,3.0,13.499872299842536,True,5,31,A,2023-11-15_10h42.02.878,exp3,2022.2.2,
,,,,,,,,,,,,,,,,,,,,,,,,30,-557,Valid,noise,45,2,1.828789700055495,1,2.0,7.99814820010215,True,4,31,A,2023-11-15_10h42.02.878,exp3,2022.2.2,
,,,,,,,,,,,,,,,,,,,,,,,,31,2274,Valid,signal,-45,2,2.0237773000262678,0,3.0,20.853094399906695,True,10,31,A,2023-11-15_10h42.02.878,exp3,2022.2.2,
,,,,,,,,,,,,,,,,,,,,,,,,32,-1716,Valid,noise,45,2,1.2091274000704288,1,3.0,9.732212599832565,True,2,31,A,2023-11-15_10h42.02.878,exp3,2022.2.2,
,,,,,,,,,,,,,,,,,,,,,,,,33,-557,Valid,signal,45,2,4.300844199955463,0,3.0,14.550656900042668,True,5,31,A,2023-11-15_10h42.02.878,exp3,2022.2.2,
,,,,,,,,,,,,,,,,,,,,,,,,34,557,Invalid,noise,-45,2,2.453535599866882,1,3.0,5.930728300008923,True,2,31,A,2023-11-15_10h42.02.878,exp3,2022.2.2,
,,,,,,,,,,,,,,,,,,,,,,,,35,557,Valid,noise,45,2,2.097674900200218,1,1.0,32.60725919995457,True,10,31,A,2023-11-15_10h42.02.878,exp3,2022.2.2,
,,,,,,,,,,,,,,,,,,,,,,,,36,2274,Valid,noise,45,2,1.702931100036949,1,3.0,10.56616419996135,True,5,31,A,2023-11-15_10h42.02.878,exp3,2022.2.2,
,,,,,,,,,,,,,,,,,,,,,,,,37,-1158,Invalid,signal,-45,1,1.4704635001253337,1,3.0,2.778858499834314,True,1,31,A,2023-11-15_10h42.02.878,exp3,2022.2.2,
,,,,,,,,,,,,,,,,,,,,,,,,38,2274,Valid,signal,-45,2,1.1040280999150127,0,3.0,2.412556900177151,True,1,31,A,2023-11-15_10h42.02.878,exp3,2022.2.2,
,,,,,,,,,,,,,,,,,,,,,,,,39,1158,Valid,noise,-45,2,1.1449734000489116,1,3.0,7.331224099965766,True,4,31,A,2023-11-15_10h42.02.878,exp3,2022.2.2,
,,,,,,,,,,,,,,,,,,,,,,,,40,-2274,Valid,signal,-45,1,1.0207790001295507,1,3.0,2.329157599946484,True,1,31,A,2023-11-15_10h42.02.878,exp3,2022.2.2,
,,,,,,,,,,,,,,,,,,,,,,,,41,1158,Valid,noise,45,1,0.8378797001205385,0,3.0,2.1457656000275165,True,1,31,A,2023-11-15_10h42.02.878,exp3,2022.2.2,
,,,,,,,,,,,,,,,,,,,,,,,,42,-2274,Valid,signal,-45,2,1.2559877000749111,0,3.0,13.066819500178099,True,4,31,A,2023-11-15_10h42.02.878,exp3,2022.2.2,
,,,,,,,,,,,,,,,,,,,,,,,,43,1716,Valid,noise,-45,2,0.7876154000405222,1,3.0,2.095881000161171,True,1,31,A,2023-11-15_10h42.02.878,exp3,2022.2.2,
,,,,,,,,,,,,,,,,,,,,,,,,44,-2274,Valid,noise,45,2,0.8376161998603493,1,3.0,2.1458588000386953,True,1,31,A,2023-11-15_10h42.02.878,exp3,2022.2.2,
,,,,,,,,,,,,,,,,,,,,,,,,45,557,Valid,signal,45,2,0.9819108000956476,0,3.0,10.965707000112161,True,5,31,A,2023-11-15_10h42.02.878,exp3,2022.2.2,
,,,,,,,,,,,,,,,,,,,,,,,,46,-557,Valid,noise,-45,1,2.922325399937108,0,1.0,4.230442000087351,True,1,31,A,2023-11-15_10h42.02.878,exp3,2022.2.2,
,,,,,,,,,,,,,,,,,,,,,,,,47,-1158,Valid,signal,-45,2,1.2039998001419008,0,3.0,2.512279400136322,True,1,31,A,2023-11-15_10h42.02.878,exp3,2022.2.2,
,,,,,,,,,,,,,,,,,,,,,,,,48,1716,Valid,signal,45,2,1.8313325999770314,0,1.0,9.665130199864507,True,4,31,A,2023-11-15_10h42.02.878,exp3,2022.2.2,
,,,,,,,,,,,,,,,,,,,,,,,,49,-557,Valid,signal,45,1,1.5386228000279516,1,3.0,10.749613200081512,True,2,31,A,2023-11-15_10h42.02.878,exp3,2022.2.2,
,,,,,,,,,,,,,,,,,,,,,,,,50,-2274,Valid,noise,45,1,0.9040325998794287,0,3.0,2.2120589001569897,True,1,31,A,2023-11-15_10h42.02.878,exp3,2022.2.2,
,,,,,,,,,,,,,,,,,,,,,,,,51,1158,Invalid,signal,-45,1,0.9346165000461042,1,3.0,8.949039299972355,True,5,31,A,2023-11-15_10h42.02.878,exp3,2022.2.2,
,,,,,,,,,,,,,,,,,,,,,,,,52,-557,Valid,noise,45,2,2.354501099791378,1,4.0,3.6628598000388592,True,1,31,A,2023-11-15_10h42.02.878,exp3,2022.2.2,
,,,,,,,,,,,,,,,,,,,,,,,,53,557,Valid,signal,-45,2,3.937646800186485,0,3.0,7.714365700026974,True,2,31,A,2023-11-15_10h42.02.878,exp3,2022.2.2,
,,,,,,,,,,,,,,,,,,,,,,,,54,1716,Valid,noise,-45,2,1.1421906999312341,1,3.0,5.047265500063077,True,2,31,A,2023-11-15_10h42.02.878,exp3,2022.2.2,
,,,,,,,,,,,,,,,,,,,,,,,,55,2274,Valid,noise,-45,2,2.0710230998229235,1,2.0,20.436278299894184,True,8,31,A,2023-11-15_10h42.02.878,exp3,2022.2.2,
,,,,,,,,,,,,,,,,,,,,,,,,56,-1158,Invalid,noise,45,2,1.5894840001128614,1,2.0,4.8967675000894815,True,2,31,A,2023-11-15_10h42.02.878,exp3,2022.2.2,
,,,,,,,,,,,,,,,,,,,,,,,,57,-1158,Valid,noise,45,2,1.5746531998738647,1,4.0,22.003441399894655,True,12,31,A,2023-11-15_10h42.02.878,exp3,2022.2.2,
,,,,,,,,,,,,,,,,,,,,,,,,58,557,Valid,noise,-45,2,1.221689600031823,1,3.0,2.5298991999588907,True,1,31,A,2023-11-15_10h42.02.878,exp3,2022.2.2,
,,,,,,,,,,,,,,,,,,,,,,,,59,-2274,Valid,noise,-45,2,1.3468273999169469,1,3.0,13.215850699925795,True,5,31,A,2023-11-15_10h42.02.878,exp3,2022.2.2,
,,,,,,,,,,,,,,,,,,,,,,,,60,-557,Valid,noise,-45,2,1.1411687000654638,1,3.0,13.684647899819538,True,7,31,A,2023-11-15_10h42.02.878,exp3,2022.2.2,
,,,,,,,,,,,,,,,,,,,,,,,,61,2274,Valid,signal,-45,2,0.9738837000913918,0,3.0,3.979265599977225,True,2,31,A,2023-11-15_10h42.02.878,exp3,2022.2.2,
,,,,,,,,,,,,,,,,,,,,,,,,62,-1716,Valid,signal,-45,2,1.2112249000929296,0,3.0,15.551020100014284,True,9,31,A,2023-11-15_10h42.02.878,exp3,2022.2.2,
,,,,,,,,,,,,,,,,,,,,,,,,63,-2274,Valid,noise,45,2,2.167020400054753,1,3.0,43.6948027999606,True,11,31,A,2023-11-15_10h42.02.878,exp3,2022.2.2,
,,,,,,,,,,,,,,,,,,,,,,,,64,557,Valid,noise,45,2,2.159072499955073,1,3.0,41.21070050005801,True,6,31,A,2023-11-15_10h42.02.878,exp3,2022.2.2,
,,,,,,,,,,,,,,,,,,,,,,,,65,-1716,Valid,noise,45,2,1.2875047998968512,1,3.0,2.5961991001386195,True,1,31,A,2023-11-15_10h42.02.878,exp3,2022.2.2,
,,,,,,,,,,,,,,,,,,,,,,,,66,-1158,Valid,noise,45,2,1.3874725000932813,1,3.0,2.695918000070378,True,1,31,A,2023-11-15_10h42.02.878,exp3,2022.2.2,
,,,,,,,,,,,,,,,,,,,,,,,,67,2274,Valid,signal,45,2,0.8710095998831093,0,3.0,2.1792882001027465,True,1,31,A,2023-11-15_10h42.02.878,exp3,2022.2.2,
,,,,,,,,,,,,,,,,,,,,,,,,68,-557,Valid,signal,45,2,0.7547023999504745,0,3.0,2.062556700082496,True,1,31,A,2023-11-15_10h42.02.878,exp3,2022.2.2,
,,,,,,,,,,,,,,,,,,,,,,,,69,1716,Valid,signal,45,2,0.8707288999576122,0,3.0,2.178958399919793,True,1,31,A,2023-11-15_10h42.02.878,exp3,2022.2.2,
,,,,,,,,,,,,,,,,,,,,,,,,70,1158,Invalid,noise,45,2,0.6713808001950383,1,3.0,1.979288199916482,True,1,31,A,2023-11-15_10h42.02.878,exp3,2022.2.2,
,,,,,,,,,,,,,,,,,,,,,,,,71,-2274,Valid,noise,45,2,0.9206644999794662,1,3.0,2.2288865000009537,True,1,31,A,2023-11-15_10h42.02.878,exp3,2022.2.2,
,,,,,,,,,,,,,,,,,,,,,,,,72,-2274,Valid,signal,-45,2,0.7039165999740362,0,3.0,2.0128300001379102,True,1,31,A,2023-11-15_10h42.02.878,exp3,2022.2.2,
,,,,,,,,,,,,,,,,,,,,,,,,73,2274,Valid,signal,45,2,0.7871542000211775,0,3.0,2.0955710001289845,True,1,31,A,2023-11-15_10h42.02.878,exp3,2022.2.2,
,,,,,,,,,,,,,,,,,,,,,,,,74,1158,Valid,signal,-45,2,0.6538203998934478,0,3.0,1.9620115999132395,True,1,31,A,2023-11-15_10h42.02.878,exp3,2022.2.2,
,,,,,,,,,,,,,,,,,,,,,,,,75,-1158,Invalid,signal,-45,2,0.6378527001943439,0,3.0,1.9459361000917852,True,1,31,A,2023-11-15_10h42.02.878,exp3,2022.2.2,
,,,,,,,,,,,,,,,,,,,,,,,,76,-2274,Valid,noise,-45,2,0.8961348000448197,1,3.0,4.046664600027725,True,2,31,A,2023-11-15_10h42.02.878,exp3,2022.2.2,
,,,,,,,,,,,,,,,,,,,,,,,,77,2274,Valid,noise,-45,2,0.7209244999103248,1,3.0,2.0292366000358015,True,1,31,A,2023-11-15_10h42.02.878,exp3,2022.2.2,
,,,,,,,,,,,,,,,,,,,,,,,,78,557,Valid,signal,-45,1,0.5370239000767469,1,3.0,1.8455296999309212,True,1,31,A,2023-11-15_10h42.02.878,exp3,2022.2.2,
,,,,,,,,,,,,,,,,,,,,,,,,79,1158,Valid,signal,-45,1,0.9538154001347721,1,3.0,2.262415000004694,True,1,31,A,2023-11-15_10h42.02.878,exp3,2022.2.2,
,,,,,,,,,,,,,,,,,,,,,,,,80,-557,Valid,signal,45,1,1.0712625000160187,1,3.0,2.3794497998896986,True,1,31,A,2023-11-15_10h42.02.878,exp3,2022.2.2,
,,,,,,,,,,,,,,,,,,,,,,,,81,1158,Invalid,noise,45,2,0.8050216999836266,1,3.0,2.1129782998468727,True,1,31,A,2023-11-15_10h42.02.878,exp3,2022.2.2,
,,,,,,,,,,,,,,,,,,,,,,,,82,-1716,Valid,signal,45,1,1.1031072998885065,1,3.0,8.263953000074252,True,4,31,A,2023-11-15_10h42.02.878,exp3,2022.2.2,
,,,,,,,,,,,,,,,,,,,,,,,,83,2274,Invalid,signal,-45,1,0.8376237000338733,1,3.0,2.1459536000620574,True,1,31,A,2023-11-15_10h42.02.878,exp3,2022.2.2,
,,,,,,,,,,,,,,,,,,,,,,,,84,-1158,Valid,signal,-45,2,0.9015138000249863,0,3.0,5.513962799916044,True,3,31,A,2023-11-15_10h42.02.878,exp3,2022.2.2,
,,,,,,,,,,,,,,,,,,,,,,,,85,1158,Valid,noise,45,2,0.7708965002093464,1,3.0,2.079225800000131,True,1,31,A,2023-11-15_10h42.02.878,exp3,2022.2.2,
,,,,,,,,,,,,,,,,,,,,,,,,86,1158,Valid,signal,-45,2,1.0160523001104593,0,3.0,9.448506999993697,True,5,31,A,2023-11-15_10h42.02.878,exp3,2022.2.2,
,,,,,,,,,,,,,,,,,,,,,,,,87,-1716,Valid,signal,45,1,1.0040221000090241,1,3.0,2.3124129998032004,True,1,31,A,2023-11-15_10h42.02.878,exp3,2022.2.2,
,,,,,,,,,,,,,,,,,,,,,,,,88,557,Valid,signal,-45,1,1.6649639001116157,1,3.0,5.014342099893838,True,2,31,A,2023-11-15_10h42.02.878,exp3,2022.2.2,
,,,,,,,,,,,,,,,,,,,,,,,,89,2274,Invalid,noise,-45,1,1.0872506001032889,0,3.0,2.395601599942893,True,1,31,A,2023-11-15_10h42.02.878,exp3,2022.2.2,
,,,,,,,,,,,,,,,,,,,,,,,,90,1158,Valid,signal,45,2,0.8042204000521451,0,3.0,2.1125058999750763,True,1,31,A,2023-11-15_10h42.02.878,exp3,2022.2.2,
,,,,,,,,,,,,,,,,,,,,,,,,91,-1716,Valid,noise,-45,1,0.9377733999863267,0,3.0,2.245633800048381,True,1,31,A,2023-11-15_10h42.02.878,exp3,2022.2.2,
,,,,,,,,,,,,,,,,,,,,,,,,92,-2274,Valid,signal,-45,2,0.770106399897486,0,3.0,2.0784537999425083,True,1,31,A,2023-11-15_10h42.02.878,exp3,2022.2.2,
,,,,,,,,,,,,,,,,,,,,,,,,93,1716,Valid,noise,-45,1,1.205252000130713,0,3.0,7.631514700129628,True,4,31,A,2023-11-15_10h42.02.878,exp3,2022.2.2,
,,,,,,,,,,,,,,,,,,,,,,,,94,-2274,Invalid,noise,45,2,0.803990599932149,1,3.0,2.112135299947113,True,1,31,A,2023-11-15_10h42.02.878,exp3,2022.2.2,
,,,,,,,,,,,,,,,,,,,,,,,,95,-557,Invalid,noise,45,2,0.6378318001516163,1,3.0,1.945783199975267,True,1,31,A,2023-11-15_10h42.02.878,exp3,2022.2.2,
,,,,,,,,,,,,,,,,,,,,,,,,96,557,Valid,noise,-45,2,0.7211721001658589,1,3.0,2.029348500072956,True,1,31,A,2023-11-15_10h42.02.878,exp3,2022.2.2,
,,,,,,,,,,,,,,,,,,,,,,,,97,-1716,Valid,noise,-45,2,0.6375586001668125,1,3.0,1.945716000162065,True,1,31,A,2023-11-15_10h42.02.878,exp3,2022.2.2,
,,,,,,,,,,,,,,,,,,,,,,,,98,-1716,Valid,noise,-45,2,0.5711520998738706,1,3.0,1.8792280000634491,True,1,31,A,2023-11-15_10h42.02.878,exp3,2022.2.2,
,,,,,,,,,,,,,,,,,,,,,,,,99,2274,Valid,signal,-45,2,0.7868941999040544,0,3.0,3.829668899998069,True,2,31,A,2023-11-15_10h42.02.878,exp3,2022.2.2,
,,,,,,,,,,,,,,,,,,,,,,,,100,557,Valid,signal,45,2,0.6871980999130756,0,3.0,1.9952688000630587,True,1,31,A,2023-11-15_10h42.02.878,exp3,2022.2.2,
,,,,,,,,,,,,,,,,,,,,,,,,101,1158,Valid,signal,45,2,0.7970196998212487,0,3.0,3.7802856999915093,True,2,31,A,2023-11-15_10h42.02.878,exp3,2022.2.2,
,,,,,,,,,,,,,,,,,,,,,,,,102,-1716,Invalid,noise,-45,2,0.8373702999670058,1,3.0,2.145429600030184,True,1,31,A,2023-11-15_10h42.02.878,exp3,2022.2.2,
,,,,,,,,,,,,,,,,,,,,,,,,103,-1158,Valid,signal,45,1,0.8044343001674861,1,3.0,2.1127559000160545,True,1,31,A,2023-11-15_10h42.02.878,exp3,2022.2.2,
,,,,,,,,,,,,,,,,,,,,,,,,104,1716,Valid,noise,45,1,1.3712679999880493,0,3.0,2.679293799912557,True,1,31,A,2023-11-15_10h42.02.878,exp3,2022.2.2,
,,,,,,,,,,,,,,,,,,,,,,,,105,1716,Valid,noise,45,2,0.7037996000144631,1,3.0,2.0119185999501497,True,1,31,A,2023-11-15_10h42.02.878,exp3,2022.2.2,
,,,,,,,,,,,,,,,,,,,,,,,,106,-557,Invalid,noise,-45,1,1.0879500000737607,0,3.0,2.396284200018272,True,1,31,A,2023-11-15_10h42.02.878,exp3,2022.2.2,
,,,,,,,,,,,,,,,,,,,,,,,,107,-1158,Valid,signal,45,2,0.7878833999857306,0,3.0,2.0960339000448585,True,1,31,A,2023-11-15_10h42.02.878,exp3,2022.2.2,
,,,,,,,,,,,,,,,,,,,,,,,,108,-557,Valid,signal,-45,2,1.0041984000708908,0,3.0,2.3124674998689443,True,1,31,A,2023-11-15_10h42.02.878,exp3,2022.2.2,
,,,,,,,,,,,,,,,,,,,,,,,,109,-1716,Invalid,noise,-45,1,1.6715772999450564,0,4.0,2.979649299988523,True,1,31,A,2023-11-15_10h42.02.878,exp3,2022.2.2,
,,,,,,,,,,,,,,,,,,,,,,,,110,-1716,Valid,signal,45,2,0.8877289998345077,0,4.0,2.195860599866137,True,1,31,A,2023-11-15_10h42.02.878,exp3,2022.2.2,
,,,,,,,,,,,,,,,,,,,,,,,,111,1716,Valid,signal,-45,2,1.0211547000799328,0,2.0,2.3290474000386894,True,1,31,A,2023-11-15_10h42.02.878,exp3,2022.2.2,
,,,,,,,,,,,,,,,,,,,,,,,,112,2274,Valid,signal,-45,1,0.8208131999708712,1,2.0,2.1290114999283105,True,1,31,A,2023-11-15_10h42.02.878,exp3,2022.2.2,
,,,,,,,,,,,,,,,,,,,,,,,,113,557,Valid,signal,45,1,1.3345264000818133,1,3.0,7.565023500006646,True,4,31,A,2023-11-15_10h42.02.878,exp3,2022.2.2,
,,,,,,,,,,,,,,,,,,,,,,,,114,-1716,Valid,signal,-45,1,1.0374240998644382,1,3.0,2.3454948000144213,True,1,31,A,2023-11-15_10h42.02.878,exp3,2022.2.2,
,,,,,,,,,,,,,,,,,,,,,,,,115,1716,Valid,signal,45,1,0.887695699930191,1,3.0,2.1959925999399275,True,1,31,A,2023-11-15_10h42.02.878,exp3,2022.2.2,
,,,,,,,,,,,,,,,,,,,,,,,,116,-1158,Valid,noise,45,1,0.8210026999004185,0,3.0,2.1291042000520974,True,1,31,A,2023-11-15_10h42.02.878,exp3,2022.2.2,
,,,,,,,,,,,,,,,,,,,,,,,,117,-1158,Invalid,noise,-45,2,0.6377044001128525,1,3.0,1.9459798000752926,True,1,31,A,2023-11-15_10h42.02.878,exp3,2022.2.2,
,,,,,,,,,,,,,,,,,,,,,,,,118,1716,Valid,noise,-45,2,0.8535738000646234,1,3.0,3.762711700052023,True,2,31,A,2023-11-15_10h42.02.878,exp3,2022.2.2,
,,,,,,,,,,,,,,,,,,,,,,,,119,-557,Valid,noise,45,2,0.9210719999391586,1,3.0,2.2294059998821467,True,1,31,A,2023-11-15_10h42.02.878,exp3,2022.2.2,
,,,,,,,,,,,,,,,,,,,,,,,,120,-2274,Valid,signal,-45,2,0.9051778998691589,0,3.0,2.2130617001093924,True,1,31,A,2023-11-15_10h42.02.878,exp3,2022.2.2,
,,,,,,,,,,,,,,,,,,,,,,,,121,557,Valid,noise,-45,2,0.8004754001740366,1,3.0,5.480125400004908,True,3,31,A,2023-11-15_10h42.02.878,exp3,2022.2.2,
,,,,,,,,,,,,,,,,,,,,,,,,122,1716,Valid,signal,-45,2,0.8209400000050664,0,3.0,2.1292034999933094,True,1,31,A,2023-11-15_10h42.02.878,exp3,2022.2.2,
,,,,,,,,,,,,,,,,,,,,,,,,123,2274,Invalid,noise,-45,2,0.8448735999409109,1,3.0,7.696947900112718,True,4,31,A,2023-11-15_10h42.02.878,exp3,2022.2.2,
,,,,,,,,,,,,,,,,,,,,,,,,124,-557,Valid,signal,-45,1,0.8378191001247615,1,3.0,2.1461455998942256,True,1,31,A,2023-11-15_10h42.02.878,exp3,2022.2.2,
,,,,,,,,,,,,,,,,,,,,,,,,125,-1158,Valid,noise,-45,2,0.9297443998511881,1,3.0,5.847376700025052,True,3,31,A,2023-11-15_10h42.02.878,exp3,2022.2.2,
,,,,,,,,,,,,,,,,,,,,,,,,126,-2274,Invalid,noise,-45,2,0.8874890001025051,1,3.0,2.1957320999354124,True,1,31,A,2023-11-15_10h42.02.878,exp3,2022.2.2,
,,,,,,,,,,,,,,,,,,,,,,,,127,-1158,Valid,signal,45,1,0.7688742000609636,1,3.0,4.0804312999825925,True,2,31,A,2023-11-15_10h42.02.878,exp3,2022.2.2,
,,,,,,,,,,,,,,,,,,,,,,,,128,-2274,Invalid,signal,-45,2,0.9040501001290977,0,3.0,2.2121163001284003,True,1,31,A,2023-11-15_10h42.02.878,exp3,2022.2.2,
,,,,,,,,,,,,,,,,,,,,,,,,129,557,Valid,signal,-45,1,0.7215017999988049,1,3.0,2.0295036998577416,True,1,31,A,2023-11-15_10h42.02.878,exp3,2022.2.2,
,,,,,,,,,,,,,,,,,,,,,,,,130,1716,Invalid,signal,45,1,0.7867020999547094,1,3.0,2.094869599910453,True,1,31,A,2023-11-15_10h42.02.878,exp3,2022.2.2,
,,,,,,,,,,,,,,,,,,,,,,,,131,1158,Valid,noise,-45,1,0.8226630999706686,0,3.0,5.663515199907124,True,3,31,A,2023-11-15_10h42.02.878,exp3,2022.2.2,
,,,,,,,,,,,,,,,,,,,,,,,,132,557,Invalid,signal,-45,1,2.449958300217986,1,3.0,5.614407500019297,True,2,31,A,2023-11-15_10h42.02.878,exp3,2022.2.2,
,,,,,,,,,,,,,,,,,,,,,,,,133,-1716,Valid,signal,-45,1,0.754340099869296,1,3.0,2.0627236999571323,True,1,31,A,2023-11-15_10h42.02.878,exp3,2022.2.2,
,,,,,,,,,,,,,,,,,,,,,,,,134,557,Invalid,noise,-45,2,1.003965400159359,1,3.0,2.3120846999809146,True,1,31,A,2023-11-15_10h42.02.878,exp3,2022.2.2,
,,,,,,,,,,,,,,,,,,,,,,,,135,1716,Valid,noise,-45,1,0.833299299934879,0,3.0,4.480369199998677,True,2,31,A,2023-11-15_10h42.02.878,exp3,2022.2.2,
,,,,,,,,,,,,,,,,,,,,,,,,136,1158,Valid,noise,-45,2,0.9397788001224399,1,3.0,5.963977800216526,True,3,31,A,2023-11-15_10h42.02.878,exp3,2022.2.2,
,,,,,,,,,,,,,,,,,,,,,,,,137,557,Valid,signal,-45,1,1.5538596000988036,1,3.0,11.849171899957582,True,3,31,A,2023-11-15_10h42.02.878,exp3,2022.2.2,
,,,,,,,,,,,,,,,,,,,,,,,,138,-1716,Valid,signal,45,1,0.8538189001847059,1,3.0,2.1622432000003755,True,1,31,A,2023-11-15_10h42.02.878,exp3,2022.2.2,
,,,,,,,,,,,,,,,,,,,,,,,,139,2274,Valid,noise,-45,1,0.8546110999304801,0,3.0,2.162813200149685,True,1,31,A,2023-11-15_10h42.02.878,exp3,2022.2.2,
,,,,,,,,,,,,,,,,,,,,,,,,140,-1158,Valid,noise,45,2,0.5871307000052184,1,3.0,1.8952384998556226,True,1,31,A,2023-11-15_10h42.02.878,exp3,2022.2.2,
,,,,,,,,,,,,,,,,,,,,,,,,141,-2274,Valid,signal,45,1,1.9510536999441683,1,1.0,8.314920700155199,True,3,31,A,2023-11-15_10h42.02.878,exp3,2022.2.2,
,,,,,,,,,,,,,,,,,,,,,,,,142,-557,Invalid,signal,-45,1,1.7093204997945577,1,4.0,6.498173100175336,True,3,31,A,2023-11-15_10h42.02.878,exp3,2022.2.2,
,,,,,,,,,,,,,,,,,,,,,,,,143,-557,Valid,noise,45,1,1.786197300069034,0,4.0,6.813600099878386,True,3,31,A,2023-11-15_10h42.02.878,exp3,2022.2.2,
,,,,,,,,,,,,,,,,,,,,,,,,144,-1158,Valid,signal,-45,1,1.3879226997960359,1,4.0,2.696055900072679,True,1,31,A,2023-11-15_10h42.02.878,exp3,2022.2.2,
,,,,,,,,,,,,,,,,,,,,,,,,145,-2274,Valid,noise,45,2,1.1215041999239475,1,4.0,2.4297023001126945,True,1,31,A,2023-11-15_10h42.02.878,exp3,2022.2.2,
,,,,,,,,,,,,,,,,,,,,,,,,146,-557,Valid,noise,-45,2,1.0037088999524713,1,4.0,2.3121660000178963,True,1,31,A,2023-11-15_10h42.02.878,exp3,2022.2.2,
,,,,,,,,,,,,,,,,,,,,,,,,147,-1158,Valid,noise,45,2,0.6547799000982195,1,4.0,1.9628251001704484,True,1,31,A,2023-11-15_10h42.02.878,exp3,2022.2.2,
,,,,,,,,,,,,,,,,,,,,,,,,148,1158,Valid,signal,45,1,0.9701621998101473,1,4.0,2.2784079001285136,True,1,31,A,2023-11-15_10h42.02.878,exp3,2022.2.2,
,,,,,,,,,,,,,,,,,,,,,,,,149,1716,Valid,signal,-45,2,0.7214373999740928,0,4.0,2.029453600058332,True,1,31,A,2023-11-15_10h42.02.878,exp3,2022.2.2,
,,,,,,,,,,,,,,,,,,,,,,,,150,557,Valid,noise,-45,2,0.8872883000876755,1,4.0,2.1955556999891996,True,1,31,A,2023-11-15_10h42.02.878,exp3,2022.2.2,
,,,,,,,,,,,,,,,,,,,,,,,,151,557,Valid,noise,45,2,0.6709617001470178,1,4.0,1.9792451998218894,True,1,31,A,2023-11-15_10h42.02.878,exp3,2022.2.2,
,,,,,,,,,,,,,,,,,,,,,,,,152,-1716,Valid,signal,-45,2,0.571096200030297,0,4.0,1.8791447000112385,True,1,31,A,2023-11-15_10h42.02.878,exp3,2022.2.2,
,,,,,,,,,,,,,,,,,,,,,,,,153,-2274,Valid,signal,-45,2,0.8026503999717534,0,4.0,7.681186000118032,True,4,31,A,2023-11-15_10h42.02.878,exp3,2022.2.2,
,,,,,,,,,,,,,,,,,,,,,,,,154,-2274,Valid,signal,45,2,0.6539425000082701,0,4.0,1.9622818999923766,True,1,31,A,2023-11-15_10h42.02.878,exp3,2022.2.2,
,,,,,,,,,,,,,,,,,,,,,,,,155,-1158,Valid,noise,-45,2,0.7880260001402348,1,4.0,5.564026999985799,True,3,31,A,2023-11-15_10h42.02.878,exp3,2022.2.2,
,,,,,,,,,,,,,,,,,,,,,,,,156,-1158,Valid,noise,-45,2,0.7711759000085294,1,4.0,2.079357899958268,True,1,31,A,2023-11-15_10h42.02.878,exp3,2022.2.2,
,,,,,,,,,,,,,,,,,,,,,,,,157,-2274,Valid,noise,45,2,0.854057400021702,1,4.0,2.162430099910125,True,1,31,A,2023-11-15_10h42.02.878,exp3,2022.2.2,
,,,,,,,,,,,,,,,,,,,,,,,,158,2274,Valid,noise,45,2,0.6878464000765234,1,4.0,1.9956864998675883,True,1,31,A,2023-11-15_10h42.02.878,exp3,2022.2.2,
,,,,,,,,,,,,,,,,,,,,,,,,159,1716,Valid,signal,45,2,1.1131812001112849,0,4.0,11.249605600023642,True,6,31,A,2023-11-15_10h42.02.878,exp3,2022.2.2,
,,,,,,,,,,,,,,,,,,,,,,,,160,-1716,Invalid,signal,-45,2,0.6538269999437034,0,4.0,1.9620517001021653,True,1,31,A,2023-11-15_10h42.02.878,exp3,2022.2.2,
,,,,,,,,,,,,,,,,,,,,,,,,161,-557,Valid,signal,45,2,1.785011600004509,0,4.0,9.932342800078914,True,4,31,A,2023-11-15_10h42.02.878,exp3,2022.2.2,
,,,,,,,,,,,,,,,,,,,,,,,,162,1158,Valid,noise,45,2,2.178865199908614,1,3.0,13.083466300042346,True,4,31,A,2023-11-15_10h42.02.878,exp3,2022.2.2,
,,,,,,,,,,,,,,,,,,,,,,,,163,2274,Valid,noise,-45,2,1.0710100000724196,1,3.0,2.379364299820736,True,1,31,A,2023-11-15_10h42.02.878,exp3,2022.2.2,
,,,,,,,,,,,,,,,,,,,,,,,,164,-1158,Valid,signal,-45,2,0.7876321000512689,0,3.0,2.0956963999196887,True,1,31,A,2023-11-15_10h42.02.878,exp3,2022.2.2,
,,,,,,,,,,,,,,,,,,,,,,,,165,1716,Invalid,noise,-45,2,0.8709277999587357,1,3.0,2.1792880999855697,True,1,31,A,2023-11-15_10h42.02.878,exp3,2022.2.2,
,,,,,,,,,,,,,,,,,,,,,,,,166,557,Valid,signal,45,1,1.087497100001201,1,3.0,2.3959431000985205,True,1,31,A,2023-11-15_10h42.02.878,exp3,2022.2.2,
,,,,,,,,,,,,,,,,,,,,,,,,167,1716,Valid,noise,45,2,0.838660400127992,1,3.0,3.8464357000775635,True,2,31,A,2023-11-15_10h42.02.878,exp3,2022.2.2,
,,,,,,,,,,,,,,,,,,,,,,,,168,2274,Valid,noise,-45,2,0.7484540999867022,1,3.0,3.9134611999616027,True,2,31,A,2023-11-15_10h42.02.878,exp3,2022.2.2,
,,,,,,,,,,,,,,,,,,,,,,,,169,-557,Invalid,signal,-45,1,1.387345900060609,1,4.0,6.097539300099015,True,3,31,A,2023-11-15_10h42.02.878,exp3,2022.2.2,
,,,,,,,,,,,,,,,,,,,,,,,,170,1158,Valid,noise,-45,1,1.3681217001285404,0,4.0,8.431195700075477,True,5,31,A,2023-11-15_10h42.02.878,exp3,2022.2.2,
,,,,,,,,,,,,,,,,,,,,,,,,171,557,Invalid,signal,45,1,1.2047950997948647,1,4.0,2.5133790001273155,True,1,31,A,2023-11-15_10h42.02.878,exp3,2022.2.2,
,,,,,,,,,,,,,,,,,,,,,,,,172,-1716,Valid,noise,-45,1,0.8705621000844985,0,4.0,2.178616200108081,True,1,31,A,2023-11-15_10h42.02.878,exp3,2022.2.2,
,,,,,,,,,,,,,,,,,,,,,,,,173,-1716,Valid,noise,-45,2,1.020649200072512,1,4.0,2.328923000022769,True,1,31,A,2023-11-15_10h42.02.878,exp3,2022.2.2,
,,,,,,,,,,,,,,,,,,,,,,,,174,-1716,Invalid,signal,45,1,0.8375450999010354,1,4.0,2.1455696001648903,True,1,31,A,2023-11-15_10h42.02.878,exp3,2022.2.2,
,,,,,,,,,,,,,,,,,,,,,,,,175,1716,Invalid,signal,-45,1,1.0539237998891622,1,4.0,2.3622371999081224,True,1,31,A,2023-11-15_10h42.02.878,exp3,2022.2.2,
,,,,,,,,,,,,,,,,,,,,,,,,176,-1158,Valid,noise,45,2,1.1214960000943393,1,4.0,2.429608599981293,True,1,31,A,2023-11-15_10h42.02.878,exp3,2022.2.2,
,,,,,,,,,,,,,,,,,,,,,,,,2,2274,Valid,signal,45,2,1.2190085002221167,0,4.0,2.5279055000282824,True,1,31,A,2023-11-15_10h42.02.878,exp3,2022.2.2,
,,,,,,,,,,,,,,,,,,,,,,,,4,1158,Valid,signal,-45,1,0.7206620001234114,1,4.0,2.0293797999620438,True,1,31,A,2023-11-15_10h42.02.878,exp3,2022.2.2,
,,,,,,,,,,,,,,,,,,,,,,,,6,-1158,Invalid,signal,45,1,0.8207028999458998,1,4.0,2.1290964998770505,True,1,31,A,2023-11-15_10h42.02.878,exp3,2022.2.2,
,,,,,,,,,,,,,,,,,,,,,,,,8,1716,Valid,noise,45,1,0.7370638998690993,0,4.0,2.045566000044346,True,1,31,A,2023-11-15_10h42.02.878,exp3,2022.2.2,
,,,,,,,,,,,,,,,,,,,,,,,,10,-1716,Valid,signal,45,2,0.5712667999323457,0,4.0,1.87959809997119,True,1,31,A,2023-11-15_10h42.02.878,exp3,2022.2.2,
,,,,,,,,,,,,,,,,,,,,,,,,12,-2274,Valid,signal,45,2,0.7031678999774158,0,4.0,2.01203089999035,True,1,31,A,2023-11-15_10h42.02.878,exp3,2022.2.2,
,,,,,,,,,,,,,,,,,,,,,,,,14,-1158,Valid,noise,-45,2,1.504402100108564,1,4.0,2.8129419998731464,True,1,31,A,2023-11-15_10h42.02.878,exp3,2022.2.2,
,,,,,,,,,,,,,,,,,,,,,,,,16,2274,Valid,signal,45,2,0.670293299946934,0,4.0,1.978940200060606,True,1,31,A,2023-11-15_10h42.02.878,exp3,2022.2.2,
,,,,,,,,,,,,,,,,,,,,,,,,18,557,Valid,signal,-45,2,3.1717807999812067,0,2.0,4.480371899902821,True,1,31,A,2023-11-15_10h42.02.878,exp3,2022.2.2,
,,,,,,,,,,,,,,,,,,,,,,,,20,2274,Valid,noise,45,2,1.4183447000104934,1,4.0,5.03003149991855,True,2,31,A,2023-11-15_10h42.02.878,exp3,2022.2.2,
,,,,,,,,,,,,,,,,,,,,,,,,22,-557,Valid,noise,-45,2,0.9038166999816895,1,4.0,2.2126109001692384,True,1,31,A,2023-11-15_10h42.02.878,exp3,2022.2.2,
,,,,,,,,,,,,,,,,,,,,,,,,24,-557,Valid,signal,45,1,0.9712550998665392,1,4.0,2.2794628001283854,True,1,31,A,2023-11-15_10h42.02.878,exp3,2022.2.2,
,,,,,,,,,,,,,,,,,,,,,,,,26,557,Valid,noise,45,2,0.6536679998971522,1,4.0,1.96240029996261,True,1,31,A,2023-11-15_10h42.02.878,exp3,2022.2.2,
,,,,,,,,,,,,,,,,,,,,,,,,28,1158,Valid,noise,-45,2,0.690649600001052,1,4.0,5.180243300041184,True,3,31,A,2023-11-15_10h42.02.878,exp3,2022.2.2,
,,,,,,,,,,,,,,,,,,,,,,,,30,-1716,Invalid,noise,45,2,0.6203447999432683,1,4.0,1.9288757001049817,True,1,31,A,2023-11-15_10h42.02.878,exp3,2022.2.2,
,,,,,,,,,,,,,,,,,,,,,,,,32,2274,Valid,noise,45,2,0.5876329001039267,1,4.0,1.8961652999278158,True,1,31,A,2023-11-15_10h42.02.878,exp3,2022.2.2,
,,,,,,,,,,,,,,,,,,,,,,,,34,1158,Valid,noise,-45,2,0.6208309000357985,1,4.0,1.9293810999952257,True,1,31,A,2023-11-15_10h42.02.878,exp3,2022.2.2,
,,,,,,,,,,,,,,,,,,,,,,,,36,557,Valid,noise,45,2,0.687318499898538,1,4.0,1.9958323000464588,True,1,31,A,2023-11-15_10h42.02.878,exp3,2022.2.2,
,,,,,,,,,,,,,,,,,,,,,,,,38,-1716,Valid,signal,45,2,0.6871621001046151,0,4.0,1.9957014000974596,True,1,31,A,2023-11-15_10h42.02.878,exp3,2022.2.2,
,,,,,,,,,,,,,,,,,,,,,,,,40,-1158,Valid,noise,45,2,0.8005915000103414,1,4.0,3.596089900005609,True,2,31,A,2023-11-15_10h42.02.878,exp3,2022.2.2,
,,,,,,,,,,,,,,,,,,,,,,,,42,557,Invalid,signal,-45,1,0.9540609000250697,1,4.0,2.262685199966654,True,1,31,A,2023-11-15_10h42.02.878,exp3,2022.2.2,
,,,,,,,,,,,,,,,,,,,,,,,,44,-557,Valid,signal,45,1,0.5703067998401821,1,4.0,1.878904800163582,True,1,31,A,2023-11-15_10h42.02.878,exp3,2022.2.2,
,,,,,,,,,,,,,,,,,,,,,,,,46,-2274,Invalid,noise,-45,2,0.7872150000184774,1,4.0,2.0956091000698507,True,1,31,A,2023-11-15_10h42.02.878,exp3,2022.2.2,
,,,,,,,,,,,,,,,,,,,,,,,,48,-1716,Valid,signal,45,1,1.0445652001071721,1,4.0,4.530243100132793,True,2,31,A,2023-11-15_10h42.02.878,exp3,2022.2.2,
,,,,,,,,,,,,,,,,,,,,,,,,50,1716,Valid,signal,45,2,0.6043921001255512,0,4.0,3.51323250005953,True,2,31,A,2023-11-15_10h42.02.878,exp3,2022.2.2,
,,,,,,,,,,,,,,,,,,,,,,,,52,1716,Invalid,noise,45,1,0.8706529000774026,0,4.0,2.1790155000053346,True,1,31,A,2023-11-15_10h42.02.878,exp3,2022.2.2,
,,,,,,,,,,,,,,,,,,,,,,,,54,1716,Valid,noise,-45,2,0.93713239999488,1,4.0,2.2459952000062913,True,1,31,A,2023-11-15_10h42.02.878,exp3,2022.2.2,
,,,,,,,,,,,,,,,,,,,,,,,,56,1716,Valid,signal,-45,2,0.620452499948442,0,4.0,1.9290803000330925,True,1,31,A,2023-11-15_10h42.02.878,exp3,2022.2.2,
,,,,,,,,,,,,,,,,,,,,,,,,58,557,Valid,signal,-45,1,0.809430800145492,1,4.0,5.413880599895492,True,3,31,A,2023-11-15_10h42.02.878,exp3,2022.2.2,
,,,,,,,,,,,,,,,,,,,,,,,,60,557,Valid,signal,-45,1,0.7877382999286056,1,4.0,2.0959389000199735,True,1,31,A,2023-11-15_10h42.02.878,exp3,2022.2.2,
,,,,,,,,,,,,,,,,,,,,,,,,62,1158,Invalid,noise,-45,2,1.0372234999667853,1,4.0,2.3457146000582725,True,1,31,A,2023-11-15_10h42.02.878,exp3,2022.2.2,
,,,,,,,,,,,,,,,,,,,,,,,,64,1158,Valid,signal,-45,1,1.0538663999177516,1,4.0,2.3626567001920193,True,1,31,A,2023-11-15_10h42.02.878,exp3,2022.2.2,
,,,,,,,,,,,,,,,,,,,,,,,,66,-557,Valid,noise,-45,2,1.0146920999977738,1,4.0,9.331985899945721,True,5,31,A,2023-11-15_10h42.02.878,exp3,2022.2.2,
,,,,,,,,,,,,,,,,,,,,,,,,68,557,Valid,signal,-45,2,0.953955499920994,0,4.0,2.2625792000908405,True,1,31,A,2023-11-15_10h42.02.878,exp3,2022.2.2,
,,,,,,,,,,,,,,,,,,,,,,,,70,-1158,Valid,signal,-45,2,1.0901481001637876,0,4.0,11.066144699929282,True,2,31,A,2023-11-15_10h42.02.878,exp3,2022.2.2,
,,,,,,,,,,,,,,,,,,,,,,,,72,557,Invalid,signal,45,1,0.6539958000648767,1,4.0,1.9624185001011938,True,1,31,A,2023-11-15_10h42.02.878,exp3,2022.2.2,
,,,,,,,,,,,,,,,,,,,,,,,,74,1716,Valid,signal,45,2,0.8307922000531107,0,4.0,4.2468084001448005,True,2,31,A,2023-11-15_10h42.02.878,exp3,2022.2.2,
,,,,,,,,,,,,,,,,,,,,,,,,76,-2274,Valid,noise,-45,1,1.020564200123772,0,4.0,2.328961299965158,True,1,31,A,2023-11-15_10h42.02.878,exp3,2022.2.2,
,,,,,,,,,,,,,,,,,,,,,,,,78,-1158,Valid,noise,-45,2,0.7203224999830127,1,4.0,2.029056799830869,True,1,31,A,2023-11-15_10h42.02.878,exp3,2022.2.2,
,,,,,,,,,,,,,,,,,,,,,,,,80,-1158,Valid,signal,-45,1,0.7714100000448525,1,4.0,2.079870500136167,True,1,31,A,2023-11-15_10h42.02.878,exp3,2022.2.2,
,,,,,,,,,,,,,,,,,,,,,,,,82,-1716,Invalid,noise,-45,2,0.6477032001130283,1,4.0,3.61220520013012,True,2,31,A,2023-11-15_10h42.02.878,exp3,2022.2.2,
,,,,,,,,,,,,,,,,,,,,,,,,84,-2274,Valid,noise,45,2,0.7874801000580192,1,4.0,2.09591619996354,True,1,31,A,2023-11-15_10h42.02.878,exp3,2022.2.2,
,,,,,,,,,,,,,,,,,,,,,,,,86,1158,Valid,signal,-45,1,0.7374101998284459,1,4.0,2.045826100045815,True,1,31,A,2023-11-15_10h42.02.878,exp3,2022.2.2,
,,,,,,,,,,,,,,,,,,,,,,,,88,557,Valid,signal,-45,1,0.8041501000989228,1,4.0,2.1124055001419038,True,1,31,A,2023-11-15_10h42.02.878,exp3,2022.2.2,
,,,,,,,,,,,,,,,,,,,,,,,,90,-2274,Valid,signal,45,2,1.0232146000489593,0,4.0,4.229908300098032,True,2,31,A,2023-11-15_10h42.02.878,exp3,2022.2.2,
,,,,,,,,,,,,,,,,,,,,,,,,92,557,Valid,noise,45,2,0.7703048000112176,1,4.0,3.796800100011751,True,2,31,A,2023-11-15_10h42.02.878,exp3,2022.2.2,
,,,,,,,,,,,,,,,,,,,,,,,,94,-557,Valid,signal,-45,1,0.8605557999107987,1,4.0,4.413063399959356,True,2,31,A,2023-11-15_10h42.02.878,exp3,2022.2.2,
,,,,,,,,,,,,,,,,,,,,,,,,96,-1158,Valid,noise,-45,1,1.813750599976629,0,4.0,6.731141300173476,True,3,31,A,2023-11-15_10h42.02.878,exp3,2022.2.2,
,,,,,,,,,,,,,,,,,,,,,,,,98,-2274,Valid,signal,45,2,2.981722499942407,0,4.0,6.147059999871999,True,2,31,A,2023-11-15_10h42.02.878,exp3,2022.2.2,
,,,,,,,,,,,,,,,,,,,,,,,,100,-1158,Valid,noise,45,2,2.738127199932933,1,3.0,4.046558300033212,True,1,31,A,2023-11-15_10h42.02.878,exp3,2022.2.2,
,,,,,,,,,,,,,,,,,,,,,,,,102,1158,Valid,signal,-45,2,1.6705795000307262,0,3.0,2.979163199895993,True,1,31,A,2023-11-15_10h42.02.878,exp3,2022.2.2,
,,,,,,,,,,,,,,,,,,,,,,,,104,-557,Invalid,noise,-45,2,8.09483029996045,1,3.0,14.750567100010812,True,4,31,A,2023-11-15_10h42.02.878,exp3,2022.2.2,
,,,,,,,,,,,,,,,,,,,,,,,,106,-557,Valid,noise,-45,2,1.5890778000466526,1,3.0,6.264331900049001,True,3,31,A,2023-11-15_10h42.02.878,exp3,2022.2.2,
,,,,,,,,,,,,,,,,,,,,,,,,108,-557,Invalid,noise,45,2,0.9877778000663966,1,3.0,2.2963292999193072,True,1,31,A,2023-11-15_10h42.02.878,exp3,2022.2.2,
,,,,,,,,,,,,,,,,,,,,,,,,110,1716,Valid,signal,-45,2,0.944516200106591,0,3.0,3.9125443999655545,True,2,31,A,2023-11-15_10h42.02.878,exp3,2022.2.2,
,,,,,,,,,,,,,,,,,,,,,,,,112,-1716,Invalid,signal,45,1,1.0156352000776678,1,3.0,5.8974358001723886,True,3,31,A,2023-11-15_10h42.02.878,exp3,2022.2.2,
,,,,,,,,,,,,,,,,,,,,,,,,114,557,Valid,noise,45,2,1.1018383998889476,1,3.0,4.313455400057137,True,2,31,A,2023-11-15_10h42.02.878,exp3,2022.2.2,
,,,,,,,,,,,,,,,,,,,,,,,,116,2274,Invalid,signal,45,2,1.0969931001309305,0,3.0,7.597954399883747,True,4,31,A,2023-11-15_10h42.02.878,exp3,2022.2.2,
