trials.label,trials.startVal,trials.maxVal,trials.minVal,trials.startValSd,trials.pthreshold,trials.beta,trials.delta,trials.gamma,trials.grain,trials.stepSize,trials.range,trials.cue,trials.thisIndex,trials.thisRepN,trials.thisN,trials.direction,trials.stepType,trials.intensity,signalOpacity,level,trials.response,stair_eye_ok,nTrial,position,validity,Stimulus,orientation,response_key,response_rt,response_correct,confidence,confidence_rt,eye_ok,trial_rep,participant,session,date,expName,psychopyVersion,
low_opac_i,0.4,1,0.01,3,0.82,3.5,0.01,0,0.01,4,5,Invalid,2,1,0,start,lin,0.4,0.4,0.4,1,True,,,,,,,,,,,,,16,A,2023-09-13_10h41.26.185,exp3,2022.2.2,
high_opac_v,0.01,1,0.01,3,0.82,3.5,0.01,0,0.01,4,5,Valid,1,1,1,start,lin,0.01,0.01,0.01,1,True,,,,,,,,,,,,,16,A,2023-09-13_10h41.26.185,exp3,2022.2.2,
low_opac_v,0.4,1,0.01,3,0.82,3.5,0.01,0,0.01,4,5,Valid,0,1,2,start,lin,0.4,0.4,0.4,1,True,,,,,,,,,,,,,16,A,2023-09-13_10h41.26.185,exp3,2022.2.2,
low_opac_i,0.4,1,0.01,3,0.82,3.5,0.01,0,0.01,4,5,Invalid,2,2,3,start,lin,0.01,0,0.01,0,True,,,,,,,,,,,,,16,A,2023-09-13_10h41.26.185,exp3,2022.2.2,
low_opac_v,0.4,1,0.01,3,0.82,3.5,0.01,0,0.01,4,5,Valid,0,2,4,start,lin,0.01,0.01,0.01,0,True,,,,,,,,,,,,,16,A,2023-09-13_10h41.26.185,exp3,2022.2.2,
high_opac_v,0.01,1,0.01,3,0.82,3.5,0.01,0,0.01,4,5,Valid,1,2,5,start,lin,0.01,0,0.01,1,True,,,,,,,,,,,,,16,A,2023-09-13_10h41.26.185,exp3,2022.2.2,
low_opac_v,0.4,1,0.01,3,0.82,3.5,0.01,0,0.01,4,5,Valid,0,3,6,start,lin,0.3144098688205103,0,0.3144098688205103,1,True,,,,,,,,,,,,,16,A,2023-09-13_10h41.26.185,exp3,2022.2.2,
low_opac_i,0.4,1,0.01,3,0.82,3.5,0.01,0,0.01,4,5,Invalid,2,3,7,start,lin,0.3144098688205103,0,0.3144098688205103,1,True,,,,,,,,,,,,,16,A,2023-09-13_10h41.26.185,exp3,2022.2.2,
high_opac_v,0.01,1,0.01,3,0.82,3.5,0.01,0,0.01,4,5,Valid,1,3,8,start,lin,0.01,0,0.01,1,True,,,,,,,,,,,,,16,A,2023-09-13_10h41.26.185,exp3,2022.2.2,
low_opac_i,0.4,1,0.01,3,0.82,3.5,0.01,0,0.01,4,5,Invalid,2,4,9,start,lin,0.23561159539411833,0,0.23561159539411833,1,True,,,,,,,,,,,,,16,A,2023-09-13_10h41.26.185,exp3,2022.2.2,
low_opac_v,0.4,1,0.01,3,0.82,3.5,0.01,0,0.01,4,5,Valid,0,4,10,start,lin,0.23561159539411833,0.23561159539411833,0.23561159539411833,1,True,,,,,,,,,,,,,16,A,2023-09-13_10h41.26.185,exp3,2022.2.2,
high_opac_v,0.01,1,0.01,3,0.82,3.5,0.01,0,0.01,4,5,Valid,1,4,11,start,lin,0.01,0.01,0.01,0,True,,,,,,,,,,,,,16,A,2023-09-13_10h41.26.185,exp3,2022.2.2,
high_opac_v,0.01,1,0.01,3,0.82,3.5,0.01,0,0.01,4,5,Valid,1,5,12,start,lin,0.01,0,0.01,1,True,,,,,,,,,,,,,16,A,2023-09-13_10h41.26.185,exp3,2022.2.2,
low_opac_v,0.4,1,0.01,3,0.82,3.5,0.01,0,0.01,4,5,Valid,0,5,13,start,lin,0.1841780991895161,0.1841780991895161,0.1841780991895161,0,True,,,,,,,,,,,,,16,A,2023-09-13_10h41.26.185,exp3,2022.2.2,
low_opac_i,0.4,1,0.01,3,0.82,3.5,0.01,0,0.01,4,5,Invalid,2,5,14,start,lin,0.1841780991895161,0.1841780991895161,0.1841780991895161,1,True,,,,,,,,,,,,,16,A,2023-09-13_10h41.26.185,exp3,2022.2.2,
high_opac_v,0.01,1,0.01,3,0.82,3.5,0.01,0,0.01,4,5,Valid,1,6,15,start,lin,0.01,0.01,0.01,0,True,,,,,,,,,,,,,16,A,2023-09-13_10h41.26.185,exp3,2022.2.2,
low_opac_v,0.4,1,0.01,3,0.82,3.5,0.01,0,0.01,4,5,Valid,0,6,16,start,lin,0.2906212640370164,0,0.2906212640370164,1,True,,,,,,,,,,,,,16,A,2023-09-13_10h41.26.185,exp3,2022.2.2,
low_opac_i,0.4,1,0.01,3,0.82,3.5,0.01,0,0.01,4,5,Invalid,2,6,17,start,lin,0.14081453445857006,0,0.14081453445857006,1,True,,,,,,,,,,,,,16,A,2023-09-13_10h41.26.185,exp3,2022.2.2,
high_opac_v,0.01,1,0.01,3,0.82,3.5,0.01,0,0.01,4,5,Valid,1,7,18,start,lin,0.06336997635913784,0,0.06336997635913784,1,True,,,,,,,,,,,,,16,A,2023-09-13_10h41.26.185,exp3,2022.2.2,
low_opac_i,0.4,1,0.01,3,0.82,3.5,0.01,0,0.01,4,5,Invalid,2,7,19,start,lin,0.10410764613410528,0,0.10410764613410528,1,True,,,,,,,,,,,,,16,A,2023-09-13_10h41.26.185,exp3,2022.2.2,
low_opac_v,0.4,1,0.01,3,0.82,3.5,0.01,0,0.01,4,5,Valid,0,7,20,start,lin,0.26757657584032296,0.26757657584032296,0.26757657584032296,1,True,,,,,,,,,,,,,16,A,2023-09-13_10h41.26.185,exp3,2022.2.2,
low_opac_i,0.4,1,0.01,3,0.82,3.5,0.01,0,0.01,4,5,Invalid,2,8,21,start,lin,0.06939770050553568,0.06939770050553568,0.06939770050553568,0,True,,,,,,,,,,,,,16,A,2023-09-13_10h41.26.185,exp3,2022.2.2,
low_opac_v,0.4,1,0.01,3,0.82,3.5,0.01,0,0.01,4,5,Valid,0,8,22,start,lin,0.24929274375472918,0,0.24929274375472918,1,True,,,,,,,,,,,,,16,A,2023-09-13_10h41.26.185,exp3,2022.2.2,
high_opac_v,0.01,1,0.01,3,0.82,3.5,0.01,0,0.01,4,5,Valid,1,8,23,start,lin,0.04826674546431913,0,0.04826674546431913,1,True,,,,,,,,,,,,,16,A,2023-09-13_10h41.26.185,exp3,2022.2.2,
low_opac_v,0.4,1,0.01,3,0.82,3.5,0.01,0,0.01,4,5,Valid,0,9,24,start,lin,0.23351827325587501,0,0.23351827325587501,1,True,,,,,,,,,,,,,16,A,2023-09-13_10h41.26.185,exp3,2022.2.2,
high_opac_v,0.01,1,0.01,3,0.82,3.5,0.01,0,0.01,4,5,Valid,1,9,25,start,lin,0.035516088164064354,0,0.035516088164064354,1,True,,,,,,,,,,,,,16,A,2023-09-13_10h41.26.185,exp3,2022.2.2,
low_opac_i,0.4,1,0.01,3,0.82,3.5,0.01,0,0.01,4,5,Invalid,2,9,26,start,lin,0.15355165060147863,0,0.15355165060147863,1,True,,,,,,,,,,,,,16,A,2023-09-13_10h41.26.185,exp3,2022.2.2,
high_opac_v,0.01,1,0.01,3,0.82,3.5,0.01,0,0.01,4,5,Valid,1,10,27,start,lin,0.024086929870754573,0,0.024086929870754573,1,True,,,,,,,,,,,,,16,A,2023-09-13_10h41.26.185,exp3,2022.2.2,
low_opac_i,0.4,1,0.01,3,0.82,3.5,0.01,0,0.01,4,5,Invalid,2,10,28,start,lin,0.1380266354329187,0.1380266354329187,0.1380266354329187,0,True,,,,,,,,,,,,,16,A,2023-09-13_10h41.26.185,exp3,2022.2.2,
low_opac_v,0.4,1,0.01,3,0.82,3.5,0.01,0,0.01,4,5,Valid,0,10,29,start,lin,0.21917709678115252,0,0.21917709678115252,1,True,,,,,,,,,,,,,16,A,2023-09-13_10h41.26.185,exp3,2022.2.2,
low_opac_i,0.4,1,0.01,3,0.82,3.5,0.01,0,0.01,4,5,Invalid,2,11,30,start,lin,0.18500047044237494,0,0.18500047044237494,1,True,,,,,,,,,,,,,16,A,2023-09-13_10h41.26.185,exp3,2022.2.2,
high_opac_v,0.01,1,0.01,3,0.82,3.5,0.01,0,0.01,4,5,Valid,1,11,31,start,lin,0.01236696669668582,0,0.01236696669668582,1,True,,,,,,,,,,,,,16,A,2023-09-13_10h41.26.185,exp3,2022.2.2,
low_opac_v,0.4,1,0.01,3,0.82,3.5,0.01,0,0.01,4,5,Valid,0,11,32,start,lin,0.20666921686978187,0.20666921686978187,0.20666921686978187,0,True,,,,,,,,,,,,,16,A,2023-09-13_10h41.26.185,exp3,2022.2.2,
low_opac_i,0.4,1,0.01,3,0.82,3.5,0.01,0,0.01,4,5,Invalid,2,12,33,start,lin,0.17468021776316672,0,0.17468021776316672,1,True,,,,,,,,,,,,,16,A,2023-09-13_10h41.26.185,exp3,2022.2.2,
low_opac_v,0.4,1,0.01,3,0.82,3.5,0.01,0,0.01,4,5,Valid,0,12,34,start,lin,0.24793476395878253,0.24793476395878253,0.24793476395878253,0,True,,,,,,,,,,,,,16,A,2023-09-13_10h41.26.185,exp3,2022.2.2,
high_opac_v,0.01,1,0.01,3,0.82,3.5,0.01,0,0.01,4,5,Valid,1,12,35,start,lin,0.01,0.01,0.01,0,True,,,,,,,,,,,,,16,A,2023-09-13_10h41.26.185,exp3,2022.2.2,
low_opac_i,0.4,1,0.01,3,0.82,3.5,0.01,0,0.01,4,5,Invalid,2,13,36,start,lin,0.16475639416193197,0,0.16475639416193197,1,True,,,,,,,,,,,,,16,A,2023-09-13_10h41.26.185,exp3,2022.2.2,
low_opac_v,0.4,1,0.01,3,0.82,3.5,0.01,0,0.01,4,5,Valid,0,13,37,start,lin,0.28133654180758816,0,0.28133654180758816,1,True,,,,,,,,,,,,,16,A,2023-09-13_10h41.26.185,exp3,2022.2.2,
high_opac_v,0.01,1,0.01,3,0.82,3.5,0.01,0,0.01,4,5,Valid,1,13,38,start,lin,0.04048073168679477,0.04048073168679477,0.04048073168679477,0,True,,,,,,,,,,,,,16,A,2023-09-13_10h41.26.185,exp3,2022.2.2,
high_opac_v,0.01,1,0.01,3,0.82,3.5,0.01,0,0.01,4,5,Valid,1,14,39,start,lin,0.06602339258893232,0.06602339258893232,0.06602339258893232,1,True,,,,,,,,,,,,,16,A,2023-09-13_10h41.26.185,exp3,2022.2.2,
low_opac_i,0.4,1,0.01,3,0.82,3.5,0.01,0,0.01,4,5,Invalid,2,14,40,start,lin,0.1557689140282926,0,0.1557689140282926,1,True,,,,,,,,,,,,,16,A,2023-09-13_10h41.26.185,exp3,2022.2.2,
low_opac_v,0.4,1,0.01,3,0.82,3.5,0.01,0,0.01,4,5,Valid,0,14,41,start,lin,0.27345341598799755,0,0.27345341598799755,1,True,,,,,,,,,,,,,16,A,2023-09-13_10h41.26.185,exp3,2022.2.2,
high_opac_v,0.01,1,0.01,3,0.82,3.5,0.01,0,0.01,4,5,Valid,1,15,42,start,lin,0.06008085598632153,0,0.06008085598632153,1,True,,,,,,,,,,,,,16,A,2023-09-13_10h41.26.185,exp3,2022.2.2,
low_opac_i,0.4,1,0.01,3,0.82,3.5,0.01,0,0.01,4,5,Invalid,2,15,43,start,lin,0.14810321758691442,0.14810321758691442,0.14810321758691442,0,True,,,,,,,,,,,,,16,A,2023-09-13_10h41.26.185,exp3,2022.2.2,
low_opac_v,0.4,1,0.01,3,0.82,3.5,0.01,0,0.01,4,5,Valid,0,15,44,start,lin,0.26612432704000816,0.26612432704000816,0.26612432704000816,1,True,,,,,,,,,,,,,16,A,2023-09-13_10h41.26.185,exp3,2022.2.2,
low_opac_i,0.4,1,0.01,3,0.82,3.5,0.01,0,0.01,4,5,Invalid,2,16,45,start,lin,0.1761125698541988,0.1761125698541988,0.1761125698541988,1,True,,,,,,,,,,,,,16,A,2023-09-13_10h41.26.185,exp3,2022.2.2,
high_opac_v,0.01,1,0.01,3,0.82,3.5,0.01,0,0.01,4,5,Valid,1,16,46,start,lin,0.05442950720706969,0.05442950720706969,0.05442950720706969,0,True,,,,,,,,,,,,,16,A,2023-09-13_10h41.26.185,exp3,2022.2.2,
low_opac_v,0.4,1,0.01,3,0.82,3.5,0.01,0,0.01,4,5,Valid,0,16,47,start,lin,0.2597556051147936,0,0.2597556051147936,1,True,,,,,,,,,,,,,16,A,2023-09-13_10h41.26.185,exp3,2022.2.2,
low_opac_i,0.4,1,0.01,3,0.82,3.5,0.01,0,0.01,4,5,Invalid,2,17,48,start,lin,0.16985527889903965,0.16985527889903965,0.16985527889903965,1,True,,,,,,,,,,,,,16,A,2023-09-13_10h41.26.185,exp3,2022.2.2,
high_opac_v,0.01,1,0.01,3,0.82,3.5,0.01,0,0.01,4,5,Valid,1,17,49,start,lin,0.07446741291899295,0,0.07446741291899295,0,True,,,,,,,,,,,,,16,A,2023-09-13_10h41.26.185,exp3,2022.2.2,
low_opac_v,0.4,1,0.01,3,0.82,3.5,0.01,0,0.01,4,5,Valid,0,17,50,start,lin,0.25366230238914866,0.25366230238914866,0.25366230238914866,1,True,,,,,,,,,,,,,16,A,2023-09-13_10h41.26.185,exp3,2022.2.2,
high_opac_v,0.01,1,0.01,3,0.82,3.5,0.01,0,0.01,4,5,Valid,1,18,51,start,lin,0.0936222368070386,0,0.0936222368070386,0,True,,,,,,,,,,,,,16,A,2023-09-13_10h41.26.185,exp3,2022.2.2,
low_opac_i,0.4,1,0.01,3,0.82,3.5,0.01,0,0.01,4,5,Invalid,2,18,52,start,lin,0.16386507936704053,0,0.16386507936704053,1,True,,,,,,,,,,,,,16,A,2023-09-13_10h41.26.185,exp3,2022.2.2,
low_opac_v,0.4,1,0.01,3,0.82,3.5,0.01,0,0.01,4,5,Valid,0,18,53,start,lin,0.24774512591834513,0.24774512591834513,0.24774512591834513,1,True,,,,,,,,,,,,,16,A,2023-09-13_10h41.26.185,exp3,2022.2.2,
high_opac_v,0.01,1,0.01,3,0.82,3.5,0.01,0,0.01,4,5,Valid,1,19,54,start,lin,0.112317334877734,0.112317334877734,0.112317334877734,1,True,,,,,,,,,,,,,16,A,2023-09-13_10h41.26.185,exp3,2022.2.2,
low_opac_v,0.4,1,0.01,3,0.82,3.5,0.01,0,0.01,4,5,Valid,0,19,55,start,lin,0.24246095242100021,0,0.24246095242100021,1,True,,,,,,,,,,,,,16,A,2023-09-13_10h41.26.185,exp3,2022.2.2,
low_opac_i,0.4,1,0.01,3,0.82,3.5,0.01,0,0.01,4,5,Invalid,2,19,56,start,lin,0.15804648315643907,0,0.15804648315643907,1,True,,,,,,,,,,,,,16,A,2023-09-13_10h41.26.185,exp3,2022.2.2,
low_opac_v,0.4,1,0.01,3,0.82,3.5,0.01,0,0.01,4,5,Valid,0,20,57,start,lin,0.23721822618004731,0,0.23721822618004731,0,True,,,,,,,,,,,,,16,A,2023-09-13_10h41.26.185,exp3,2022.2.2,
low_opac_i,0.4,1,0.01,3,0.82,3.5,0.01,0,0.01,4,5,Invalid,2,20,58,start,lin,0.15285051337148964,0,0.15285051337148964,1,True,,,,,,,,,,,,,16,A,2023-09-13_10h41.26.185,exp3,2022.2.2,
high_opac_v,0.01,1,0.01,3,0.82,3.5,0.01,0,0.01,4,5,Valid,1,20,59,start,lin,0.10748152570978599,0,0.10748152570978599,1,True,,,,,,,,,,,,,16,A,2023-09-13_10h41.26.185,exp3,2022.2.2,
low_opac_v,0.4,1,0.01,3,0.82,3.5,0.01,0,0.01,4,5,Valid,0,21,60,start,lin,0.2565187082151391,0,0.2565187082151391,1,True,,,,,,,,,,,,,16,A,2023-09-13_10h41.26.185,exp3,2022.2.2,
high_opac_v,0.01,1,0.01,3,0.82,3.5,0.01,0,0.01,4,5,Valid,1,21,61,start,lin,0.10317625432993675,0.10317625432993675,0.10317625432993675,0,True,,,,,,,,,,,,,16,A,2023-09-13_10h41.26.185,exp3,2022.2.2,
low_opac_i,0.4,1,0.01,3,0.82,3.5,0.01,0,0.01,4,5,Invalid,2,21,62,start,lin,0.1476968380397753,0,0.1476968380397753,1,True,,,,,,,,,,,,,16,A,2023-09-13_10h41.26.185,exp3,2022.2.2,
low_opac_v,0.4,1,0.01,3,0.82,3.5,0.01,0,0.01,4,5,Valid,0,22,63,start,lin,0.25225475775923434,0,0.25225475775923434,1,True,,,,,,,,,,,,,16,A,2023-09-13_10h41.26.185,exp3,2022.2.2,
high_opac_v,0.01,1,0.01,3,0.82,3.5,0.01,0,0.01,4,5,Valid,1,22,64,start,lin,0.11934180610414846,0.11934180610414846,0.11934180610414846,1,True,,,,,,,,,,,,,16,A,2023-09-13_10h41.26.185,exp3,2022.2.2,
low_opac_i,0.4,1,0.01,3,0.82,3.5,0.01,0,0.01,4,5,Invalid,2,22,65,start,lin,0.14303601903727203,0,0.14303601903727203,1,True,,,,,,,,,,,,,16,A,2023-09-13_10h41.26.185,exp3,2022.2.2,
low_opac_i,0.4,1,0.01,3,0.82,3.5,0.01,0,0.01,4,5,Invalid,2,23,66,start,lin,0.13834697766126086,0,0.13834697766126086,1,True,,,,,,,,,,,,,16,A,2023-09-13_10h41.26.185,exp3,2022.2.2,
high_opac_v,0.01,1,0.01,3,0.82,3.5,0.01,0,0.01,4,5,Valid,1,23,67,start,lin,0.1153255058608604,0.1153255058608604,0.1153255058608604,0,True,,,,,,,,,,,,,16,A,2023-09-13_10h41.26.185,exp3,2022.2.2,
low_opac_v,0.4,1,0.01,3,0.82,3.5,0.01,0,0.01,4,5,Valid,0,23,68,start,lin,0.24795071275544892,0.24795071275544892,0.24795071275544892,1,True,,,,,,,,,,,,,16,A,2023-09-13_10h41.26.185,exp3,2022.2.2,
low_opac_v,0.4,1,0.01,3,0.82,3.5,0.01,0,0.01,4,5,Valid,0,24,69,start,lin,0.24401987539596273,0.24401987539596273,0.24401987539596273,1,True,,,,,,,,,,,,,16,A,2023-09-13_10h41.26.185,exp3,2022.2.2,
low_opac_i,0.4,1,0.01,3,0.82,3.5,0.01,0,0.01,4,5,Invalid,2,24,70,start,lin,0.13405650619982634,0.13405650619982634,0.13405650619982634,1,True,,,,,,,,,,,,,16,A,2023-09-13_10h41.26.185,exp3,2022.2.2,
high_opac_v,0.01,1,0.01,3,0.82,3.5,0.01,0,0.01,4,5,Valid,1,24,71,start,lin,0.13114494701678212,0.13114494701678212,0.13114494701678212,1,True,,,,,,,,,,,,,16,A,2023-09-13_10h41.26.185,exp3,2022.2.2,
low_opac_v,0.4,1,0.01,3,0.82,3.5,0.01,0,0.01,4,5,Valid,0,25,72,start,lin,0.24003310490057916,0.24003310490057916,0.24003310490057916,1,True,,,,,,,,,,,,,16,A,2023-09-13_10h41.26.185,exp3,2022.2.2,
high_opac_v,0.01,1,0.01,3,0.82,3.5,0.01,0,0.01,4,5,Valid,1,25,73,start,lin,0.12734167843803157,0.12734167843803157,0.12734167843803157,1,True,,,,,,,,,,,,,16,A,2023-09-13_10h41.26.185,exp3,2022.2.2,
low_opac_i,0.4,1,0.01,3,0.82,3.5,0.01,0,0.01,4,5,Invalid,2,25,74,start,lin,0.129714842733674,0,0.129714842733674,0,True,,,,,,,,,,,,,16,A,2023-09-13_10h41.26.185,exp3,2022.2.2,
high_opac_v,0.01,1,0.01,3,0.82,3.5,0.01,0,0.01,4,5,Valid,1,26,75,start,lin,0.12388722626244102,0,0.12388722626244102,0,True,,,,,,,,,,,,,16,A,2023-09-13_10h41.26.185,exp3,2022.2.2,
low_opac_v,0.4,1,0.01,3,0.82,3.5,0.01,0,0.01,4,5,Valid,0,26,76,start,lin,0.23631564120020276,0,0.23631564120020276,0,True,,,,,,,,,,,,,16,A,2023-09-13_10h41.26.185,exp3,2022.2.2,
low_opac_i,0.4,1,0.01,3,0.82,3.5,0.01,0,0.01,4,5,Invalid,2,26,77,start,lin,0.1456136878969555,0,0.1456136878969555,0,True,,,,,,,,,,,,,16,A,2023-09-13_10h41.26.185,exp3,2022.2.2,
low_opac_v,0.4,1,0.01,3,0.82,3.5,0.01,0,0.01,4,5,Valid,0,27,78,start,lin,0.2508449583220882,0.2508449583220882,0.2508449583220882,1,True,,,,,,,,,,,,,16,A,2023-09-13_10h41.26.185,exp3,2022.2.2,
high_opac_v,0.01,1,0.01,3,0.82,3.5,0.01,0,0.01,4,5,Valid,1,27,79,start,lin,0.13709895706238517,0,0.13709895706238517,0,True,,,,,,,,,,,,,16,A,2023-09-13_10h41.26.185,exp3,2022.2.2,
low_opac_i,0.4,1,0.01,3,0.82,3.5,0.01,0,0.01,4,5,Invalid,2,27,80,start,lin,0.16057813081864727,0.16057813081864727,0.16057813081864727,1,True,,,,,,,,,,,,,16,A,2023-09-13_10h41.26.185,exp3,2022.2.2,
low_opac_v,0.4,1,0.01,3,0.82,3.5,0.01,0,0.01,4,5,Valid,0,28,81,start,lin,0.2474859940181829,0.2474859940181829,0.2474859940181829,1,True,,,,,,,,,,,,,16,A,2023-09-13_10h41.26.185,exp3,2022.2.2,
low_opac_i,0.4,1,0.01,3,0.82,3.5,0.01,0,0.01,4,5,Invalid,2,28,82,start,lin,0.15712570828951863,0,0.15712570828951863,0,True,,,,,,,,,,,,,16,A,2023-09-13_10h41.26.185,exp3,2022.2.2,
high_opac_v,0.01,1,0.01,3,0.82,3.5,0.01,0,0.01,4,5,Valid,1,28,83,start,lin,0.1507208108408738,0,0.1507208108408738,0,True,,,,,,,,,,,,,16,A,2023-09-13_10h41.26.185,exp3,2022.2.2,
low_opac_i,0.4,1,0.01,3,0.82,3.5,0.01,0,0.01,4,5,Invalid,2,29,84,start,lin,0.17053602175332283,0,0.17053602175332283,0,True,,,,,,,,,,,,,16,A,2023-09-13_10h41.26.185,exp3,2022.2.2,
high_opac_v,0.01,1,0.01,3,0.82,3.5,0.01,0,0.01,4,5,Valid,1,29,85,start,lin,0.16380953213574828,0,0.16380953213574828,0,True,,,,,,,,,,,,,16,A,2023-09-13_10h41.26.185,exp3,2022.2.2,
low_opac_v,0.4,1,0.01,3,0.82,3.5,0.01,0,0.01,4,5,Valid,0,29,86,start,lin,0.2443787975347479,0.2443787975347479,0.2443787975347479,1,True,,,,,,,,,,,,,16,A,2023-09-13_10h41.26.185,exp3,2022.2.2,
low_opac_v,0.4,1,0.01,3,0.82,3.5,0.01,0,0.01,4,5,Valid,0,30,87,start,lin,0.24118746773482774,0,0.24118746773482774,0,True,,,,,,,,,,,,,16,A,2023-09-13_10h41.26.185,exp3,2022.2.2,
high_opac_v,0.01,1,0.01,3,0.82,3.5,0.01,0,0.01,4,5,Valid,1,30,88,start,lin,0.1764327800817516,0,0.1764327800817516,1,True,,,,,,,,,,,,,16,A,2023-09-13_10h41.26.185,exp3,2022.2.2,
low_opac_i,0.4,1,0.01,3,0.82,3.5,0.01,0,0.01,4,5,Invalid,2,30,89,start,lin,0.18301565710949652,0,0.18301565710949652,1,True,,,,,,,,,,,,,16,A,2023-09-13_10h41.26.185,exp3,2022.2.2,
low_opac_v,0.4,1,0.01,3,0.82,3.5,0.01,0,0.01,4,5,Valid,0,31,90,start,lin,0.25305620249183475,0.25305620249183475,0.25305620249183475,1,True,,,,,,,,,,,,,16,A,2023-09-13_10h41.26.185,exp3,2022.2.2,
low_opac_i,0.4,1,0.01,3,0.82,3.5,0.01,0,0.01,4,5,Invalid,2,31,91,start,lin,0.17992528184328374,0.17992528184328374,0.17992528184328374,1,True,,,,,,,,,,,,,16,A,2023-09-13_10h41.26.185,exp3,2022.2.2,
high_opac_v,0.01,1,0.01,3,0.82,3.5,0.01,0,0.01,4,5,Valid,1,31,92,start,lin,0.17336442523070916,0.17336442523070916,0.17336442523070916,1,True,,,,,,,,,,,,,16,A,2023-09-13_10h41.26.185,exp3,2022.2.2,
low_opac_v,0.4,1,0.01,3,0.82,3.5,0.01,0,0.01,4,5,Valid,0,32,93,start,lin,0.2501491062167862,0,0.2501491062167862,1,True,,,,,,,,,,,,,16,A,2023-09-13_10h41.26.185,exp3,2022.2.2,
low_opac_i,0.4,1,0.01,3,0.82,3.5,0.01,0,0.01,4,5,Invalid,2,32,94,start,lin,0.17703588367042467,0.17703588367042467,0.17703588367042467,1,True,,,,,,,,,,,,,16,A,2023-09-13_10h41.26.185,exp3,2022.2.2,
high_opac_v,0.01,1,0.01,3,0.82,3.5,0.01,0,0.01,4,5,Valid,1,32,95,start,lin,0.17022022267947975,0.17022022267947975,0.17022022267947975,1,True,,,,,,,,,,,,,16,A,2023-09-13_10h41.26.185,exp3,2022.2.2,
low_opac_i,0.4,1,0.01,3,0.82,3.5,0.01,0,0.01,4,5,Invalid,2,33,96,start,lin,0.1743454407145588,0.1743454407145588,0.1743454407145588,1,True,,,,,,,,,,,,,16,A,2023-09-13_10h41.26.185,exp3,2022.2.2,
low_opac_v,0.4,1,0.01,3,0.82,3.5,0.01,0,0.01,4,5,Valid,0,33,97,start,lin,0.24739360744304145,0,0.24739360744304145,1,True,,,,,,,,,,,,,16,A,2023-09-13_10h41.26.185,exp3,2022.2.2,
high_opac_v,0.01,1,0.01,3,0.82,3.5,0.01,0,0.01,4,5,Valid,1,33,98,start,lin,0.1673015700873275,0.1673015700873275,0.1673015700873275,1,True,,,,,,,,,,,,,16,A,2023-09-13_10h41.26.185,exp3,2022.2.2,
low_opac_i,0.4,1,0.01,3,0.82,3.5,0.01,0,0.01,4,5,Invalid,2,34,99,start,lin,0.17156774883371748,0.17156774883371748,0.17156774883371748,1,True,,,,,,,,,,,,,16,A,2023-09-13_10h41.26.185,exp3,2022.2.2,
high_opac_v,0.01,1,0.01,3,0.82,3.5,0.01,0,0.01,4,5,Valid,1,34,100,start,lin,0.16460222769321084,0.16460222769321084,0.16460222769321084,1,True,,,,,,,,,,,,,16,A,2023-09-13_10h41.26.185,exp3,2022.2.2,
low_opac_v,0.4,1,0.01,3,0.82,3.5,0.01,0,0.01,4,5,Valid,0,34,101,start,lin,0.24481981664058625,0.24481981664058625,0.24481981664058625,1,True,,,,,,,,,,,,,16,A,2023-09-13_10h41.26.185,exp3,2022.2.2,
high_opac_v,0.01,1,0.01,3,0.82,3.5,0.01,0,0.01,4,5,Valid,1,35,102,start,lin,0.16183246566819143,0,0.16183246566819143,0,True,,,,,,,,,,,,,16,A,2023-09-13_10h41.26.185,exp3,2022.2.2,
low_opac_i,0.4,1,0.01,3,0.82,3.5,0.01,0,0.01,4,5,Invalid,2,35,103,start,lin,0.16889711086420922,0.16889711086420922,0.16889711086420922,1,True,,,,,,,,,,,,,16,A,2023-09-13_10h41.26.185,exp3,2022.2.2,
low_opac_v,0.4,1,0.01,3,0.82,3.5,0.01,0,0.01,4,5,Valid,0,35,104,start,lin,0.2421575399256643,0,0.2421575399256643,1,True,,,,,,,,,,,,,16,A,2023-09-13_10h41.26.185,exp3,2022.2.2,
low_opac_v,0.4,1,0.01,3,0.82,3.5,0.01,0,0.01,4,5,Valid,0,36,105,start,lin,0.23958014335621838,0.23958014335621838,0.23958014335621838,1,True,,,,,,,,,,,,,16,A,2023-09-13_10h41.26.185,exp3,2022.2.2,
low_opac_i,0.4,1,0.01,3,0.82,3.5,0.01,0,0.01,4,5,Invalid,2,36,106,start,lin,0.1664003937625327,0,0.1664003937625327,0,True,,,,,,,,,,,,,16,A,2023-09-13_10h41.26.185,exp3,2022.2.2,
high_opac_v,0.01,1,0.01,3,0.82,3.5,0.01,0,0.01,4,5,Valid,1,36,107,start,lin,0.17215541983854382,0.17215541983854382,0.17215541983854382,1,True,,,,,,,,,,,,,16,A,2023-09-13_10h41.26.185,exp3,2022.2.2,
high_opac_v,0.01,1,0.01,3,0.82,3.5,0.01,0,0.01,4,5,Valid,1,37,108,start,lin,0.16954087942406434,0,0.16954087942406434,1,True,,,,,,,,,,,,,16,A,2023-09-13_10h41.26.185,exp3,2022.2.2,
low_opac_i,0.4,1,0.01,3,0.82,3.5,0.01,0,0.01,4,5,Invalid,2,37,109,start,lin,0.17655750027840483,0,0.17655750027840483,1,True,,,,,,,,,,,,,16,A,2023-09-13_10h41.26.185,exp3,2022.2.2,
low_opac_v,0.4,1,0.01,3,0.82,3.5,0.01,0,0.01,4,5,Valid,0,37,110,start,lin,0.23713518834058564,0,0.23713518834058564,1,True,,,,,,,,,,,,,16,A,2023-09-13_10h41.26.185,exp3,2022.2.2,
high_opac_v,0.01,1,0.01,3,0.82,3.5,0.01,0,0.01,4,5,Valid,1,38,111,start,lin,0.16710358878479542,0.16710358878479542,0.16710358878479542,0,True,,,,,,,,,,,,,16,A,2023-09-13_10h41.26.185,exp3,2022.2.2,
low_opac_v,0.4,1,0.01,3,0.82,3.5,0.01,0,0.01,4,5,Valid,0,38,112,start,lin,0.23483255965783406,0.23483255965783406,0.23483255965783406,1,True,,,,,,,,,,,,,16,A,2023-09-13_10h41.26.185,exp3,2022.2.2,
low_opac_i,0.4,1,0.01,3,0.82,3.5,0.01,0,0.01,4,5,Invalid,2,38,113,start,lin,0.17429006153234514,0,0.17429006153234514,1,True,,,,,,,,,,,,,16,A,2023-09-13_10h41.26.185,exp3,2022.2.2,
low_opac_i,0.4,1,0.01,3,0.82,3.5,0.01,0,0.01,4,5,Invalid,2,39,114,start,lin,0.17192745613406282,0,0.17192745613406282,0,True,,,,,,,,,,,,,16,A,2023-09-13_10h41.26.185,exp3,2022.2.2,
high_opac_v,0.01,1,0.01,3,0.82,3.5,0.01,0,0.01,4,5,Valid,1,39,115,start,lin,0.1769088334104473,0.1769088334104473,0.1769088334104473,1,True,,,,,,,,,,,,,16,A,2023-09-13_10h41.26.185,exp3,2022.2.2,
low_opac_v,0.4,1,0.01,3,0.82,3.5,0.01,0,0.01,4,5,Valid,0,39,116,start,lin,0.23243505043059687,0,0.23243505043059687,1,True,,,,,,,,,,,,,16,A,2023-09-13_10h41.26.185,exp3,2022.2.2,
low_opac_v,0.4,1,0.01,3,0.82,3.5,0.01,0,0.01,4,5,Valid,0,40,117,start,lin,0.23010295912872414,0.23010295912872414,0.23010295912872414,1,True,,,,,,,,,,,,,16,A,2023-09-13_10h41.26.185,exp3,2022.2.2,
high_opac_v,0.01,1,0.01,3,0.82,3.5,0.01,0,0.01,4,5,Valid,1,40,118,start,lin,0.17466683790100906,0,0.17466683790100906,1,True,,,,,,,,,,,,,16,A,2023-09-13_10h41.26.185,exp3,2022.2.2,
low_opac_i,0.4,1,0.01,3,0.82,3.5,0.01,0,0.01,4,5,Invalid,2,40,119,start,lin,0.18084912252127547,0,0.18084912252127547,1,True,,,,,,,,,,,,,16,A,2023-09-13_10h41.26.185,exp3,2022.2.2,
low_opac_v,0.4,1,0.01,3,0.82,3.5,0.01,0,0.01,4,5,Valid,0,41,120,start,lin,0.22785125652899452,0,0.22785125652899452,1,True,,,,,,,,,,,,,16,A,2023-09-13_10h41.26.185,exp3,2022.2.2,
low_opac_i,0.4,1,0.01,3,0.82,3.5,0.01,0,0.01,4,5,Invalid,2,41,121,start,lin,0.17863920205967027,0.17863920205967027,0.17863920205967027,1,True,,,,,,,,,,,,,16,A,2023-09-13_10h41.26.185,exp3,2022.2.2,
high_opac_v,0.01,1,0.01,3,0.82,3.5,0.01,0,0.01,4,5,Valid,1,41,122,start,lin,0.1723434440597624,0.1723434440597624,0.1723434440597624,1,True,,,,,,,,,,,,,16,A,2023-09-13_10h41.26.185,exp3,2022.2.2,
high_opac_v,0.01,1,0.01,3,0.82,3.5,0.01,0,0.01,4,5,Valid,1,42,123,start,lin,0.17009291962084205,0,0.17009291962084205,1,True,,,,,,,,,,,,,16,A,2023-09-13_10h41.26.185,exp3,2022.2.2,
low_opac_i,0.4,1,0.01,3,0.82,3.5,0.01,0,0.01,4,5,Invalid,2,42,124,start,lin,0.17656542184881835,0,0.17656542184881835,1,True,,,,,,,,,,,,,16,A,2023-09-13_10h41.26.185,exp3,2022.2.2,
low_opac_v,0.4,1,0.01,3,0.82,3.5,0.01,0,0.01,4,5,Valid,0,42,125,start,lin,0.2257279924080234,0,0.2257279924080234,1,True,,,,,,,,,,,,,16,A,2023-09-13_10h41.26.185,exp3,2022.2.2,
low_opac_v,0.4,1,0.01,3,0.82,3.5,0.01,0,0.01,4,5,Valid,0,43,126,start,lin,0.22369872187891823,0.22369872187891823,0.22369872187891823,1,True,,,,,,,,,,,,,16,A,2023-09-13_10h41.26.185,exp3,2022.2.2,
high_opac_v,0.01,1,0.01,3,0.82,3.5,0.01,0,0.01,4,5,Valid,1,43,127,start,lin,0.16795702188486616,0.16795702188486616,0.16795702188486616,1,True,,,,,,,,,,,,,16,A,2023-09-13_10h41.26.185,exp3,2022.2.2,
low_opac_i,0.4,1,0.01,3,0.82,3.5,0.01,0,0.01,4,5,Invalid,2,43,128,start,lin,0.17459847686071403,0.17459847686071403,0.17459847686071403,1,True,,,,,,,,,,,,,16,A,2023-09-13_10h41.26.185,exp3,2022.2.2,
low_opac_v,0.4,1,0.01,3,0.82,3.5,0.01,0,0.01,4,5,Valid,0,44,129,start,lin,0.2215552357209856,0.2215552357209856,0.2215552357209856,1,True,,,,,,,,,,,,,16,A,2023-09-13_10h41.26.185,exp3,2022.2.2,
low_opac_i,0.4,1,0.01,3,0.82,3.5,0.01,0,0.01,4,5,Invalid,2,44,130,start,lin,0.17254020194190875,0,0.17254020194190875,1,True,,,,,,,,,,,,,16,A,2023-09-13_10h41.26.185,exp3,2022.2.2,
high_opac_v,0.01,1,0.01,3,0.82,3.5,0.01,0,0.01,4,5,Valid,1,44,131,start,lin,0.16595308037337694,0,0.16595308037337694,1,True,,,,,,,,,,,,,16,A,2023-09-13_10h41.26.185,exp3,2022.2.2,
low_opac_i,0.4,1,0.01,3,0.82,3.5,0.01,0,0.01,4,5,Invalid,2,45,132,start,lin,0.17053285931368417,0,0.17053285931368417,1,True,,,,,,,,,,,,,16,A,2023-09-13_10h41.26.185,exp3,2022.2.2,
high_opac_v,0.01,1,0.01,3,0.82,3.5,0.01,0,0.01,4,5,Valid,1,45,133,start,lin,0.16404691657608075,0.16404691657608075,0.16404691657608075,1,True,,,,,,,,,,,,,16,A,2023-09-13_10h41.26.185,exp3,2022.2.2,
low_opac_v,0.4,1,0.01,3,0.82,3.5,0.01,0,0.01,4,5,Valid,0,45,134,start,lin,0.21944625653310784,0.21944625653310784,0.21944625653310784,1,True,,,,,,,,,,,,,16,A,2023-09-13_10h41.26.185,exp3,2022.2.2,
high_opac_v,0.01,1,0.01,3,0.82,3.5,0.01,0,0.01,4,5,Valid,1,46,135,start,lin,0.16204621124484572,0.16204621124484572,0.16204621124484572,1,True,,,,,,,,,,,,,16,A,2023-09-13_10h41.26.185,exp3,2022.2.2,
low_opac_i,0.4,1,0.01,3,0.82,3.5,0.01,0,0.01,4,5,Invalid,2,46,136,start,lin,0.1685818778857848,0,0.1685818778857848,0,True,,,,,,,,,,,,,16,A,2023-09-13_10h41.26.185,exp3,2022.2.2,
low_opac_v,0.4,1,0.01,3,0.82,3.5,0.01,0,0.01,4,5,Valid,0,46,137,start,lin,0.21742211963274502,0,0.21742211963274502,1,True,,,,,,,,,,,,,16,A,2023-09-13_10h41.26.185,exp3,2022.2.2,
low_opac_v,0.4,1,0.01,3,0.82,3.5,0.01,0,0.01,4,5,Valid,0,47,138,start,lin,0.2154994831509439,0.2154994831509439,0.2154994831509439,1,True,,,,,,,,,,,,,16,A,2023-09-13_10h41.26.185,exp3,2022.2.2,
high_opac_v,0.01,1,0.01,3,0.82,3.5,0.01,0,0.01,4,5,Valid,1,47,139,start,lin,0.1600900760870568,0,0.1600900760870568,1,True,,,,,,,,,,,,,16,A,2023-09-13_10h41.26.185,exp3,2022.2.2,
low_opac_i,0.4,1,0.01,3,0.82,3.5,0.01,0,0.01,4,5,Invalid,2,47,140,start,lin,0.17626935149512912,0.17626935149512912,0.17626935149512912,1,True,,,,,,,,,,,,,16,A,2023-09-13_10h41.26.185,exp3,2022.2.2,
low_opac_v,0.4,1,0.01,3,0.82,3.5,0.01,0,0.01,4,5,Valid,0,48,141,start,lin,0.2136505855523424,0,0.2136505855523424,1,True,,,,,,,,,,,,,16,A,2023-09-13_10h41.26.185,exp3,2022.2.2,
high_opac_v,0.01,1,0.01,3,0.82,3.5,0.01,0,0.01,4,5,Valid,1,48,142,start,lin,0.1582147769239549,0.1582147769239549,0.1582147769239549,1,True,,,,,,,,,,,,,16,A,2023-09-13_10h41.26.185,exp3,2022.2.2,
low_opac_i,0.4,1,0.01,3,0.82,3.5,0.01,0,0.01,4,5,Invalid,2,48,143,start,lin,0.17454010357658958,0.17454010357658958,0.17454010357658958,1,True,,,,,,,,,,,,,16,A,2023-09-13_10h41.26.185,exp3,2022.2.2,
low_opac_i,0.4,1,0.01,3,0.82,3.5,0.01,0,0.01,4,5,Invalid,2,49,144,start,lin,0.1727207587451471,0,0.1727207587451471,1,True,,,,,,,,,,,,,16,A,2023-09-13_10h41.26.185,exp3,2022.2.2,
low_opac_v,0.4,1,0.01,3,0.82,3.5,0.01,0,0.01,4,5,Valid,0,49,145,start,lin,0.21168731035471983,0.21168731035471983,0.21168731035471983,1,True,,,,,,,,,,,,,16,A,2023-09-13_10h41.26.185,exp3,2022.2.2,
high_opac_v,0.01,1,0.01,3,0.82,3.5,0.01,0,0.01,4,5,Valid,1,49,146,start,lin,0.1564465884139864,0,0.1564465884139864,1,True,,,,,,,,,,,,,16,A,2023-09-13_10h41.26.185,exp3,2022.2.2,
low_opac_i,0.4,1,0.01,3,0.82,3.5,0.01,0,0.01,4,5,Invalid,2,50,147,start,lin,0.17094039052448068,0,0.17094039052448068,1,True,,,,,,,,,,,,,16,A,2023-09-13_10h41.26.185,exp3,2022.2.2,
high_opac_v,0.01,1,0.01,3,0.82,3.5,0.01,0,0.01,4,5,Valid,1,50,148,start,lin,0.15475967687641412,0,0.15475967687641412,1,True,,,,,,,,,,,,,16,A,2023-09-13_10h41.26.185,exp3,2022.2.2,
low_opac_v,0.4,1,0.01,3,0.82,3.5,0.01,0,0.01,4,5,Valid,0,50,149,start,lin,0.20974663843059463,0.20974663843059463,0.20974663843059463,1,True,,,,,,,,,,,,,16,A,2023-09-13_10h41.26.185,exp3,2022.2.2,
low_opac_v,0.4,1,0.01,3,0.82,3.5,0.01,0,0.01,4,5,Valid,0,51,150,start,lin,0.2078583050838425,0.2078583050838425,0.2078583050838425,0,True,,,,,,,,,,,,,16,A,2023-09-13_10h41.26.185,exp3,2022.2.2,
high_opac_v,0.01,1,0.01,3,0.82,3.5,0.01,0,0.01,4,5,Valid,1,51,151,start,lin,0.15298757711499122,0,0.15298757711499122,1,True,,,,,,,,,,,,,16,A,2023-09-13_10h41.26.185,exp3,2022.2.2,
low_opac_i,0.4,1,0.01,3,0.82,3.5,0.01,0,0.01,4,5,Invalid,2,51,152,start,lin,0.16918874664396455,0.16918874664396455,0.16918874664396455,1,True,,,,,,,,,,,,,16,A,2023-09-13_10h41.26.185,exp3,2022.2.2,
low_opac_i,0.4,1,0.01,3,0.82,3.5,0.01,0,0.01,4,5,Invalid,2,52,153,start,lin,0.16752440312698988,0.16752440312698988,0.16752440312698988,1,True,,,,,,,,,,,,,16,A,2023-09-13_10h41.26.185,exp3,2022.2.2,
high_opac_v,0.01,1,0.01,3,0.82,3.5,0.01,0,0.01,4,5,Valid,1,52,154,start,lin,0.1512562444673875,0.1512562444673875,0.1512562444673875,1,True,,,,,,,,,,,,,16,A,2023-09-13_10h41.26.185,exp3,2022.2.2,
low_opac_v,0.4,1,0.01,3,0.82,3.5,0.01,0,0.01,4,5,Valid,0,52,155,start,lin,0.21542941684288222,0.21542941684288222,0.21542941684288222,1,True,,,,,,,,,,,,,16,A,2023-09-13_10h41.26.185,exp3,2022.2.2,
low_opac_i,0.4,1,0.01,3,0.82,3.5,0.01,0,0.01,4,5,Invalid,2,53,156,start,lin,0.1659400477869689,0.1659400477869689,0.1659400477869689,1,True,,,,,,,,,,,,,16,A,2023-09-13_10h41.26.185,exp3,2022.2.2,
low_opac_v,0.4,1,0.01,3,0.82,3.5,0.01,0,0.01,4,5,Valid,0,53,157,start,lin,0.21379264642150386,0,0.21379264642150386,1,True,,,,,,,,,,,,,16,A,2023-09-13_10h41.26.185,exp3,2022.2.2,
high_opac_v,0.01,1,0.01,3,0.82,3.5,0.01,0,0.01,4,5,Valid,1,53,158,start,lin,0.14954898799625096,0.14954898799625096,0.14954898799625096,0,True,,,,,,,,,,,,,16,A,2023-09-13_10h41.26.185,exp3,2022.2.2,
low_opac_i,0.4,1,0.01,3,0.82,3.5,0.01,0,0.01,4,5,Invalid,2,54,159,start,lin,0.16441630427610998,0.16441630427610998,0.16441630427610998,1,True,,,,,,,,,,,,,16,A,2023-09-13_10h41.26.185,exp3,2022.2.2,
low_opac_v,0.4,1,0.01,3,0.82,3.5,0.01,0,0.01,4,5,Valid,0,54,160,start,lin,0.2120506160936308,0.2120506160936308,0.2120506160936308,1,True,,,,,,,,,,,,,16,A,2023-09-13_10h41.26.185,exp3,2022.2.2,
high_opac_v,0.01,1,0.01,3,0.82,3.5,0.01,0,0.01,4,5,Valid,1,54,161,start,lin,0.15619249817222822,0.15619249817222822,0.15619249817222822,1,True,,,,,,,,,,,,,16,A,2023-09-13_10h41.26.185,exp3,2022.2.2,
low_opac_i,0.4,1,0.01,3,0.82,3.5,0.01,0,0.01,4,5,Invalid,2,55,162,start,lin,0.16280344248423922,0,0.16280344248423922,1,True,,,,,,,,,,,,,16,A,2023-09-13_10h41.26.185,exp3,2022.2.2,
low_opac_v,0.4,1,0.01,3,0.82,3.5,0.01,0,0.01,4,5,Valid,0,55,163,start,lin,0.21032914964375435,0.21032914964375435,0.21032914964375435,1,True,,,,,,,,,,,,,16,A,2023-09-13_10h41.26.185,exp3,2022.2.2,
high_opac_v,0.01,1,0.01,3,0.82,3.5,0.01,0,0.01,4,5,Valid,1,55,164,start,lin,0.15468475122837064,0.15468475122837064,0.15468475122837064,1,True,,,,,,,,,,,,,16,A,2023-09-13_10h41.26.185,exp3,2022.2.2,
low_opac_i,0.4,1,0.01,3,0.82,3.5,0.01,0,0.01,4,5,Invalid,2,56,165,start,lin,0.16121852788191585,0,0.16121852788191585,1,True,,,,,,,,,,,,,16,A,2023-09-13_10h41.26.185,exp3,2022.2.2,
high_opac_v,0.01,1,0.01,3,0.82,3.5,0.01,0,0.01,4,5,Valid,1,56,166,start,lin,0.1530937526461835,0,0.1530937526461835,1,True,,,,,,,,,,,,,16,A,2023-09-13_10h41.26.185,exp3,2022.2.2,
low_opac_v,0.4,1,0.01,3,0.82,3.5,0.01,0,0.01,4,5,Valid,0,56,167,start,lin,0.2086269614586578,0,0.2086269614586578,1,True,,,,,,,,,,,,,16,A,2023-09-13_10h41.26.185,exp3,2022.2.2,
low_opac_v,0.4,1,0.01,3,0.82,3.5,0.01,0,0.01,4,5,Valid,0,57,168,start,lin,0.20700498382511925,0.20700498382511925,0.20700498382511925,1,True,,,,,,,,,,,,,16,A,2023-09-13_10h41.26.185,exp3,2022.2.2,
high_opac_v,0.01,1,0.01,3,0.82,3.5,0.01,0,0.01,4,5,Valid,1,57,169,start,lin,0.1515347916174393,0,0.1515347916174393,1,True,,,,,,,,,,,,,16,A,2023-09-13_10h41.26.185,exp3,2022.2.2,
low_opac_i,0.4,1,0.01,3,0.82,3.5,0.01,0,0.01,4,5,Invalid,2,57,170,start,lin,0.15964560134395636,0,0.15964560134395636,1,True,,,,,,,,,,,,,16,A,2023-09-13_10h41.26.185,exp3,2022.2.2,
low_opac_i,0.4,1,0.01,3,0.82,3.5,0.01,0,0.01,4,5,Invalid,2,58,171,start,lin,0.15813055217951025,0.15813055217951025,0.15813055217951025,1,True,,,,,,,,,,,,,16,A,2023-09-13_10h41.26.185,exp3,2022.2.2,
low_opac_v,0.4,1,0.01,3,0.82,3.5,0.01,0,0.01,4,5,Valid,0,58,172,start,lin,0.2054490908950259,0,0.2054490908950259,1,True,,,,,,,,,,,,,16,A,2023-09-13_10h41.26.185,exp3,2022.2.2,
high_opac_v,0.01,1,0.01,3,0.82,3.5,0.01,0,0.01,4,5,Valid,1,58,173,start,lin,0.14999057680162206,0,0.14999057680162206,1,True,,,,,,,,,,,,,16,A,2023-09-13_10h41.26.185,exp3,2022.2.2,
low_opac_i,0.4,1,0.01,3,0.82,3.5,0.01,0,0.01,4,5,Invalid,2,59,174,start,lin,0.15668768843741587,0.15668768843741587,0.15668768843741587,1,True,,,,,,,,,,,,,16,A,2023-09-13_10h41.26.185,exp3,2022.2.2,
low_opac_v,0.4,1,0.01,3,0.82,3.5,0.01,0,0.01,4,5,Valid,0,59,175,start,lin,0.2039417400683367,0,0.2039417400683367,1,True,,,,,,,,,,,,,16,A,2023-09-13_10h41.26.185,exp3,2022.2.2,
high_opac_v,0.01,1,0.01,3,0.82,3.5,0.01,0,0.01,4,5,Valid,1,59,176,start,lin,0.14849479516544567,0.14849479516544567,0.14849479516544567,1,True,,,,,,,,,,,,,16,A,2023-09-13_10h41.26.185,exp3,2022.2.2,
low_opac_v,0.4,1,0.01,3,0.82,3.5,0.01,0,0.01,4,5,Valid,0,60,177,start,lin,0.20233298315101733,0.20233298315101733,0.20233298315101733,1,True,,,,,,,,,,,,,16,A,2023-09-13_10h41.26.185,exp3,2022.2.2,
low_opac_i,0.4,1,0.01,3,0.82,3.5,0.01,0,0.01,4,5,Invalid,2,60,178,start,lin,0.15530099052092108,0.15530099052092108,0.15530099052092108,1,True,,,,,,,,,,,,,16,A,2023-09-13_10h41.26.185,exp3,2022.2.2,
high_opac_v,0.01,1,0.01,3,0.82,3.5,0.01,0,0.01,4,5,Valid,1,60,179,start,lin,0.14707433523214708,0,0.14707433523214708,1,True,,,,,,,,,,,,,16,A,2023-09-13_10h41.26.185,exp3,2022.2.2,
low_opac_v,0.4,1,0.01,3,0.82,3.5,0.01,0,0.01,4,5,Valid,0,61,180,start,lin,0.20074049687776732,0,0.20074049687776732,1,True,,,,,,,,,,,,,16,A,2023-09-13_10h41.26.185,exp3,2022.2.2,
low_opac_i,0.4,1,0.01,3,0.82,3.5,0.01,0,0.01,4,5,Invalid,2,61,181,start,lin,0.15395627574756887,0,0.15395627574756887,1,True,,,,,,,,,,,,,16,A,2023-09-13_10h41.26.185,exp3,2022.2.2,
high_opac_v,0.01,1,0.01,3,0.82,3.5,0.01,0,0.01,4,5,Valid,1,61,182,start,lin,0.1457132492026744,0,0.1457132492026744,1,True,,,,,,,,,,,,,16,A,2023-09-13_10h41.26.185,exp3,2022.2.2,
high_opac_v,0.01,1,0.01,3,0.82,3.5,0.01,0,0.01,4,5,Valid,1,62,183,start,lin,0.14439749075868083,0,0.14439749075868083,1,True,,,,,,,,,,,,,16,A,2023-09-13_10h41.26.185,exp3,2022.2.2,
low_opac_v,0.4,1,0.01,3,0.82,3.5,0.01,0,0.01,4,5,Valid,0,62,184,start,lin,0.1991477504539526,0,0.1991477504539526,1,True,,,,,,,,,,,,,16,A,2023-09-13_10h41.26.185,exp3,2022.2.2,
low_opac_i,0.4,1,0.01,3,0.82,3.5,0.01,0,0.01,4,5,Invalid,2,62,185,start,lin,0.15252176028982875,0,0.15252176028982875,1,True,,,,,,,,,,,,,16,A,2023-09-13_10h41.26.185,exp3,2022.2.2,
high_opac_v,0.01,1,0.01,3,0.82,3.5,0.01,0,0.01,4,5,Valid,1,63,186,start,lin,0.142999359081508,0.142999359081508,0.142999359081508,0,True,,,,,,,,,,,,,16,A,2023-09-13_10h41.26.185,exp3,2022.2.2,
low_opac_i,0.4,1,0.01,3,0.82,3.5,0.01,0,0.01,4,5,Invalid,2,63,187,start,lin,0.15110366014485313,0,0.15110366014485313,1,True,,,,,,,,,,,,,16,A,2023-09-13_10h41.26.185,exp3,2022.2.2,
low_opac_v,0.4,1,0.01,3,0.82,3.5,0.01,0,0.01,4,5,Valid,0,63,188,start,lin,0.19761314441332026,0,0.19761314441332026,1,True,,,,,,,,,,,,,16,A,2023-09-13_10h41.26.185,exp3,2022.2.2,
low_opac_i,0.4,1,0.01,3,0.82,3.5,0.01,0,0.01,4,5,Invalid,2,64,189,start,lin,0.14968853956910033,0.14968853956910033,0.14968853956910033,1,True,,,,,,,,,,,,,16,A,2023-09-13_10h41.26.185,exp3,2022.2.2,
high_opac_v,0.01,1,0.01,3,0.82,3.5,0.01,0,0.01,4,5,Valid,1,64,190,start,lin,0.1483452234064349,0,0.1483452234064349,1,True,,,,,,,,,,,,,16,A,2023-09-13_10h41.26.185,exp3,2022.2.2,
low_opac_v,0.4,1,0.01,3,0.82,3.5,0.01,0,0.01,4,5,Valid,0,64,191,start,lin,0.19614177545414913,0.19614177545414913,0.19614177545414913,1,True,,,,,,,,,,,,,16,A,2023-09-13_10h41.26.185,exp3,2022.2.2,
low_opac_i,0.4,1,0.01,3,0.82,3.5,0.01,0,0.01,4,5,Invalid,2,65,192,start,lin,0.14831666979284774,0.14831666979284774,0.14831666979284774,1,True,,,,,,,,,,,,,16,A,2023-09-13_10h41.26.185,exp3,2022.2.2,
high_opac_v,0.01,1,0.01,3,0.82,3.5,0.01,0,0.01,4,5,Valid,1,65,193,start,lin,0.1470480807578878,0.1470480807578878,0.1470480807578878,1,True,,,,,,,,,,,,,16,A,2023-09-13_10h41.26.185,exp3,2022.2.2,
low_opac_v,0.4,1,0.01,3,0.82,3.5,0.01,0,0.01,4,5,Valid,0,65,194,start,lin,0.19471798040655056,0,0.19471798040655056,1,True,,,,,,,,,,,,,16,A,2023-09-13_10h41.26.185,exp3,2022.2.2,
high_opac_v,0.01,1,0.01,3,0.82,3.5,0.01,0,0.01,4,5,Valid,1,66,195,start,lin,0.14580195128330695,0,0.14580195128330695,1,True,,,,,,,,,,,,,16,A,2023-09-13_10h41.26.185,exp3,2022.2.2,
low_opac_v,0.4,1,0.01,3,0.82,3.5,0.01,0,0.01,4,5,Valid,0,66,196,start,lin,0.19320196004299256,0,0.19320196004299256,1,True,,,,,,,,,,,,,16,A,2023-09-13_10h41.26.185,exp3,2022.2.2,
low_opac_i,0.4,1,0.01,3,0.82,3.5,0.01,0,0.01,4,5,Invalid,2,66,197,start,lin,0.1470069203924087,0.1470069203924087,0.1470069203924087,1,True,,,,,,,,,,,,,16,A,2023-09-13_10h41.26.185,exp3,2022.2.2,
high_opac_v,0.01,1,0.01,3,0.82,3.5,0.01,0,0.01,4,5,Valid,1,67,198,start,lin,0.14459515484742488,0,0.14459515484742488,1,True,,,,,,,,,,,,,16,A,2023-09-13_10h41.26.185,exp3,2022.2.2,
low_opac_v,0.4,1,0.01,3,0.82,3.5,0.01,0,0.01,4,5,Valid,0,67,199,start,lin,0.19170529410967097,0,0.19170529410967097,1,True,,,,,,,,,,,,,16,A,2023-09-13_10h41.26.185,exp3,2022.2.2,
low_opac_i,0.4,1,0.01,3,0.82,3.5,0.01,0,0.01,4,5,Invalid,2,67,200,start,lin,0.14574626249017947,0.14574626249017947,0.14574626249017947,1,True,,,,,,,,,,,,,16,A,2023-09-13_10h41.26.185,exp3,2022.2.2,
low_opac_v,0.4,1,0.01,3,0.82,3.5,0.01,0,0.01,4,5,Valid,0,68,201,start,lin,0.1902127180026187,0.1902127180026187,0.1902127180026187,1,True,,,,,,,,,,,,,16,A,2023-09-13_10h41.26.185,exp3,2022.2.2,
low_opac_i,0.4,1,0.01,3,0.82,3.5,0.01,0,0.01,4,5,Invalid,2,68,202,start,lin,0.14452305536496612,0,0.14452305536496612,1,True,,,,,,,,,,,,,16,A,2023-09-13_10h41.26.185,exp3,2022.2.2,
high_opac_v,0.01,1,0.01,3,0.82,3.5,0.01,0,0.01,4,5,Valid,1,68,203,start,lin,0.14331160582705255,0,0.14331160582705255,1,True,,,,,,,,,,,,,16,A,2023-09-13_10h41.26.185,exp3,2022.2.2,
low_opac_i,0.4,1,0.01,3,0.82,3.5,0.01,0,0.01,4,5,Invalid,2,69,204,start,lin,0.14321902815108262,0.14321902815108262,0.14321902815108262,1,True,,,,,,,,,,,,,16,A,2023-09-13_10h41.26.185,exp3,2022.2.2,
high_opac_v,0.01,1,0.01,3,0.82,3.5,0.01,0,0.01,4,5,Valid,1,69,205,start,lin,0.14204724402830488,0.14204724402830488,0.14204724402830488,1,True,,,,,,,,,,,,,16,A,2023-09-13_10h41.26.185,exp3,2022.2.2,
low_opac_v,0.4,1,0.01,3,0.82,3.5,0.01,0,0.01,4,5,Valid,0,69,206,start,lin,0.18871624388771804,0.18871624388771804,0.18871624388771804,1,True,,,,,,,,,,,,,16,A,2023-09-13_10h41.26.185,exp3,2022.2.2,
low_opac_i,0.4,1,0.01,3,0.82,3.5,0.01,0,0.01,4,5,Invalid,2,70,207,start,lin,0.1419317185629969,0.1419317185629969,0.1419317185629969,1,True,,,,,,,,,,,,,16,A,2023-09-13_10h41.26.185,exp3,2022.2.2,
high_opac_v,0.01,1,0.01,3,0.82,3.5,0.01,0,0.01,4,5,Valid,1,70,208,start,lin,0.1407908515956945,0.1407908515956945,0.1407908515956945,1,True,,,,,,,,,,,,,16,A,2023-09-13_10h41.26.185,exp3,2022.2.2,
low_opac_v,0.4,1,0.01,3,0.82,3.5,0.01,0,0.01,4,5,Valid,0,70,209,start,lin,0.18728141675200372,0.18728141675200372,0.18728141675200372,1,True,,,,,,,,,,,,,16,A,2023-09-13_10h41.26.185,exp3,2022.2.2,
high_opac_v,0.01,1,0.01,3,0.82,3.5,0.01,0,0.01,4,5,Valid,1,71,210,start,lin,0.13953607147455319,0,0.13953607147455319,1,True,,,,,,,,,,,,,16,A,2023-09-13_10h41.26.185,exp3,2022.2.2,
low_opac_v,0.4,1,0.01,3,0.82,3.5,0.01,0,0.01,4,5,Valid,0,71,211,start,lin,0.18589877206282512,0,0.18589877206282512,1,True,,,,,,,,,,,,,16,A,2023-09-13_10h41.26.185,exp3,2022.2.2,
low_opac_i,0.4,1,0.01,3,0.82,3.5,0.01,0,0.01,4,5,Invalid,2,71,212,start,lin,0.14064970016067357,0.14064970016067357,0.14064970016067357,1,True,,,,,,,,,,,,,16,A,2023-09-13_10h41.26.185,exp3,2022.2.2,
low_opac_v,0.4,1,0.01,3,0.82,3.5,0.01,0,0.01,4,5,Valid,0,72,213,start,lin,0.18455482636442727,0.18455482636442727,0.18455482636442727,1,True,,,,,,,,,,,,,16,A,2023-09-13_10h41.26.185,exp3,2022.2.2,
high_opac_v,0.01,1,0.01,3,0.82,3.5,0.01,0,0.01,4,5,Valid,1,72,214,start,lin,0.13832805146830096,0,0.13832805146830096,1,True,,,,,,,,,,,,,16,A,2023-09-13_10h41.26.185,exp3,2022.2.2,
low_opac_i,0.4,1,0.01,3,0.82,3.5,0.01,0,0.01,4,5,Invalid,2,72,215,start,lin,0.13936563989335687,0.13936563989335687,0.13936563989335687,1,True,,,,,,,,,,,,,16,A,2023-09-13_10h41.26.185,exp3,2022.2.2,
low_opac_i,0.4,1,0.01,3,0.82,3.5,0.01,0,0.01,4,5,Invalid,2,73,216,start,lin,0.1381277465519411,0,0.1381277465519411,1,True,,,,,,,,,,,,,16,A,2023-09-13_10h41.26.185,exp3,2022.2.2,
low_opac_v,0.4,1,0.01,3,0.82,3.5,0.01,0,0.01,4,5,Valid,0,73,217,start,lin,0.18311737810204856,0.18311737810204856,0.18311737810204856,1,True,,,,,,,,,,,,,16,A,2023-09-13_10h41.26.185,exp3,2022.2.2,
high_opac_v,0.01,1,0.01,3,0.82,3.5,0.01,0,0.01,4,5,Valid,1,73,218,start,lin,0.13717267038965314,0.13717267038965314,0.13717267038965314,1,True,,,,,,,,,,,,,16,A,2023-09-13_10h41.26.185,exp3,2022.2.2,
low_opac_i,0.4,1,0.01,3,0.82,3.5,0.01,0,0.01,4,5,Invalid,2,74,219,start,lin,0.13694091968042382,0,0.13694091968042382,1,True,,,,,,,,,,,,,16,A,2023-09-13_10h41.26.185,exp3,2022.2.2,
low_opac_v,0.4,1,0.01,3,0.82,3.5,0.01,0,0.01,4,5,Valid,0,74,220,start,lin,0.1816931330357028,0,0.1816931330357028,1,True,,,,,,,,,,,,,16,A,2023-09-13_10h41.26.185,exp3,2022.2.2,
high_opac_v,0.01,1,0.01,3,0.82,3.5,0.01,0,0.01,4,5,Valid,1,74,221,start,lin,0.1360596862787058,0,0.1360596862787058,1,True,,,,,,,,,,,,,16,A,2023-09-13_10h41.26.185,exp3,2022.2.2,
low_opac_i,0.4,1,0.01,3,0.82,3.5,0.01,0,0.01,4,5,Invalid,2,75,222,start,lin,0.13579467874336,0.13579467874336,0.13579467874336,1,True,,,,,,,,,,,,,16,A,2023-09-13_10h41.26.185,exp3,2022.2.2,
low_opac_v,0.4,1,0.01,3,0.82,3.5,0.01,0,0.01,4,5,Valid,0,75,223,start,lin,0.18026837642647037,0.18026837642647037,0.18026837642647037,1,True,,,,,,,,,,,,,16,A,2023-09-13_10h41.26.185,exp3,2022.2.2,
high_opac_v,0.01,1,0.01,3,0.82,3.5,0.01,0,0.01,4,5,Valid,1,75,224,start,lin,0.13497989904902558,0.13497989904902558,0.13497989904902558,1,True,,,,,,,,,,,,,16,A,2023-09-13_10h41.26.185,exp3,2022.2.2,
,,,,,,,,,,,,,,,,,,,,,,,0,-1716,Valid,noise,0,2,859.7424026000081,1,3.0,21.493382600019686,True,2,16,A,2023-09-13_10h41.26.185,exp3,2022.2.2,
,,,,,,,,,,,,,,,,,,,,,,,0,-1158,Valid,noise,0,2,869.4061421999941,1,3.0,3.13003270002082,True,1,16,A,2023-09-13_10h41.26.185,exp3,2022.2.2,
,,,,,,,,,,,,,,,,,,,,,,,0,557,Valid,signal,0,2,873.309843999974,0,3.0,2.7290730999666266,True,1,16,A,2023-09-13_10h41.26.185,exp3,2022.2.2,
,,,,,,,,,,,,,,,,,,,,,,,0,557,Valid,signal,0,2,876.8624498000136,0,3.0,2.6128456000005826,True,1,16,A,2023-09-13_10h41.26.185,exp3,2022.2.2,
,,,,,,,,,,,,,,,,,,,,,,,0,2274,Valid,signal,0,2,880.8779359000036,0,3.0,3.5133915999904275,True,1,16,A,2023-09-13_10h41.26.185,exp3,2022.2.2,
,,,,,,,,,,,,,,,,,,,,,,,0,1158,Valid,signal,0,1,885.0866884999559,1,2.0,3.1298548000049777,True,1,16,A,2023-09-13_10h41.26.185,exp3,2022.2.2,
,,,,,,,,,,,,,,,,,,,,,,,0,1716,Valid,noise,0,2,889.5826037999941,1,3.0,3.9463696000166237,True,1,16,A,2023-09-13_10h41.26.185,exp3,2022.2.2,
,,,,,,,,,,,,,,,,,,,,,,,0,-557,Valid,signal,0,2,894.462795600004,0,3.0,2.8960803999798372,True,1,16,A,2023-09-13_10h41.26.185,exp3,2022.2.2,
,,,,,,,,,,,,,,,,,,,,,,,0,2274,Valid,signal,0,2,898.2543007999775,0,3.0,2.679780399950687,True,1,16,A,2023-09-13_10h41.26.185,exp3,2022.2.2,
,,,,,,,,,,,,,,,,,,,,,,,0,-1158,Valid,noise,0,2,901.7894327999675,1,3.0,2.5961860999814235,True,1,16,A,2023-09-13_10h41.26.185,exp3,2022.2.2,
,,,,,,,,,,,,,,,,,,,,,,,0,1716,Invalid,noise,0,2,906.1906398999854,1,3.0,3.56257219996769,True,1,16,A,2023-09-13_10h41.26.185,exp3,2022.2.2,
,,,,,,,,,,,,,,,,,,,,,,,0,-1158,Valid,signal,0,2,910.174330400012,0,1.0,4.530261799984146,True,1,16,A,2023-09-13_10h41.26.185,exp3,2022.2.2,
,,,,,,,,,,,,,,,,,,,,,,,0,557,Valid,noise,0,2,915.7105411000084,1,3.0,3.162979200016707,True,1,16,A,2023-09-13_10h41.26.185,exp3,2022.2.2,
,,,,,,,,,,,,,,,,,,,,,,,0,557,Valid,noise,0,2,920.0466604999965,1,3.0,3.229393900022842,True,1,16,A,2023-09-13_10h41.26.185,exp3,2022.2.2,
,,,,,,,,,,,,,,,,,,,,,,,0,1716,Valid,noise,0,2,923.7107138999854,1,3.0,2.4461795000243,True,1,16,A,2023-09-13_10h41.26.185,exp3,2022.2.2,
,,,,,,,,,,,,,,,,,,,,,,,0,1716,Valid,signal,0,1,927.3103955999832,1,3.0,3.013087200000882,True,1,16,A,2023-09-13_10h41.26.185,exp3,2022.2.2,
,,,,,,,,,,,,,,,,,,,,,,,0,-1716,Valid,signal,0,1,931.4861321999924,1,3.0,2.7794065000489354,True,1,16,A,2023-09-13_10h41.26.185,exp3,2022.2.2,
,,,,,,,,,,,,,,,,,,,,,,,0,-1716,Valid,signal,0,1,935.0386100999895,1,3.0,2.4293554999749176,True,1,16,A,2023-09-13_10h41.26.185,exp3,2022.2.2,
,,,,,,,,,,,,,,,,,,,,,,,0,1716,Valid,signal,0,1,938.4458261000109,1,3.0,2.4291811999864876,True,1,16,A,2023-09-13_10h41.26.185,exp3,2022.2.2,
,,,,,,,,,,,,,,,,,,,,,,,0,-1716,Valid,noise,0,2,942.0774629999651,1,3.0,2.6961884000338614,True,1,16,A,2023-09-13_10h41.26.185,exp3,2022.2.2,
,,,,,,,,,,,,,,,,,,,,,,,0,557,Valid,noise,0,2,945.598100800009,1,3.0,2.7296600000117905,True,1,16,A,2023-09-13_10h41.26.185,exp3,2022.2.2,
,,,,,,,,,,,,,,,,,,,,,,,0,-1158,Valid,noise,0,2,949.3426761999726,1,3.0,2.429224300023634,True,1,16,A,2023-09-13_10h41.26.185,exp3,2022.2.2,
,,,,,,,,,,,,,,,,,,,,,,,0,1716,Invalid,noise,0,1,952.9414353999891,0,3.0,2.5961486999876797,True,1,16,A,2023-09-13_10h41.26.185,exp3,2022.2.2,
,,,,,,,,,,,,,,,,,,,,,,,0,-2274,Valid,noise,0,2,958.0943334999611,1,3.0,4.046868100005668,True,1,16,A,2023-09-13_10h41.26.185,exp3,2022.2.2,
,,,,,,,,,,,,,,,,,,,,,,,0,2274,Valid,noise,0,2,961.6460848999559,1,3.0,2.645943499985151,True,1,16,A,2023-09-13_10h41.26.185,exp3,2022.2.2,
,,,,,,,,,,,,,,,,,,,,,,,0,1158,Valid,signal,0,1,965.0536780999973,1,3.0,2.3961008000187576,True,1,16,A,2023-09-13_10h41.26.185,exp3,2022.2.2,
,,,,,,,,,,,,,,,,,,,,,,,0,2274,Valid,signal,0,2,968.6546378000057,0,3.0,2.579530799994245,True,1,16,A,2023-09-13_10h41.26.185,exp3,2022.2.2,
,,,,,,,,,,,,,,,,,,,,,,,0,-557,Valid,noise,0,2,972.0783931000042,1,3.0,2.4298036000109278,True,1,16,A,2023-09-13_10h41.26.185,exp3,2022.2.2,
,,,,,,,,,,,,,,,,,,,,,,,0,-1158,Valid,noise,0,2,975.5978501999634,1,3.0,2.362420099962037,True,1,16,A,2023-09-13_10h41.26.185,exp3,2022.2.2,
,,,,,,,,,,,,,,,,,,,,,,,0,1158,Valid,noise,0,2,978.8141991999582,1,3.0,2.1958860000013374,True,1,16,A,2023-09-13_10h41.26.185,exp3,2022.2.2,
,,,,,,,,,,,,,,,,,,,,,,,0,-557,Valid,signal,0,2,982.0301188000012,0,3.0,2.3459232000168413,True,1,16,A,2023-09-13_10h41.26.185,exp3,2022.2.2,
,,,,,,,,,,,,,,,,,,,,,,,0,-1158,Valid,noise,0,2,985.3428412000067,1,3.0,2.1965922999661416,True,1,16,A,2023-09-13_10h41.26.185,exp3,2022.2.2,
,,,,,,,,,,,,,,,,,,,,,,,0,557,Valid,signal,0,2,988.574417900003,0,3.0,2.46210439997958,True,1,16,A,2023-09-13_10h41.26.185,exp3,2022.2.2,
,,,,,,,,,,,,,,,,,,,,,,,0,1158,Valid,signal,0,1,992.0935695999651,1,3.0,2.462965299957432,True,1,16,A,2023-09-13_10h41.26.185,exp3,2022.2.2,
,,,,,,,,,,,,,,,,,,,,,,,0,-2274,Valid,signal,0,2,995.8227697999682,0,3.0,2.6129413000307977,True,1,16,A,2023-09-13_10h41.26.185,exp3,2022.2.2,
,,,,,,,,,,,,,,,,,,,,,,,0,-1716,Invalid,signal,0,1,999.1017516999855,1,3.0,2.6963343000388704,True,1,16,A,2023-09-13_10h41.26.185,exp3,2022.2.2,
,,,,,,,,,,,,,,,,,,,,,,,0,-1158,Valid,signal,0,1,1002.7661885999842,1,3.0,2.729423200013116,True,1,16,A,2023-09-13_10h41.26.185,exp3,2022.2.2,
,,,,,,,,,,,,,,,,,,,,,,,0,-557,Valid,signal,0,2,1006.6067463000072,0,3.0,2.362354199984111,True,1,16,A,2023-09-13_10h41.26.185,exp3,2022.2.2,
,,,,,,,,,,,,,,,,,,,,,,,0,2274,Valid,signal,0,1,1010.3655206999974,1,3.0,2.97918630001368,True,1,16,A,2023-09-13_10h41.26.185,exp3,2022.2.2,
,,,,,,,,,,,,,,,,,,,,,,,0,2274,Invalid,noise,0,2,1013.9818273999845,1,3.0,2.346428900025785,True,1,16,A,2023-09-13_10h41.26.185,exp3,2022.2.2,
,,,,,,,,,,,,,,,,,,,,,,,0,-2274,Valid,noise,0,2,1019.0068098999909,1,3.0,4.062993200030178,True,1,16,A,2023-09-13_10h41.26.185,exp3,2022.2.2,
,,,,,,,,,,,,,,,,,,,,,,,0,2274,Invalid,noise,0,2,1022.4946176999947,1,3.0,2.3957366999820806,True,1,16,A,2023-09-13_10h41.26.185,exp3,2022.2.2,
,,,,,,,,,,,,,,,,,,,,,,,0,2274,Valid,signal,0,2,1025.790013299964,0,3.0,2.2961660000146367,True,1,16,A,2023-09-13_10h41.26.185,exp3,2022.2.2,
,,,,,,,,,,,,,,,,,,,,,,,0,-1716,Valid,noise,0,2,1028.8456124999793,1,3.0,2.063080899999477,True,1,16,A,2023-09-13_10h41.26.185,exp3,2022.2.2,
,,,,,,,,,,,,,,,,,,,,,,,0,-2274,Valid,signal,0,2,1032.173388299998,0,3.0,2.2118625000002794,True,1,16,A,2023-09-13_10h41.26.185,exp3,2022.2.2,
,,,,,,,,,,,,,,,,,,,,,,,0,-2274,Valid,noise,0,2,1035.3748686999897,1,3.0,2.22950379998656,True,1,16,A,2023-09-13_10h41.26.185,exp3,2022.2.2,
,,,,,,,,,,,,,,,,,,,,,,,0,-1158,Valid,signal,0,1,1038.7338024000055,1,3.0,2.6293877999996766,True,1,16,A,2023-09-13_10h41.26.185,exp3,2022.2.2,
,,,,,,,,,,,,,,,,,,,,,,,0,1716,Valid,signal,0,1,1042.2214300999767,1,3.0,2.229021900042426,True,1,16,A,2023-09-13_10h41.26.185,exp3,2022.2.2,
,,,,,,,,,,,,,,,,,,,,,,,0,1716,Valid,signal,0,1,1045.421878299967,1,3.0,2.1793758000130765,True,1,16,A,2023-09-13_10h41.26.185,exp3,2022.2.2,
,,,,,,,,,,,,,,,,,,,,,,,0,2274,Valid,signal,0,1,1048.8783681999776,1,3.0,2.4964727999758907,True,1,16,A,2023-09-13_10h41.26.185,exp3,2022.2.2,
,,,,,,,,,,,,,,,,,,,,,,,0,-1158,Invalid,signal,0,1,1052.1735922999796,1,3.0,2.5792538999812678,True,1,16,A,2023-09-13_10h41.26.185,exp3,2022.2.2,
,,,,,,,,,,,,,,,,,,,,,,,0,1158,Invalid,signal,0,1,1055.7263093999936,1,3.0,2.2625710999709554,True,1,16,A,2023-09-13_10h41.26.185,exp3,2022.2.2,
,,,,,,,,,,,,,,,,,,,,,,,0,1158,Valid,noise,0,2,1059.2304591999855,1,3.0,2.446402199973818,True,1,16,A,2023-09-13_10h41.26.185,exp3,2022.2.2,
,,,,,,,,,,,,,,,,,,,,,,,0,-2274,Valid,signal,0,2,1062.462565599999,0,3.0,2.47883079998428,True,1,16,A,2023-09-13_10h41.26.185,exp3,2022.2.2,
,,,,,,,,,,,,,,,,,,,,,,,0,1716,Invalid,signal,0,1,1065.918278499972,1,3.0,2.4624880000483245,True,1,16,A,2023-09-13_10h41.26.185,exp3,2022.2.2,
,,,,,,,,,,,,,,,,,,,,,,,0,1158,Valid,noise,0,1,1069.7265253000078,0,3.0,2.529620499990415,True,1,16,A,2023-09-13_10h41.26.185,exp3,2022.2.2,
,,,,,,,,,,,,,,,,,,,,,,,0,-557,Valid,signal,0,2,1075.3267471999861,0,3.0,5.030338999989908,True,2,16,A,2023-09-13_10h41.26.185,exp3,2022.2.2,
,,,,,,,,,,,,,,,,,,,,,,,0,-2274,Invalid,signal,0,2,1079.0221399999573,0,3.0,2.196076499996707,True,1,16,A,2023-09-13_10h41.26.185,exp3,2022.2.2,
,,,,,,,,,,,,,,,,,,,,,,,0,557,Invalid,noise,0,2,1082.0783321000054,1,3.0,2.2123423000448383,True,1,16,A,2023-09-13_10h41.26.185,exp3,2022.2.2,
,,,,,,,,,,,,,,,,,,,,,,,0,1158,Valid,noise,0,2,1085.3262967999908,1,3.0,2.245845499972347,True,1,16,A,2023-09-13_10h41.26.185,exp3,2022.2.2,
,,,,,,,,,,,,,,,,,,,,,,,0,557,Valid,signal,0,2,1088.5096998999943,0,3.0,2.12914809997892,True,1,16,A,2023-09-13_10h41.26.185,exp3,2022.2.2,
,,,,,,,,,,,,,,,,,,,,,,,0,-2274,Invalid,noise,0,2,1091.8068415999878,1,3.0,2.31293790001655,True,1,16,A,2023-09-13_10h41.26.185,exp3,2022.2.2,
,,,,,,,,,,,,,,,,,,,,,,,0,-2274,Valid,signal,0,2,1095.1659322999767,0,3.0,2.5628768000169657,True,1,16,A,2023-09-13_10h41.26.185,exp3,2022.2.2,
,,,,,,,,,,,,,,,,,,,,,,,0,557,Valid,signal,0,2,1098.7182054999867,0,3.0,2.5963440000195988,True,1,16,A,2023-09-13_10h41.26.185,exp3,2022.2.2,
,,,,,,,,,,,,,,,,,,,,,,,0,1158,Valid,signal,0,2,1102.3014767999994,0,3.0,2.363161199958995,True,1,16,A,2023-09-13_10h41.26.185,exp3,2022.2.2,
,,,,,,,,,,,,,,,,,,,,,,,0,2274,Valid,noise,0,2,1105.6774242999963,1,3.0,2.3288113999878988,True,1,16,A,2023-09-13_10h41.26.185,exp3,2022.2.2,
,,,,,,,,,,,,,,,,,,,,,,,0,-1716,Valid,noise,0,2,1108.9742340999655,1,3.0,2.4131601999979466,True,1,16,A,2023-09-13_10h41.26.185,exp3,2022.2.2,
,,,,,,,,,,,,,,,,,,,,,,,0,1716,Valid,noise,0,2,1112.3986826000037,1,3.0,2.5459996000281535,True,1,16,A,2023-09-13_10h41.26.185,exp3,2022.2.2,
,,,,,,,,,,,,,,,,,,,,,,,0,1158,Invalid,noise,0,2,1115.9348257000092,1,3.0,2.26235929998802,True,1,16,A,2023-09-13_10h41.26.185,exp3,2022.2.2,
,,,,,,,,,,,,,,,,,,,,,,,0,1158,Valid,noise,0,2,1119.1504808999598,1,3.0,2.2293449999997392,True,1,16,A,2023-09-13_10h41.26.185,exp3,2022.2.2,
,,,,,,,,,,,,,,,,,,,,,,,0,-1158,Valid,signal,0,2,1122.4460900999838,0,3.0,2.2295569999841973,True,1,16,A,2023-09-13_10h41.26.185,exp3,2022.2.2,
,,,,,,,,,,,,,,,,,,,,,,,0,-1716,Valid,noise,0,2,1125.6628636000096,1,3.0,2.229476800013799,True,1,16,A,2023-09-13_10h41.26.185,exp3,2022.2.2,
,,,,,,,,,,,,,,,,,,,,,,,0,-1158,Valid,signal,0,2,1128.8775283999857,0,3.0,2.1453238999820314,True,1,16,A,2023-09-13_10h41.26.185,exp3,2022.2.2,
,,,,,,,,,,,,,,,,,,,,,,,0,-1716,Valid,signal,0,2,1131.8216797999921,0,3.0,2.113025500031654,True,1,16,A,2023-09-13_10h41.26.185,exp3,2022.2.2,
,,,,,,,,,,,,,,,,,,,,,,,0,2274,Valid,signal,0,2,1135.3417240999988,0,3.0,2.362608800001908,True,1,16,A,2023-09-13_10h41.26.185,exp3,2022.2.2,
,,,,,,,,,,,,,,,,,,,,,,,0,557,Valid,noise,0,2,1138.5108058999758,1,3.0,2.1624975000158884,True,1,16,A,2023-09-13_10h41.26.185,exp3,2022.2.2,
,,,,,,,,,,,,,,,,,,,,,,,0,-557,Valid,noise,0,2,1141.6134346000035,1,3.0,2.24582339997869,True,1,16,A,2023-09-13_10h41.26.185,exp3,2022.2.2,
,,,,,,,,,,,,,,,,,,,,,,,0,1158,Invalid,noise,0,2,1144.8942223999766,1,3.0,2.2969366000033915,True,1,16,A,2023-09-13_10h41.26.185,exp3,2022.2.2,
,,,,,,,,,,,,,,,,,,,,,,,0,-1716,Valid,noise,0,2,1148.270683699986,1,3.0,2.261937899980694,True,1,16,A,2023-09-13_10h41.26.185,exp3,2022.2.2,
,,,,,,,,,,,,,,,,,,,,,,,0,557,Invalid,signal,0,2,1151.4546999000013,0,3.0,2.146351900009904,True,1,16,A,2023-09-13_10h41.26.185,exp3,2022.2.2,
,,,,,,,,,,,,,,,,,,,,,,,0,2274,Valid,noise,0,2,1154.3508134000003,1,3.0,2.0119945000042208,True,1,16,A,2023-09-13_10h41.26.185,exp3,2022.2.2,
,,,,,,,,,,,,,,,,,,,,,,,0,-1716,Valid,signal,0,1,1157.838857099996,1,3.0,2.429706399969291,True,1,16,A,2023-09-13_10h41.26.185,exp3,2022.2.2,
,,,,,,,,,,,,,,,,,,,,,,,0,-557,Valid,noise,0,2,1161.1180241999682,1,3.0,2.195817400002852,True,1,16,A,2023-09-13_10h41.26.185,exp3,2022.2.2,
,,,,,,,,,,,,,,,,,,,,,,,0,-2274,Valid,noise,0,2,1164.366779599979,1,3.0,2.2790239000460133,True,1,16,A,2023-09-13_10h41.26.185,exp3,2022.2.2,
,,,,,,,,,,,,,,,,,,,,,,,0,2274,Invalid,signal,0,2,1167.6782564999885,0,3.0,2.3129050999996252,True,1,16,A,2023-09-13_10h41.26.185,exp3,2022.2.2,
,,,,,,,,,,,,,,,,,,,,,,,0,-557,Valid,signal,0,2,1170.830811199965,0,3.0,2.0957998000085354,True,1,16,A,2023-09-13_10h41.26.185,exp3,2022.2.2,
,,,,,,,,,,,,,,,,,,,,,,,0,1158,Valid,noise,0,2,1174.1903329999768,1,3.0,2.496239800006151,True,1,16,A,2023-09-13_10h41.26.185,exp3,2022.2.2,
,,,,,,,,,,,,,,,,,,,,,,,0,1158,Valid,signal,0,1,1177.518498999998,1,3.0,2.2788479999871925,True,1,16,A,2023-09-13_10h41.26.185,exp3,2022.2.2,
,,,,,,,,,,,,,,,,,,,,,,,0,-557,Valid,noise,0,2,1180.669984999986,1,3.0,1.9794970999937505,True,1,16,A,2023-09-13_10h41.26.185,exp3,2022.2.2,
,,,,,,,,,,,,,,,,,,,,,,,0,2274,Valid,signal,0,2,1184.4300373999868,0,3.0,2.9132193999830633,True,1,16,A,2023-09-13_10h41.26.185,exp3,2022.2.2,
,,,,,,,,,,,,,,,,,,,,,,,0,557,Invalid,signal,0,1,1187.9027859999915,1,3.0,2.795758799999021,True,1,16,A,2023-09-13_10h41.26.185,exp3,2022.2.2,
,,,,,,,,,,,,,,,,,,,,,,,0,-1716,Valid,noise,0,2,1191.5976221999736,1,3.0,2.2466871000360698,True,1,16,A,2023-09-13_10h41.26.185,exp3,2022.2.2,
,,,,,,,,,,,,,,,,,,,,,,,0,557,Valid,signal,0,2,1194.6539772999822,0,3.0,1.9785697999759577,True,1,16,A,2023-09-13_10h41.26.185,exp3,2022.2.2,
,,,,,,,,,,,,,,,,,,,,,,,0,2274,Valid,signal,0,2,1197.7425248000072,0,3.0,2.229473899991717,True,1,16,A,2023-09-13_10h41.26.185,exp3,2022.2.2,
,,,,,,,,,,,,,,,,,,,,,,,0,-2274,Valid,signal,0,2,1201.4537712999736,0,3.0,2.829740099958144,True,1,16,A,2023-09-13_10h41.26.185,exp3,2022.2.2,
,,,,,,,,,,,,,,,,,,,,,,,0,-1158,Valid,signal,0,1,1204.9260083999834,1,3.0,2.395641600014642,True,1,16,A,2023-09-13_10h41.26.185,exp3,2022.2.2,
,,,,,,,,,,,,,,,,,,,,,,,0,557,Valid,signal,0,2,1208.1748124999576,0,3.0,2.246052500035148,True,1,16,A,2023-09-13_10h41.26.185,exp3,2022.2.2,
,,,,,,,,,,,,,,,,,,,,,,,0,1716,Valid,noise,0,2,1211.5823738999898,1,3.0,2.2131777000031434,True,1,16,A,2023-09-13_10h41.26.185,exp3,2022.2.2,
,,,,,,,,,,,,,,,,,,,,,,,0,1158,Valid,noise,0,2,1214.6857249999885,1,3.0,2.195183100004215,True,1,16,A,2023-09-13_10h41.26.185,exp3,2022.2.2,
,,,,,,,,,,,,,,,,,,,,,,,0,-557,Valid,signal,0,2,1217.8223477999563,0,3.0,2.179414000012912,True,1,16,A,2023-09-13_10h41.26.185,exp3,2022.2.2,
,,,,,,,,,,,,,,,,,,,,,,,0,-2274,Valid,signal,0,2,1221.1505749999778,0,3.0,2.2465603000018746,True,1,16,A,2023-09-13_10h41.26.185,exp3,2022.2.2,
,,,,,,,,,,,,,,,,,,,,,,,0,1716,Valid,noise,0,2,1224.3020330999861,1,3.0,2.14537579996977,True,1,16,A,2023-09-13_10h41.26.185,exp3,2022.2.2,
,,,,,,,,,,,,,,,,,,,,,,,0,1716,Valid,noise,0,2,1227.3906040999573,1,3.0,2.1794579999987036,True,1,16,A,2023-09-13_10h41.26.185,exp3,2022.2.2,
,,,,,,,,,,,,,,,,,,,,,,,0,-2274,Valid,noise,0,2,1230.7508227999788,1,3.0,2.312554799951613,True,1,16,A,2023-09-13_10h41.26.185,exp3,2022.2.2,
,,,,,,,,,,,,,,,,,,,,,,,0,-1158,Valid,signal,0,1,1234.1747419000021,1,3.0,2.3968507000245154,True,1,16,A,2023-09-13_10h41.26.185,exp3,2022.2.2,
,,,,,,,,,,,,,,,,,,,,,,,0,-2274,Valid,noise,0,2,1237.6462873999844,1,3.0,2.5620118999504484,True,1,16,A,2023-09-13_10h41.26.185,exp3,2022.2.2,
,,,,,,,,,,,,,,,,,,,,,,,0,-557,Invalid,noise,0,2,1240.9098105999874,1,3.0,2.1463976000086404,True,1,16,A,2023-09-13_10h41.26.185,exp3,2022.2.2,
,,,,,,,,,,,,,,,,,,,,,,,0,557,Valid,signal,0,2,1244.078450299974,0,3.0,2.262099899991881,True,1,16,A,2023-09-13_10h41.26.185,exp3,2022.2.2,
,,,,,,,,,,,,,,,,,,,,,,,0,-1158,Valid,noise,0,2,1247.3905832999735,1,3.0,2.1292309000273235,True,1,16,A,2023-09-13_10h41.26.185,exp3,2022.2.2,
,,,,,,,,,,,,,,,,,,,,,,,0,557,Valid,signal,0,2,1250.5104674999602,0,3.0,2.2632794000091963,True,1,16,A,2023-09-13_10h41.26.185,exp3,2022.2.2,
,,,,,,,,,,,,,,,,,,,,,,,0,-1716,Invalid,signal,0,1,1254.0615583999897,1,3.0,2.495560899958946,True,1,16,A,2023-09-13_10h41.26.185,exp3,2022.2.2,
,,,,,,,,,,,,,,,,,,,,,,,0,-1158,Valid,signal,0,1,1257.5828786999919,1,3.0,2.5461711999960244,True,1,16,A,2023-09-13_10h41.26.185,exp3,2022.2.2,
,,,,,,,,,,,,,,,,,,,,,,,0,-1158,Invalid,noise,0,2,1260.8628219999955,1,3.0,2.195857700018678,True,1,16,A,2023-09-13_10h41.26.185,exp3,2022.2.2,
,,,,,,,,,,,,,,,,,,,,,,,0,1716,Valid,noise,0,1,1264.8308489999617,0,3.0,3.096519000013359,True,1,16,A,2023-09-13_10h41.26.185,exp3,2022.2.2,
,,,,,,,,,,,,,,,,,,,,,,,0,2274,Valid,noise,0,2,1268.4299607999856,1,3.0,2.596653399989009,True,1,16,A,2023-09-13_10h41.26.185,exp3,2022.2.2,
,,,,,,,,,,,,,,,,,,,,,,,0,-1158,Valid,noise,0,2,1271.8382068999927,1,3.0,2.329034299997147,True,1,16,A,2023-09-13_10h41.26.185,exp3,2022.2.2,
,,,,,,,,,,,,,,,,,,,,,,,0,2274,Valid,noise,0,2,1276.3183918999857,1,3.0,3.4631429000291973,True,1,16,A,2023-09-13_10h41.26.185,exp3,2022.2.2,
,,,,,,,,,,,,,,,,,,,,,,,0,1158,Valid,noise,0,2,1279.5654428999987,1,3.0,2.2625025999732316,True,1,16,A,2023-09-13_10h41.26.185,exp3,2022.2.2,
,,,,,,,,,,,,,,,,,,,,,,,0,1158,Valid,signal,0,1,1282.7502317999606,1,3.0,2.14589609997347,True,1,16,A,2023-09-13_10h41.26.185,exp3,2022.2.2,
,,,,,,,,,,,,,,,,,,,,,,,0,-557,Valid,signal,0,2,1285.9505002999795,0,3.0,2.296085999987554,True,1,16,A,2023-09-13_10h41.26.185,exp3,2022.2.2,
,,,,,,,,,,,,,,,,,,,,,,,0,-2274,Valid,signal,0,2,1289.4066039999598,0,3.0,2.3461157000274397,True,1,16,A,2023-09-13_10h41.26.185,exp3,2022.2.2,
,,,,,,,,,,,,,,,,,,,,,,,0,-1716,Valid,signal,0,1,1292.7016623999807,1,3.0,2.246145399985835,True,1,16,A,2023-09-13_10h41.26.185,exp3,2022.2.2,
,,,,,,,,,,,,,,,,,,,,,,,0,1158,Invalid,signal,0,1,1295.8548551999847,1,3.0,2.129300000029616,True,1,16,A,2023-09-13_10h41.26.185,exp3,2022.2.2,
,,,,,,,,,,,,,,,,,,,,,,,0,-557,Invalid,signal,0,2,1298.9738347000093,0,3.0,2.213030999992043,True,1,16,A,2023-09-13_10h41.26.185,exp3,2022.2.2,
,,,,,,,,,,,,,,,,,,,,,,,0,-1716,Valid,signal,0,1,1302.2700894000009,1,3.0,2.262202400015667,True,1,16,A,2023-09-13_10h41.26.185,exp3,2022.2.2,
,,,,,,,,,,,,,,,,,,,,,,,0,-1158,Valid,noise,0,2,1305.646343600005,1,3.0,2.2796866000280716,True,1,16,A,2023-09-13_10h41.26.185,exp3,2022.2.2,
,,,,,,,,,,,,,,,,,,,,,,,0,1716,Valid,noise,0,1,1308.9576678999583,0,3.0,2.3619606000138447,True,1,16,A,2023-09-13_10h41.26.185,exp3,2022.2.2,
,,,,,,,,,,,,,,,,,,,,,,,0,-1716,Valid,signal,0,1,1312.2388659999706,1,3.0,2.2966083999490365,True,1,16,A,2023-09-13_10h41.26.185,exp3,2022.2.2,
,,,,,,,,,,,,,,,,,,,,,,,0,-557,Valid,noise,0,2,1315.3903226999682,1,3.0,2.1290446000057273,True,1,16,A,2023-09-13_10h41.26.185,exp3,2022.2.2,
,,,,,,,,,,,,,,,,,,,,,,,0,-557,Valid,signal,0,2,1318.525567499979,0,3.0,2.162655199994333,True,1,16,A,2023-09-13_10h41.26.185,exp3,2022.2.2,
,,,,,,,,,,,,,,,,,,,,,,,0,-1158,Valid,signal,0,1,1321.758508400002,1,3.0,2.196621100010816,True,1,16,A,2023-09-13_10h41.26.185,exp3,2022.2.2,
,,,,,,,,,,,,,,,,,,,,,,,0,1716,Valid,signal,0,1,1324.9582092000055,1,3.0,2.1784095000475645,True,1,16,A,2023-09-13_10h41.26.185,exp3,2022.2.2,
,,,,,,,,,,,,,,,,,,,,,,,0,557,Valid,noise,0,2,1328.046452999988,1,3.0,2.0291528000379913,True,1,16,A,2023-09-13_10h41.26.185,exp3,2022.2.2,
,,,,,,,,,,,,,,,,,,,,,,,0,2274,Valid,noise,0,2,1331.3426920999773,1,3.0,2.346245800028555,True,1,16,A,2023-09-13_10h41.26.185,exp3,2022.2.2,
,,,,,,,,,,,,,,,,,,,,,,,0,-557,Valid,noise,0,2,1334.4614652000018,1,3.0,2.212271599972155,True,1,16,A,2023-09-13_10h41.26.185,exp3,2022.2.2,
,,,,,,,,,,,,,,,,,,,,,,,0,557,Valid,noise,0,2,1337.6627616999904,1,3.0,1.9960603999788873,True,1,16,A,2023-09-13_10h41.26.185,exp3,2022.2.2,
,,,,,,,,,,,,,,,,,,,,,,,0,1158,Valid,signal,0,1,1340.7654814000125,1,3.0,2.362825000018347,True,1,16,A,2023-09-13_10h41.26.185,exp3,2022.2.2,
,,,,,,,,,,,,,,,,,,,,,,,0,-2274,Valid,signal,0,2,1344.1416713999934,0,3.0,2.1964746000012383,True,1,16,A,2023-09-13_10h41.26.185,exp3,2022.2.2,
,,,,,,,,,,,,,,,,,,,,,,,0,-1716,Valid,noise,0,2,1347.3100049999775,1,3.0,2.1621181000373326,True,1,16,A,2023-09-13_10h41.26.185,exp3,2022.2.2,
,,,,,,,,,,,,,,,,,,,,,,,0,-1716,Invalid,noise,0,2,1350.4941244999645,1,3.0,2.162851499975659,True,1,16,A,2023-09-13_10h41.26.185,exp3,2022.2.2,
,,,,,,,,,,,,,,,,,,,,,,,0,557,Valid,noise,0,2,1353.4378074000124,1,3.0,2.01187819999177,True,1,16,A,2023-09-13_10h41.26.185,exp3,2022.2.2,
,,,,,,,,,,,,,,,,,,,,,,,0,-557,Valid,signal,0,2,1358.1741616000072,0,3.0,3.7133765999460593,True,2,16,A,2023-09-13_10h41.26.185,exp3,2022.2.2,
,,,,,,,,,,,,,,,,,,,,,,,0,-2274,Valid,noise,0,2,1361.326211699983,1,3.0,2.36301089997869,True,1,16,A,2023-09-13_10h41.26.185,exp3,2022.2.2,
,,,,,,,,,,,,,,,,,,,,,,,0,-1158,Invalid,noise,0,2,1364.6380514999619,1,3.0,2.0790338000515476,True,1,16,A,2023-09-13_10h41.26.185,exp3,2022.2.2,
,,,,,,,,,,,,,,,,,,,,,,,0,-2274,Valid,noise,0,2,1367.7741267000092,1,3.0,2.0626456000027247,True,1,16,A,2023-09-13_10h41.26.185,exp3,2022.2.2,
,,,,,,,,,,,,,,,,,,,,,,,0,-2274,Valid,signal,0,2,1371.389656699961,0,3.0,2.745972000004258,True,1,16,A,2023-09-13_10h41.26.185,exp3,2022.2.2,
,,,,,,,,,,,,,,,,,,,,,,,0,-2274,Valid,noise,0,2,1374.861608200008,1,3.0,2.3957451000460424,True,1,16,A,2023-09-13_10h41.26.185,exp3,2022.2.2,
,,,,,,,,,,,,,,,,,,,,,,,0,-1158,Valid,noise,0,2,1377.933947899961,1,3.0,2.012658200052101,True,1,16,A,2023-09-13_10h41.26.185,exp3,2022.2.2,
,,,,,,,,,,,,,,,,,,,,,,,0,-557,Valid,noise,0,2,1381.0068846999784,1,3.0,2.29587430000538,True,1,16,A,2023-09-13_10h41.26.185,exp3,2022.2.2,
,,,,,,,,,,,,,,,,,,,,,,,0,-1716,Valid,signal,0,1,1384.3975154999644,1,3.0,2.2289343000156805,True,1,16,A,2023-09-13_10h41.26.185,exp3,2022.2.2,
,,,,,,,,,,,,,,,,,,,,,,,0,2274,Valid,noise,0,2,1387.7741661999607,1,3.0,2.4299492000136524,True,1,16,A,2023-09-13_10h41.26.185,exp3,2022.2.2,
,,,,,,,,,,,,,,,,,,,,,,,0,2274,Valid,noise,0,2,1391.006168299995,1,3.0,2.178997299983166,True,1,16,A,2023-09-13_10h41.26.185,exp3,2022.2.2,
,,,,,,,,,,,,,,,,,,,,,,,0,-1158,Invalid,signal,0,1,1394.1742762000067,1,3.0,2.162368700024672,True,1,16,A,2023-09-13_10h41.26.185,exp3,2022.2.2,
,,,,,,,,,,,,,,,,,,,,,,,0,1716,Invalid,signal,0,1,1399.4863906999817,1,3.0,4.41382600000361,True,2,16,A,2023-09-13_10h41.26.185,exp3,2022.2.2,
,,,,,,,,,,,,,,,,,,,,,,,0,557,Valid,noise,0,2,1402.6867089999723,1,3.0,2.012287200021092,True,1,16,A,2023-09-13_10h41.26.185,exp3,2022.2.2,
,,,,,,,,,,,,,,,,,,,,,,,0,2274,Invalid,signal,0,2,1405.9028421000112,0,3.0,2.212614100018982,True,1,16,A,2023-09-13_10h41.26.185,exp3,2022.2.2,
,,,,,,,,,,,,,,,,,,,,,,,0,1716,Valid,signal,0,2,1409.0707481999998,0,1.0,4.146282999950927,True,1,16,A,2023-09-13_10h41.26.185,exp3,2022.2.2,
,,,,,,,,,,,,,,,,,,,,,,,0,-1716,Invalid,noise,0,2,1414.350712799991,1,3.0,2.3131871999939904,True,1,16,A,2023-09-13_10h41.26.185,exp3,2022.2.2,
,,,,,,,,,,,,,,,,,,,,,,,0,-1716,Valid,noise,0,2,1417.6623742000083,1,3.0,2.246006599976681,True,1,16,A,2023-09-13_10h41.26.185,exp3,2022.2.2,
,,,,,,,,,,,,,,,,,,,,,,,0,-557,Invalid,noise,0,2,1420.7188151999726,1,3.0,2.195963100006338,True,1,16,A,2023-09-13_10h41.26.185,exp3,2022.2.2,
,,,,,,,,,,,,,,,,,,,,,,,0,1158,Valid,signal,0,1,1424.0140191999963,1,3.0,2.312519200029783,True,1,16,A,2023-09-13_10h41.26.185,exp3,2022.2.2,
,,,,,,,,,,,,,,,,,,,,,,,0,1716,Valid,signal,0,1,1427.2456094999798,1,3.0,2.1962847000104375,True,1,16,A,2023-09-13_10h41.26.185,exp3,2022.2.2,
,,,,,,,,,,,,,,,,,,,,,,,0,1716,Valid,noise,0,2,1430.6374850000138,1,3.0,2.4127443000325,True,1,16,A,2023-09-13_10h41.26.185,exp3,2022.2.2,
,,,,,,,,,,,,,,,,,,,,,,,0,557,Valid,noise,0,2,1433.9182107999804,1,3.0,2.3123925999971107,True,1,16,A,2023-09-13_10h41.26.185,exp3,2022.2.2,
,,,,,,,,,,,,,,,,,,,,,,,0,-1716,Valid,signal,0,1,1437.405983500008,1,3.0,2.3297451000544243,True,1,16,A,2023-09-13_10h41.26.185,exp3,2022.2.2,
,,,,,,,,,,,,,,,,,,,,,,,0,-557,Valid,noise,0,2,1440.4303363999934,1,3.0,1.9620456999982707,True,1,16,A,2023-09-13_10h41.26.185,exp3,2022.2.2,
,,,,,,,,,,,,,,,,,,,,,,,0,1716,Valid,signal,0,1,1443.5017623999738,1,3.0,2.163190699997358,True,1,16,A,2023-09-13_10h41.26.185,exp3,2022.2.2,
,,,,,,,,,,,,,,,,,,,,,,,0,1158,Valid,signal,0,1,1446.5738339999807,1,3.0,2.262724199972581,True,1,16,A,2023-09-13_10h41.26.185,exp3,2022.2.2,
,,,,,,,,,,,,,,,,,,,,,,,0,557,Invalid,noise,0,2,1449.9984148999793,1,3.0,2.1955888000084087,True,1,16,A,2023-09-13_10h41.26.185,exp3,2022.2.2,
,,,,,,,,,,,,,,,,,,,,,,,0,1716,Valid,signal,0,1,1453.1829337999807,1,3.0,2.245883200026583,True,1,16,A,2023-09-13_10h41.26.185,exp3,2022.2.2,
,,,,,,,,,,,,,,,,,,,,,,,0,1158,Valid,noise,0,2,1456.4627831999678,1,3.0,2.2459508000174537,True,1,16,A,2023-09-13_10h41.26.185,exp3,2022.2.2,
,,,,,,,,,,,,,,,,,,,,,,,0,-2274,Invalid,noise,0,2,1459.998762800009,1,3.0,2.7297739000059664,True,1,16,A,2023-09-13_10h41.26.185,exp3,2022.2.2,
,,,,,,,,,,,,,,,,,,,,,,,0,2274,Valid,noise,0,2,1464.8619170999737,1,3.0,3.7803208000259474,True,1,16,A,2023-09-13_10h41.26.185,exp3,2022.2.2,
,,,,,,,,,,,,,,,,,,,,,,,0,-557,Valid,noise,0,2,1468.2055911999778,1,3.0,2.3623069999739528,True,1,16,A,2023-09-13_10h41.26.185,exp3,2022.2.2,
,,,,,,,,,,,,,,,,,,,,,,,0,-557,Invalid,signal,0,2,1471.53423260001,0,3.0,2.2792437000316568,True,1,16,A,2023-09-13_10h41.26.185,exp3,2022.2.2,
,,,,,,,,,,,,,,,,,,,,,,,0,-2274,Invalid,signal,0,2,1474.9900853,0,3.0,2.5291240000515245,True,1,16,A,2023-09-13_10h41.26.185,exp3,2022.2.2,
,,,,,,,,,,,,,,,,,,,,,,,1,557,Invalid,signal,0,2,1686.7496519999695,0,3.0,10.58111359999748,True,3,16,A,2023-09-13_10h41.26.185,exp3,2022.2.2,
,,,,,,,,,,,,,,,,,,,,,,,2,-557,Valid,signal,0,2,1691.342454299971,0,3.0,2.779880399990361,True,1,16,A,2023-09-13_10h41.26.185,exp3,2022.2.2,
,,,,,,,,,,,,,,,,,,,,,,,3,1158,Valid,signal,0,2,1695.2625107999775,0,3.0,2.4965273000416346,True,1,16,A,2023-09-13_10h41.26.185,exp3,2022.2.2,
,,,,,,,,,,,,,,,,,,,,,,,4,-2274,Valid,signal,0,2,1698.7499050999759,0,3.0,2.4628384999814443,True,1,16,A,2023-09-13_10h41.26.185,exp3,2022.2.2,
,,,,,,,,,,,,,,,,,,,,,,,5,-557,Invalid,signal,0,2,1702.1106062000035,0,3.0,2.2963639000081457,True,1,16,A,2023-09-13_10h41.26.185,exp3,2022.2.2,
,,,,,,,,,,,,,,,,,,,,,,,6,-1716,Valid,noise,0,2,1705.4227655999712,1,3.0,2.162371200043708,True,1,16,A,2023-09-13_10h41.26.185,exp3,2022.2.2,
,,,,,,,,,,,,,,,,,,,,,,,7,-2274,Valid,noise,0,2,1708.5257548000081,1,3.0,2.229175199987367,True,1,16,A,2023-09-13_10h41.26.185,exp3,2022.2.2,
,,,,,,,,,,,,,,,,,,,,,,,8,-1158,Valid,noise,0,2,1711.9669912999962,1,3.0,2.345705999992788,True,1,16,A,2023-09-13_10h41.26.185,exp3,2022.2.2,
,,,,,,,,,,,,,,,,,,,,,,,9,557,Valid,noise,0,2,1715.0860889999894,1,3.0,2.129486999998335,True,1,16,A,2023-09-13_10h41.26.185,exp3,2022.2.2,
,,,,,,,,,,,,,,,,,,,,,,,10,-1158,Valid,noise,0,2,1718.1744498999906,1,3.0,2.0795737000298686,True,1,16,A,2023-09-13_10h41.26.185,exp3,2022.2.2,
,,,,,,,,,,,,,,,,,,,,,,,11,-2274,Invalid,signal,0,2,1721.422460199974,0,3.0,2.3133503000135534,True,1,16,A,2023-09-13_10h41.26.185,exp3,2022.2.2,
,,,,,,,,,,,,,,,,,,,,,,,12,557,Valid,signal,0,2,1724.574312599958,0,3.0,2.312131999991834,True,1,16,A,2023-09-13_10h41.26.185,exp3,2022.2.2,
,,,,,,,,,,,,,,,,,,,,,,,13,1716,Valid,signal,0,1,1728.0460045000073,1,3.0,2.2460327000007965,True,1,16,A,2023-09-13_10h41.26.185,exp3,2022.2.2,
,,,,,,,,,,,,,,,,,,,,,,,14,-2274,Valid,noise,0,2,1731.2147119999863,1,3.0,2.512535999994725,True,1,16,A,2023-09-13_10h41.26.185,exp3,2022.2.2,
,,,,,,,,,,,,,,,,,,,,,,,15,1716,Invalid,signal,0,1,1734.7183229000075,1,3.0,2.3127058999962173,True,1,16,A,2023-09-13_10h41.26.185,exp3,2022.2.2,
,,,,,,,,,,,,,,,,,,,,,,,16,-557,Valid,signal,0,1,1743.9335943000042,1,3.0,8.932115799980238,True,4,16,A,2023-09-13_10h41.26.185,exp3,2022.2.2,
,,,,,,,,,,,,,,,,,,,,,,,17,-557,Valid,signal,0,1,1748.1098673999659,1,3.0,2.595762000011746,True,1,16,A,2023-09-13_10h41.26.185,exp3,2022.2.2,
,,,,,,,,,,,,,,,,,,,,,,,18,2274,Valid,noise,0,2,1755.4225602999795,1,3.0,6.530349700013176,True,2,16,A,2023-09-13_10h41.26.185,exp3,2022.2.2,
,,,,,,,,,,,,,,,,,,,,,,,19,-2274,Valid,noise,0,2,1759.3899155000108,1,3.0,2.546524600009434,True,1,16,A,2023-09-13_10h41.26.185,exp3,2022.2.2,
,,,,,,,,,,,,,,,,,,,,,,,20,-1716,Invalid,signal,0,1,1764.8616178999655,1,3.0,4.480411100026686,True,2,16,A,2023-09-13_10h41.26.185,exp3,2022.2.2,
,,,,,,,,,,,,,,,,,,,,,,,21,557,Invalid,noise,0,2,1768.2060593999922,1,3.0,2.5788848999654874,True,1,16,A,2023-09-13_10h41.26.185,exp3,2022.2.2,
,,,,,,,,,,,,,,,,,,,,,,,22,1716,Valid,signal,0,1,1771.7588133999961,1,3.0,2.213196699973196,True,1,16,A,2023-09-13_10h41.26.185,exp3,2022.2.2,
,,,,,,,,,,,,,,,,,,,,,,,23,557,Valid,signal,0,2,1776.9421262000105,0,3.0,4.64641779998783,True,2,16,A,2023-09-13_10h41.26.185,exp3,2022.2.2,
,,,,,,,,,,,,,,,,,,,,,,,24,-557,Valid,noise,0,2,1781.166665399971,1,3.0,3.162834699964151,True,1,16,A,2023-09-13_10h41.26.185,exp3,2022.2.2,
,,,,,,,,,,,,,,,,,,,,,,,25,-1716,Valid,signal,0,1,1784.7981305999565,1,3.0,2.246166799974162,True,1,16,A,2023-09-13_10h41.26.185,exp3,2022.2.2,
,,,,,,,,,,,,,,,,,,,,,,,26,-557,Valid,noise,0,2,1788.6382593999733,1,3.0,3.2634757000487298,True,1,16,A,2023-09-13_10h41.26.185,exp3,2022.2.2,
,,,,,,,,,,,,,,,,,,,,,,,27,-1716,Valid,signal,0,1,1792.4947810999583,1,3.0,2.462463000032585,True,1,16,A,2023-09-13_10h41.26.185,exp3,2022.2.2,
,,,,,,,,,,,,,,,,,,,,,,,28,-1158,Valid,noise,0,2,1795.8069563999888,1,3.0,2.595903499983251,True,1,16,A,2023-09-13_10h41.26.185,exp3,2022.2.2,
,,,,,,,,,,,,,,,,,,,,,,,29,-557,Valid,signal,0,2,1799.4702252999996,0,3.0,2.3963699000305496,True,1,16,A,2023-09-13_10h41.26.185,exp3,2022.2.2,
,,,,,,,,,,,,,,,,,,,,,,,30,-2274,Valid,signal,0,2,1805.0056133999606,0,3.0,4.496577300014906,True,2,16,A,2023-09-13_10h41.26.185,exp3,2022.2.2,
,,,,,,,,,,,,,,,,,,,,,,,31,1158,Valid,signal,0,1,1809.9988941999618,1,3.0,3.9633336999686435,True,2,16,A,2023-09-13_10h41.26.185,exp3,2022.2.2,
,,,,,,,,,,,,,,,,,,,,,,,32,-557,Valid,noise,0,2,1815.21387159999,1,3.0,4.363576900039334,True,2,16,A,2023-09-13_10h41.26.185,exp3,2022.2.2,
,,,,,,,,,,,,,,,,,,,,,,,33,-557,Valid,noise,0,2,1818.8782038000063,1,3.0,2.812874399998691,True,1,16,A,2023-09-13_10h41.26.185,exp3,2022.2.2,
,,,,,,,,,,,,,,,,,,,,,,,34,1716,Valid,signal,0,1,1822.4947774999891,1,3.0,2.3458517999970354,True,1,16,A,2023-09-13_10h41.26.185,exp3,2022.2.2,
,,,,,,,,,,,,,,,,,,,,,,,35,1716,Valid,signal,0,1,1825.86987699999,1,3.0,2.479141899966635,True,1,16,A,2023-09-13_10h41.26.185,exp3,2022.2.2,
,,,,,,,,,,,,,,,,,,,,,,,36,1158,Valid,noise,0,2,1831.4066825999762,1,3.0,4.4973563000094146,True,2,16,A,2023-09-13_10h41.26.185,exp3,2022.2.2,
,,,,,,,,,,,,,,,,,,,,,,,37,-2274,Valid,noise,0,2,1834.8945316000027,1,3.0,2.412167100002989,True,1,16,A,2023-09-13_10h41.26.185,exp3,2022.2.2,
,,,,,,,,,,,,,,,,,,,,,,,38,-1158,Valid,signal,0,1,1838.2061869999743,1,3.0,2.229012799973134,True,1,16,A,2023-09-13_10h41.26.185,exp3,2022.2.2,
,,,,,,,,,,,,,,,,,,,,,,,39,-557,Valid,signal,0,2,1841.678040699975,0,3.0,2.5136800999753177,True,1,16,A,2023-09-13_10h41.26.185,exp3,2022.2.2,
,,,,,,,,,,,,,,,,,,,,,,,40,-557,Invalid,signal,0,2,1844.94195030001,0,3.0,2.278826499998104,True,1,16,A,2023-09-13_10h41.26.185,exp3,2022.2.2,
,,,,,,,,,,,,,,,,,,,,,,,41,2274,Valid,signal,0,2,1848.4461914999993,0,3.0,2.7123776999651454,True,1,16,A,2023-09-13_10h41.26.185,exp3,2022.2.2,
,,,,,,,,,,,,,,,,,,,,,,,42,-2274,Valid,signal,0,2,1852.0303672999726,0,3.0,2.396198100002948,True,1,16,A,2023-09-13_10h41.26.185,exp3,2022.2.2,
,,,,,,,,,,,,,,,,,,,,,,,43,-2274,Invalid,signal,0,2,1855.3423612999613,0,3.0,2.2628831999609247,True,1,16,A,2023-09-13_10h41.26.185,exp3,2022.2.2,
,,,,,,,,,,,,,,,,,,,,,,,44,-557,Valid,signal,0,2,1858.6066058999859,0,3.0,2.1297629000036977,True,1,16,A,2023-09-13_10h41.26.185,exp3,2022.2.2,
,,,,,,,,,,,,,,,,,,,,,,,45,2274,Valid,noise,0,2,1863.8866656000027,1,3.0,4.396463399985805,True,2,16,A,2023-09-13_10h41.26.185,exp3,2022.2.2,
,,,,,,,,,,,,,,,,,,,,,,,46,1158,Valid,noise,0,2,1870.6061141999671,1,3.0,5.797164399991743,True,3,16,A,2023-09-13_10h41.26.185,exp3,2022.2.2,
,,,,,,,,,,,,,,,,,,,,,,,47,-1716,Valid,noise,0,2,1874.0138447000063,1,3.0,2.296512899978552,True,1,16,A,2023-09-13_10h41.26.185,exp3,2022.2.2,
,,,,,,,,,,,,,,,,,,,,,,,48,2274,Valid,noise,0,2,1877.2137211000081,1,3.0,2.2120263999677263,True,1,16,A,2023-09-13_10h41.26.185,exp3,2022.2.2,
,,,,,,,,,,,,,,,,,,,,,,,49,-1716,Valid,noise,0,2,1880.3985653999844,1,3.0,2.063050299999304,True,1,16,A,2023-09-13_10h41.26.185,exp3,2022.2.2,
,,,,,,,,,,,,,,,,,,,,,,,50,1158,Invalid,signal,0,1,1883.821655399981,1,3.0,2.5122728000278585,True,1,16,A,2023-09-13_10h41.26.185,exp3,2022.2.2,
,,,,,,,,,,,,,,,,,,,,,,,51,2274,Valid,signal,0,2,1890.6702490999596,0,3.0,5.947471100022085,True,3,16,A,2023-09-13_10h41.26.185,exp3,2022.2.2,
,,,,,,,,,,,,,,,,,,,,,,,52,1158,Invalid,noise,0,2,1894.174090799992,1,3.0,2.546094199991785,True,1,16,A,2023-09-13_10h41.26.185,exp3,2022.2.2,
,,,,,,,,,,,,,,,,,,,,,,,53,2274,Valid,signal,0,2,1899.310320199991,0,3.0,4.163536999956705,True,2,16,A,2023-09-13_10h41.26.185,exp3,2022.2.2,
,,,,,,,,,,,,,,,,,,,,,,,54,2274,Valid,noise,0,2,1902.8782234999817,1,3.0,2.4130761000560597,True,1,16,A,2023-09-13_10h41.26.185,exp3,2022.2.2,
,,,,,,,,,,,,,,,,,,,,,,,55,1158,Valid,noise,0,2,1906.2386827999726,1,3.0,2.645581500022672,True,1,16,A,2023-09-13_10h41.26.185,exp3,2022.2.2,
,,,,,,,,,,,,,,,,,,,,,,,56,-1716,Valid,noise,0,2,1909.7420591000118,1,3.0,2.129695899959188,True,1,16,A,2023-09-13_10h41.26.185,exp3,2022.2.2,
,,,,,,,,,,,,,,,,,,,,,,,57,-557,Valid,signal,0,2,1912.958837299957,0,3.0,2.1786456999834627,True,1,16,A,2023-09-13_10h41.26.185,exp3,2022.2.2,
,,,,,,,,,,,,,,,,,,,,,,,58,-1716,Valid,signal,0,1,1916.14298949996,1,3.0,2.1131231000181288,True,1,16,A,2023-09-13_10h41.26.185,exp3,2022.2.2,
,,,,,,,,,,,,,,,,,,,,,,,59,557,Valid,noise,0,2,1921.1188719999627,1,3.0,4.196744100016076,True,2,16,A,2023-09-13_10h41.26.185,exp3,2022.2.2,
,,,,,,,,,,,,,,,,,,,,,,,60,-1158,Valid,signal,0,1,1924.3659107999993,1,3.0,2.0125896999961697,True,1,16,A,2023-09-13_10h41.26.185,exp3,2022.2.2,
,,,,,,,,,,,,,,,,,,,,,,,61,-1158,Valid,noise,0,2,1927.4710314999684,1,3.0,2.1961708999588154,True,1,16,A,2023-09-13_10h41.26.185,exp3,2022.2.2,
,,,,,,,,,,,,,,,,,,,,,,,62,-1158,Valid,noise,0,2,1932.3664735999773,1,3.0,3.929791600035969,True,2,16,A,2023-09-13_10h41.26.185,exp3,2022.2.2,
,,,,,,,,,,,,,,,,,,,,,,,63,-557,Valid,noise,0,2,1935.5348447999568,1,3.0,2.146695999952499,True,1,16,A,2023-09-13_10h41.26.185,exp3,2022.2.2,
,,,,,,,,,,,,,,,,,,,,,,,64,1716,Valid,signal,0,1,1938.7022462000023,1,3.0,2.095474900037516,True,1,16,A,2023-09-13_10h41.26.185,exp3,2022.2.2,
,,,,,,,,,,,,,,,,,,,,,,,65,-2274,Invalid,noise,0,2,1941.950318599993,1,3.0,2.3790133000002243,True,1,16,A,2023-09-13_10h41.26.185,exp3,2022.2.2,
,,,,,,,,,,,,,,,,,,,,,,,66,-557,Invalid,noise,0,2,1945.198937899957,1,3.0,2.2459480999968946,True,1,16,A,2023-09-13_10h41.26.185,exp3,2022.2.2,
,,,,,,,,,,,,,,,,,,,,,,,67,1716,Valid,noise,0,2,1948.494317499979,1,3.0,2.329444900038652,True,1,16,A,2023-09-13_10h41.26.185,exp3,2022.2.2,
,,,,,,,,,,,,,,,,,,,,,,,68,2274,Valid,signal,0,2,1953.6308573000133,0,3.0,4.03067889995873,True,2,16,A,2023-09-13_10h41.26.185,exp3,2022.2.2,
,,,,,,,,,,,,,,,,,,,,,,,69,2274,Invalid,noise,0,2,1956.7338122999645,1,3.0,2.161796599975787,True,1,16,A,2023-09-13_10h41.26.185,exp3,2022.2.2,
,,,,,,,,,,,,,,,,,,,,,,,70,557,Valid,noise,0,2,1959.9344802999985,1,3.0,2.062419800029602,True,1,16,A,2023-09-13_10h41.26.185,exp3,2022.2.2,
,,,,,,,,,,,,,,,,,,,,,,,71,2274,Valid,signal,0,2,1963.1176812999765,0,3.0,2.062893800029997,True,1,16,A,2023-09-13_10h41.26.185,exp3,2022.2.2,
,,,,,,,,,,,,,,,,,,,,,,,72,557,Valid,noise,0,2,1966.014455299999,1,3.0,1.962692999979481,True,1,16,A,2023-09-13_10h41.26.185,exp3,2022.2.2,
,,,,,,,,,,,,,,,,,,,,,,,73,-557,Valid,noise,0,2,1968.9901985999895,1,3.0,1.9123741000075825,True,1,16,A,2023-09-13_10h41.26.185,exp3,2022.2.2,
,,,,,,,,,,,,,,,,,,,,,,,74,-1158,Valid,noise,0,2,1971.8220303999842,1,3.0,1.9125946999993175,True,1,16,A,2023-09-13_10h41.26.185,exp3,2022.2.2,
,,,,,,,,,,,,,,,,,,,,,,,75,-2274,Valid,signal,0,2,1974.862432199996,0,3.0,1.9627563999965787,True,1,16,A,2023-09-13_10h41.26.185,exp3,2022.2.2,
,,,,,,,,,,,,,,,,,,,,,,,76,-557,Valid,signal,0,2,1978.3025514999754,0,3.0,2.4461453999974765,True,1,16,A,2023-09-13_10h41.26.185,exp3,2022.2.2,
,,,,,,,,,,,,,,,,,,,,,,,77,1716,Valid,signal,0,1,1981.3584802999976,1,3.0,2.0959460999583825,True,1,16,A,2023-09-13_10h41.26.185,exp3,2022.2.2,
,,,,,,,,,,,,,,,,,,,,,,,78,1716,Valid,noise,0,2,1984.4137989999726,1,3.0,2.163041300023906,True,1,16,A,2023-09-13_10h41.26.185,exp3,2022.2.2,
,,,,,,,,,,,,,,,,,,,,,,,79,1158,Valid,noise,0,2,1987.6140517999884,1,3.0,2.1296480000019073,True,1,16,A,2023-09-13_10h41.26.185,exp3,2022.2.2,
,,,,,,,,,,,,,,,,,,,,,,,80,557,Valid,signal,0,2,1991.1183512000134,0,3.0,2.445261600019876,True,1,16,A,2023-09-13_10h41.26.185,exp3,2022.2.2,
,,,,,,,,,,,,,,,,,,,,,,,81,-2274,Valid,noise,0,2,1994.3343781000003,1,3.0,2.162632899999153,True,1,16,A,2023-09-13_10h41.26.185,exp3,2022.2.2,
,,,,,,,,,,,,,,,,,,,,,,,82,557,Valid,signal,0,2,1997.3899491999764,0,3.0,2.0297630000277422,True,1,16,A,2023-09-13_10h41.26.185,exp3,2022.2.2,
,,,,,,,,,,,,,,,,,,,,,,,83,-2274,Valid,noise,0,2,2000.9424117999733,1,3.0,2.678916900011245,True,1,16,A,2023-09-13_10h41.26.185,exp3,2022.2.2,
,,,,,,,,,,,,,,,,,,,,,,,84,-1716,Valid,signal,0,1,2004.1583402999677,1,3.0,2.1298286000383087,True,1,16,A,2023-09-13_10h41.26.185,exp3,2022.2.2,
,,,,,,,,,,,,,,,,,,,,,,,85,1158,Valid,signal,0,1,2007.262820700009,1,3.0,2.478970500000287,True,1,16,A,2023-09-13_10h41.26.185,exp3,2022.2.2,
,,,,,,,,,,,,,,,,,,,,,,,86,-1158,Valid,signal,0,1,2010.765834699967,1,3.0,2.1124470999930054,True,1,16,A,2023-09-13_10h41.26.185,exp3,2022.2.2,
,,,,,,,,,,,,,,,,,,,,,,,87,2274,Valid,signal,0,2,2013.9341618999606,0,3.0,2.179458800004795,True,1,16,A,2023-09-13_10h41.26.185,exp3,2022.2.2,
,,,,,,,,,,,,,,,,,,,,,,,88,557,Invalid,signal,0,2,2017.1507512999815,0,3.0,2.1796824999619275,True,1,16,A,2023-09-13_10h41.26.185,exp3,2022.2.2,
,,,,,,,,,,,,,,,,,,,,,,,89,-1158,Invalid,signal,0,1,2020.1903762999573,1,3.0,2.0952404999989085,True,1,16,A,2023-09-13_10h41.26.185,exp3,2022.2.2,
,,,,,,,,,,,,,,,,,,,,,,,90,-1716,Invalid,noise,0,1,2023.582219999982,0,3.0,2.346269499976188,True,1,16,A,2023-09-13_10h41.26.185,exp3,2022.2.2,
,,,,,,,,,,,,,,,,,,,,,,,91,557,Valid,signal,0,1,2026.8463879000046,1,3.0,2.2460438000271097,True,1,16,A,2023-09-13_10h41.26.185,exp3,2022.2.2,
,,,,,,,,,,,,,,,,,,,,,,,92,-1158,Valid,noise,0,2,2030.1106674000039,1,3.0,2.3293511000229046,True,1,16,A,2023-09-13_10h41.26.185,exp3,2022.2.2,
,,,,,,,,,,,,,,,,,,,,,,,93,-2274,Valid,signal,0,2,2033.2783442999935,0,3.0,2.0297358999960124,True,1,16,A,2023-09-13_10h41.26.185,exp3,2022.2.2,
,,,,,,,,,,,,,,,,,,,,,,,94,2274,Valid,signal,0,1,2036.5268675999832,1,3.0,2.3123183000134304,True,1,16,A,2023-09-13_10h41.26.185,exp3,2022.2.2,
,,,,,,,,,,,,,,,,,,,,,,,95,1158,Valid,noise,0,2,2039.7907238999614,1,3.0,2.2633110000169836,True,1,16,A,2023-09-13_10h41.26.185,exp3,2022.2.2,
,,,,,,,,,,,,,,,,,,,,,,,96,2274,Valid,noise,0,2,2042.8787353999796,1,3.0,2.079146199976094,True,1,16,A,2023-09-13_10h41.26.185,exp3,2022.2.2,
,,,,,,,,,,,,,,,,,,,,,,,97,557,Invalid,noise,0,2,2045.8869205999654,1,3.0,2.0620288999634795,True,1,16,A,2023-09-13_10h41.26.185,exp3,2022.2.2,
,,,,,,,,,,,,,,,,,,,,,,,98,1158,Valid,signal,0,1,2048.941847399983,1,3.0,1.929559700016398,True,1,16,A,2023-09-13_10h41.26.185,exp3,2022.2.2,
,,,,,,,,,,,,,,,,,,,,,,,99,1716,Valid,signal,0,1,2051.9345764999744,1,3.0,2.095894700032659,True,1,16,A,2023-09-13_10h41.26.185,exp3,2022.2.2,
,,,,,,,,,,,,,,,,,,,,,,,100,557,Valid,noise,0,2,2054.9907647999935,1,3.0,2.078928700007964,True,1,16,A,2023-09-13_10h41.26.185,exp3,2022.2.2,
,,,,,,,,,,,,,,,,,,,,,,,101,1158,Invalid,noise,0,2,2058.126851000008,1,3.0,2.095787400030531,True,1,16,A,2023-09-13_10h41.26.185,exp3,2022.2.2,
,,,,,,,,,,,,,,,,,,,,,,,102,-1716,Valid,signal,0,1,2061.406144999957,1,3.0,2.229300700011663,True,1,16,A,2023-09-13_10h41.26.185,exp3,2022.2.2,
,,,,,,,,,,,,,,,,,,,,,,,103,1158,Valid,noise,0,2,2064.574553499988,1,3.0,2.179541799996514,True,1,16,A,2023-09-13_10h41.26.185,exp3,2022.2.2,
,,,,,,,,,,,,,,,,,,,,,,,104,557,Valid,noise,0,2,2067.66269019997,1,3.0,2.0625570000265725,True,1,16,A,2023-09-13_10h41.26.185,exp3,2022.2.2,
,,,,,,,,,,,,,,,,,,,,,,,105,-557,Valid,noise,0,2,2070.5746749999817,1,3.0,1.9794457000098191,True,1,16,A,2023-09-13_10h41.26.185,exp3,2022.2.2,
,,,,,,,,,,,,,,,,,,,,,,,106,-1158,Valid,signal,0,1,2073.6621866999776,1,3.0,1.9961994999903254,True,1,16,A,2023-09-13_10h41.26.185,exp3,2022.2.2,
,,,,,,,,,,,,,,,,,,,,,,,107,-1716,Valid,signal,0,2,2076.7659779000096,0,3.0,2.1119715999811888,True,1,16,A,2023-09-13_10h41.26.185,exp3,2022.2.2,
,,,,,,,,,,,,,,,,,,,,,,,108,1716,Valid,noise,0,2,2079.8860347999725,1,3.0,2.1966126000043005,True,1,16,A,2023-09-13_10h41.26.185,exp3,2022.2.2,
,,,,,,,,,,,,,,,,,,,,,,,109,-1158,Invalid,noise,0,2,2083.0548513999674,1,3.0,2.095526200020686,True,1,16,A,2023-09-13_10h41.26.185,exp3,2022.2.2,
,,,,,,,,,,,,,,,,,,,,,,,110,557,Valid,signal,0,2,2086.25503999996,0,3.0,2.1958428000216372,True,1,16,A,2023-09-13_10h41.26.185,exp3,2022.2.2,
,,,,,,,,,,,,,,,,,,,,,,,111,-2274,Valid,signal,0,2,2089.5663568999735,0,3.0,2.3461694000288844,True,1,16,A,2023-09-13_10h41.26.185,exp3,2022.2.2,
,,,,,,,,,,,,,,,,,,,,,,,112,1716,Invalid,noise,0,2,2092.7019384999876,1,3.0,2.0459420999977738,True,1,16,A,2023-09-13_10h41.26.185,exp3,2022.2.2,
,,,,,,,,,,,,,,,,,,,,,,,113,-1158,Invalid,noise,0,2,2095.774111100007,1,3.0,2.16258140001446,True,1,16,A,2023-09-13_10h41.26.185,exp3,2022.2.2,
,,,,,,,,,,,,,,,,,,,,,,,114,1158,Valid,noise,0,2,2098.8459311999613,1,3.0,1.996611499984283,True,1,16,A,2023-09-13_10h41.26.185,exp3,2022.2.2,
,,,,,,,,,,,,,,,,,,,,,,,115,1716,Valid,noise,0,2,2101.694400999986,1,3.0,1.9459269999642856,True,1,16,A,2023-09-13_10h41.26.185,exp3,2022.2.2,
,,,,,,,,,,,,,,,,,,,,,,,116,-557,Valid,noise,0,2,2104.7825015999842,1,3.0,1.978492800029926,True,1,16,A,2023-09-13_10h41.26.185,exp3,2022.2.2,
,,,,,,,,,,,,,,,,,,,,,,,117,1158,Valid,signal,0,1,2107.982775499986,1,3.0,2.279376399994362,True,1,16,A,2023-09-13_10h41.26.185,exp3,2022.2.2,
,,,,,,,,,,,,,,,,,,,,,,,118,1158,Valid,noise,0,2,2111.213838899974,1,3.0,2.2297328999848105,True,1,16,A,2023-09-13_10h41.26.185,exp3,2022.2.2,
,,,,,,,,,,,,,,,,,,,,,,,119,-1158,Valid,signal,0,2,2114.5267849999946,0,3.0,2.328893300029449,True,1,16,A,2023-09-13_10h41.26.185,exp3,2022.2.2,
,,,,,,,,,,,,,,,,,,,,,,,120,1158,Valid,signal,0,1,2117.678701800003,1,3.0,2.0292707000044174,True,1,16,A,2023-09-13_10h41.26.185,exp3,2022.2.2,
,,,,,,,,,,,,,,,,,,,,,,,121,-2274,Valid,signal,0,2,2120.8147535999888,0,3.0,2.1123461999814026,True,1,16,A,2023-09-13_10h41.26.185,exp3,2022.2.2,
,,,,,,,,,,,,,,,,,,,,,,,122,-1716,Valid,signal,0,1,2123.9508596999804,1,3.0,2.179533899994567,True,1,16,A,2023-09-13_10h41.26.185,exp3,2022.2.2,
,,,,,,,,,,,,,,,,,,,,,,,123,557,Valid,noise,0,2,2127.00612049998,1,3.0,2.0294969000387937,True,1,16,A,2023-09-13_10h41.26.185,exp3,2022.2.2,
,,,,,,,,,,,,,,,,,,,,,,,124,-1716,Valid,noise,0,2,2130.2705354999634,1,3.0,2.2460121999611147,True,1,16,A,2023-09-13_10h41.26.185,exp3,2022.2.2,
,,,,,,,,,,,,,,,,,,,,,,,125,2274,Invalid,signal,0,2,2133.5496678999625,0,3.0,2.2623268000315875,True,1,16,A,2023-09-13_10h41.26.185,exp3,2022.2.2,
,,,,,,,,,,,,,,,,,,,,,,,126,-2274,Valid,noise,0,2,2136.686002100003,1,3.0,2.4796822000062093,True,1,16,A,2023-09-13_10h41.26.185,exp3,2022.2.2,
,,,,,,,,,,,,,,,,,,,,,,,127,557,Valid,signal,0,2,2140.2547182000126,0,3.0,2.2627500999951735,True,1,16,A,2023-09-13_10h41.26.185,exp3,2022.2.2,
,,,,,,,,,,,,,,,,,,,,,,,128,1716,Invalid,signal,0,1,2143.390881099971,1,3.0,2.062589500041213,True,1,16,A,2023-09-13_10h41.26.185,exp3,2022.2.2,
,,,,,,,,,,,,,,,,,,,,,,,129,-1158,Valid,signal,0,1,2146.349916999985,1,3.0,2.196090300043579,True,1,16,A,2023-09-13_10h41.26.185,exp3,2022.2.2,
,,,,,,,,,,,,,,,,,,,,,,,130,1158,Valid,signal,0,1,2149.567091499979,1,3.0,2.062454600003548,True,1,16,A,2023-09-13_10h41.26.185,exp3,2022.2.2,
,,,,,,,,,,,,,,,,,,,,,,,131,-557,Valid,signal,0,1,2152.7344676000066,1,3.0,2.1294992999755777,True,1,16,A,2023-09-13_10h41.26.185,exp3,2022.2.2,
,,,,,,,,,,,,,,,,,,,,,,,132,1716,Valid,noise,0,2,2155.870631699974,1,3.0,2.0793139000306837,True,1,16,A,2023-09-13_10h41.26.185,exp3,2022.2.2,
,,,,,,,,,,,,,,,,,,,,,,,133,557,Valid,noise,0,2,2158.8790337999817,1,3.0,2.079356900008861,True,1,16,A,2023-09-13_10h41.26.185,exp3,2022.2.2,
,,,,,,,,,,,,,,,,,,,,,,,134,-1716,Invalid,signal,0,1,2161.9509218999883,1,3.0,2.1127350999740884,True,1,16,A,2023-09-13_10h41.26.185,exp3,2022.2.2,
,,,,,,,,,,,,,,,,,,,,,,,135,2274,Valid,noise,0,2,2167.454969299957,1,3.0,4.813563900010195,True,2,16,A,2023-09-13_10h41.26.185,exp3,2022.2.2,
,,,,,,,,,,,,,,,,,,,,,,,136,1716,Valid,noise,0,2,2170.9256770999637,1,3.0,2.096116900036577,True,1,16,A,2023-09-13_10h41.26.185,exp3,2022.2.2,
,,,,,,,,,,,,,,,,,,,,,,,137,-2274,Valid,noise,0,2,2179.550038299989,1,3.0,7.898644599947147,True,4,16,A,2023-09-13_10h41.26.185,exp3,2022.2.2,
,,,,,,,,,,,,,,,,,,,,,,,138,2274,Valid,noise,0,2,2185.359129699995,1,3.0,4.729922400030773,True,2,16,A,2023-09-13_10h41.26.185,exp3,2022.2.2,
,,,,,,,,,,,,,,,,,,,,,,,139,-557,Invalid,noise,0,2,2188.6382184000104,1,3.0,2.146135499991942,True,1,16,A,2023-09-13_10h41.26.185,exp3,2022.2.2,
,,,,,,,,,,,,,,,,,,,,,,,140,-1158,Valid,signal,0,1,2191.837747099984,1,3.0,2.162112199992407,True,1,16,A,2023-09-13_10h41.26.185,exp3,2022.2.2,
,,,,,,,,,,,,,,,,,,,,,,,141,2274,Valid,noise,0,2,2195.0070025000023,1,3.0,2.212823100038804,True,1,16,A,2023-09-13_10h41.26.185,exp3,2022.2.2,
,,,,,,,,,,,,,,,,,,,,,,,142,-1716,Valid,signal,0,1,2200.0137003000127,1,3.0,4.113410699996166,True,2,16,A,2023-09-13_10h41.26.185,exp3,2022.2.2,
,,,,,,,,,,,,,,,,,,,,,,,143,557,Valid,signal,0,2,2203.295033500006,0,3.0,2.1459201000398025,True,1,16,A,2023-09-13_10h41.26.185,exp3,2022.2.2,
,,,,,,,,,,,,,,,,,,,,,,,144,1158,Valid,signal,0,1,2206.414044699981,1,3.0,2.0621783999959007,True,1,16,A,2023-09-13_10h41.26.185,exp3,2022.2.2,
,,,,,,,,,,,,,,,,,,,,,,,145,2274,Valid,signal,0,2,2209.630849799956,0,3.0,2.2797349999891594,True,1,16,A,2023-09-13_10h41.26.185,exp3,2022.2.2,
,,,,,,,,,,,,,,,,,,,,,,,146,2274,Invalid,signal,0,2,2212.8622096999898,0,3.0,2.112453599984292,True,1,16,A,2023-09-13_10h41.26.185,exp3,2022.2.2,
,,,,,,,,,,,,,,,,,,,,,,,147,2274,Invalid,noise,0,2,2216.01412539999,1,3.0,2.2288876000093296,True,1,16,A,2023-09-13_10h41.26.185,exp3,2022.2.2,
,,,,,,,,,,,,,,,,,,,,,,,148,557,Valid,noise,0,2,2219.1018949999707,1,3.0,2.2298894000123255,True,1,16,A,2023-09-13_10h41.26.185,exp3,2022.2.2,
,,,,,,,,,,,,,,,,,,,,,,,149,-1716,Invalid,noise,0,2,2230.6540573000093,1,3.0,10.632282400038093,True,6,16,A,2023-09-13_10h41.26.185,exp3,2022.2.2,
,,,,,,,,,,,,,,,,,,,,,,,150,1716,Valid,signal,0,1,2235.56670939998,1,3.0,3.8967738000210375,True,2,16,A,2023-09-13_10h41.26.185,exp3,2022.2.2,
,,,,,,,,,,,,,,,,,,,,,,,151,-557,Valid,noise,0,2,2238.9744015999604,1,3.0,2.6789710000157356,True,1,16,A,2023-09-13_10h41.26.185,exp3,2022.2.2,
,,,,,,,,,,,,,,,,,,,,,,,152,-1716,Valid,noise,0,2,2242.845995999989,1,3.0,2.579674199980218,True,1,16,A,2023-09-13_10h41.26.185,exp3,2022.2.2,
,,,,,,,,,,,,,,,,,,,,,,,153,2274,Valid,signal,0,2,2246.286891800002,0,3.0,2.295835500000976,True,1,16,A,2023-09-13_10h41.26.185,exp3,2022.2.2,
,,,,,,,,,,,,,,,,,,,,,,,154,-2274,Valid,noise,0,2,2249.4537684000097,1,3.0,2.11267250002129,True,1,16,A,2023-09-13_10h41.26.185,exp3,2022.2.2,
,,,,,,,,,,,,,,,,,,,,,,,155,-1716,Valid,noise,0,2,2252.4791553000105,1,3.0,1.8959956000326201,True,1,16,A,2023-09-13_10h41.26.185,exp3,2022.2.2,
,,,,,,,,,,,,,,,,,,,,,,,156,-1158,Valid,noise,0,2,2255.3740521,1,3.0,1.895745900052134,True,1,16,A,2023-09-13_10h41.26.185,exp3,2022.2.2,
,,,,,,,,,,,,,,,,,,,,,,,157,-1716,Valid,noise,0,2,2258.190120799991,1,3.0,1.9131268999772146,True,1,16,A,2023-09-13_10h41.26.185,exp3,2022.2.2,
,,,,,,,,,,,,,,,,,,,,,,,158,1158,Valid,noise,0,2,2261.021811899962,1,3.0,1.778334199974779,True,1,16,A,2023-09-13_10h41.26.185,exp3,2022.2.2,
,,,,,,,,,,,,,,,,,,,,,,,159,-1158,Valid,noise,0,2,2264.046018299996,1,3.0,1.9962748999823816,True,1,16,A,2023-09-13_10h41.26.185,exp3,2022.2.2,
,,,,,,,,,,,,,,,,,,,,,,,160,-1716,Valid,signal,0,2,2266.9740889999666,0,3.0,2.1290170999709517,True,1,16,A,2023-09-13_10h41.26.185,exp3,2022.2.2,
,,,,,,,,,,,,,,,,,,,,,,,161,557,Valid,signal,0,2,2270.030241600005,0,3.0,1.8627904999884777,True,1,16,A,2023-09-13_10h41.26.185,exp3,2022.2.2,
,,,,,,,,,,,,,,,,,,,,,,,162,-1158,Invalid,signal,0,1,2273.1350471999613,1,3.0,2.0127383999642916,True,1,16,A,2023-09-13_10h41.26.185,exp3,2022.2.2,
,,,,,,,,,,,,,,,,,,,,,,,163,1158,Invalid,signal,0,1,2276.1909965999657,1,3.0,2.045765799994115,True,1,16,A,2023-09-13_10h41.26.185,exp3,2022.2.2,
,,,,,,,,,,,,,,,,,,,,,,,164,1716,Valid,noise,0,2,2279.1338154000114,1,3.0,1.9462357999873348,True,1,16,A,2023-09-13_10h41.26.185,exp3,2022.2.2,
,,,,,,,,,,,,,,,,,,,,,,,165,-1158,Valid,signal,0,1,2282.366083299974,1,3.0,2.1958513000281528,True,1,16,A,2023-09-13_10h41.26.185,exp3,2022.2.2,
,,,,,,,,,,,,,,,,,,,,,,,166,1716,Valid,noise,0,2,2285.293741900008,1,3.0,1.962705600017216,True,1,16,A,2023-09-13_10h41.26.185,exp3,2022.2.2,
,,,,,,,,,,,,,,,,,,,,,,,167,1158,Valid,signal,0,1,2288.238335800008,1,3.0,1.9289953999686986,True,1,16,A,2023-09-13_10h41.26.185,exp3,2022.2.2,
,,,,,,,,,,,,,,,,,,,,,,,168,1716,Valid,noise,0,2,2291.3430226999917,1,3.0,2.2460923999897204,True,1,16,A,2023-09-13_10h41.26.185,exp3,2022.2.2,
,,,,,,,,,,,,,,,,,,,,,,,169,1716,Invalid,noise,0,2,2294.5907219999935,1,3.0,1.9965963000431657,True,1,16,A,2023-09-13_10h41.26.185,exp3,2022.2.2,
,,,,,,,,,,,,,,,,,,,,,,,170,-2274,Valid,signal,0,2,2297.4708155000117,0,3.0,1.9948450999800116,True,1,16,A,2023-09-13_10h41.26.185,exp3,2022.2.2,
,,,,,,,,,,,,,,,,,,,,,,,171,2274,Valid,noise,0,2,2300.590513299976,1,3.0,2.063002199982293,True,1,16,A,2023-09-13_10h41.26.185,exp3,2022.2.2,
,,,,,,,,,,,,,,,,,,,,,,,172,1716,Valid,signal,0,1,2303.678481799958,1,3.0,2.162506500026211,True,1,16,A,2023-09-13_10h41.26.185,exp3,2022.2.2,
,,,,,,,,,,,,,,,,,,,,,,,173,-2274,Invalid,noise,0,2,2306.718276600004,1,3.0,2.3460835000150837,True,1,16,A,2023-09-13_10h41.26.185,exp3,2022.2.2,
,,,,,,,,,,,,,,,,,,,,,,,174,-1158,Valid,signal,0,1,2310.1578098000027,1,3.0,2.0295010000118054,True,1,16,A,2023-09-13_10h41.26.185,exp3,2022.2.2,
,,,,,,,,,,,,,,,,,,,,,,,175,-2274,Valid,signal,0,2,2313.1664126999676,0,3.0,1.9788953000097536,True,1,16,A,2023-09-13_10h41.26.185,exp3,2022.2.2,
,,,,,,,,,,,,,,,,,,,,,,,176,-1716,Valid,noise,0,1,2316.1265416999813,0,3.0,2.029408600006718,True,1,16,A,2023-09-13_10h41.26.185,exp3,2022.2.2,
,,,,,,,,,,,,,,,,,,,,,,,2,2274,Valid,signal,0,2,2686.702019099961,0,3.0,52.084983299952,True,6,16,A,2023-09-13_10h41.26.185,exp3,2022.2.2,
,,,,,,,,,,,,,,,,,,,,,,,4,1158,Valid,noise,0,2,2690.7343796999776,1,3.0,2.9125157999806106,True,1,16,A,2023-09-13_10h41.26.185,exp3,2022.2.2,
,,,,,,,,,,,,,,,,,,,,,,,6,-557,Valid,noise,0,2,2694.638975699956,1,3.0,2.5129794000531547,True,1,16,A,2023-09-13_10h41.26.185,exp3,2022.2.2,
,,,,,,,,,,,,,,,,,,,,,,,8,557,Valid,signal,0,2,2697.7740050999564,0,3.0,2.0621168999932706,True,1,16,A,2023-09-13_10h41.26.185,exp3,2022.2.2,
,,,,,,,,,,,,,,,,,,,,,,,10,-1158,Valid,signal,0,1,2701.070449599996,1,3.0,2.246487900032662,True,1,16,A,2023-09-13_10h41.26.185,exp3,2022.2.2,
,,,,,,,,,,,,,,,,,,,,,,,12,-557,Valid,signal,0,2,2704.2385136999656,0,3.0,2.0953539999900386,True,1,16,A,2023-09-13_10h41.26.185,exp3,2022.2.2,
,,,,,,,,,,,,,,,,,,,,,,,14,-557,Valid,signal,0,2,2707.374303999997,0,3.0,2.2134189999778755,True,1,16,A,2023-09-13_10h41.26.185,exp3,2022.2.2,
,,,,,,,,,,,,,,,,,,,,,,,16,-2274,Valid,noise,0,2,2710.6223562000087,1,3.0,2.228630899975542,True,1,16,A,2023-09-13_10h41.26.185,exp3,2022.2.2,
,,,,,,,,,,,,,,,,,,,,,,,18,-1716,Valid,signal,0,1,2713.759285999986,1,3.0,2.0961688000243157,True,1,16,A,2023-09-13_10h41.26.185,exp3,2022.2.2,
,,,,,,,,,,,,,,,,,,,,,,,20,2274,Valid,signal,0,2,2719.2786935999757,0,3.0,4.66329619998578,True,2,16,A,2023-09-13_10h41.26.185,exp3,2022.2.2,
,,,,,,,,,,,,,,,,,,,,,,,22,-2274,Valid,signal,0,2,2722.622159899969,0,3.0,2.212811400007922,True,1,16,A,2023-09-13_10h41.26.185,exp3,2022.2.2,
,,,,,,,,,,,,,,,,,,,,,,,24,-1716,Valid,signal,0,1,2725.7428451000014,1,3.0,2.079300499986857,True,1,16,A,2023-09-13_10h41.26.185,exp3,2022.2.2,
,,,,,,,,,,,,,,,,,,,,,,,26,-557,Invalid,signal,0,1,2728.910057800007,1,3.0,2.1960108000203036,True,1,16,A,2023-09-13_10h41.26.185,exp3,2022.2.2,
,,,,,,,,,,,,,,,,,,,,,,,28,-1158,Valid,noise,0,1,2731.9986179000116,0,3.0,2.09635409998009,True,1,16,A,2023-09-13_10h41.26.185,exp3,2022.2.2,
,,,,,,,,,,,,,,,,,,,,,,,30,2274,Valid,noise,0,2,2735.2467626999714,1,3.0,2.329190699965693,True,1,16,A,2023-09-13_10h41.26.185,exp3,2022.2.2,
,,,,,,,,,,,,,,,,,,,,,,,32,-1158,Invalid,noise,0,1,2738.4626138999593,0,3.0,2.1792830000049435,True,1,16,A,2023-09-13_10h41.26.185,exp3,2022.2.2,
,,,,,,,,,,,,,,,,,,,,,,,34,-1716,Valid,signal,0,1,2741.630466500006,1,3.0,2.0792015999904834,True,1,16,A,2023-09-13_10h41.26.185,exp3,2022.2.2,
,,,,,,,,,,,,,,,,,,,,,,,36,-1158,Valid,noise,0,1,2744.7187534999684,0,3.0,2.096020299999509,True,1,16,A,2023-09-13_10h41.26.185,exp3,2022.2.2,
,,,,,,,,,,,,,,,,,,,,,,,38,1158,Valid,signal,0,1,2747.806405099982,1,3.0,2.0300143000204116,True,1,16,A,2023-09-13_10h41.26.185,exp3,2022.2.2,
,,,,,,,,,,,,,,,,,,,,,,,40,2274,Invalid,noise,0,2,2750.9586456000106,1,3.0,2.3952846999745816,True,1,16,A,2023-09-13_10h41.26.185,exp3,2022.2.2,
,,,,,,,,,,,,,,,,,,,,,,,42,-1716,Valid,signal,0,1,2754.1582065999974,1,3.0,2.0294665999826975,True,1,16,A,2023-09-13_10h41.26.185,exp3,2022.2.2,
,,,,,,,,,,,,,,,,,,,,,,,44,-1716,Invalid,signal,0,1,2757.2631727000116,1,3.0,2.1126542999991216,True,1,16,A,2023-09-13_10h41.26.185,exp3,2022.2.2,
,,,,,,,,,,,,,,,,,,,,,,,46,1716,Valid,signal,0,1,2760.17382799997,1,3.0,1.8955884000170045,True,1,16,A,2023-09-13_10h41.26.185,exp3,2022.2.2,
,,,,,,,,,,,,,,,,,,,,,,,48,-1716,Valid,noise,0,2,2763.229914699972,1,3.0,1.9958732000086457,True,1,16,A,2023-09-13_10h41.26.185,exp3,2022.2.2,
,,,,,,,,,,,,,,,,,,,,,,,50,1716,Valid,signal,0,1,2766.1910474000033,1,3.0,1.9626764999702573,True,1,16,A,2023-09-13_10h41.26.185,exp3,2022.2.2,
,,,,,,,,,,,,,,,,,,,,,,,52,-2274,Valid,noise,0,2,2769.294833699998,1,3.0,2.0793750999728218,True,1,16,A,2023-09-13_10h41.26.185,exp3,2022.2.2,
,,,,,,,,,,,,,,,,,,,,,,,54,-1158,Valid,signal,0,1,2772.23799579998,1,3.0,2.0794593000318855,True,1,16,A,2023-09-13_10h41.26.185,exp3,2022.2.2,
,,,,,,,,,,,,,,,,,,,,,,,56,-2274,Valid,signal,0,1,2775.470257100009,1,3.0,2.2963566000107676,True,1,16,A,2023-09-13_10h41.26.185,exp3,2022.2.2,
,,,,,,,,,,,,,,,,,,,,,,,58,-1716,Valid,signal,0,1,2778.814954600006,1,3.0,2.0788610000163317,True,1,16,A,2023-09-13_10h41.26.185,exp3,2022.2.2,
,,,,,,,,,,,,,,,,,,,,,,,60,557,Valid,signal,0,2,2781.8225078000105,0,3.0,1.9961527999839745,True,1,16,A,2023-09-13_10h41.26.185,exp3,2022.2.2,
,,,,,,,,,,,,,,,,,,,,,,,62,-1158,Valid,noise,0,2,2784.814082900004,1,3.0,2.0130587000166997,True,1,16,A,2023-09-13_10h41.26.185,exp3,2022.2.2,
,,,,,,,,,,,,,,,,,,,,,,,64,557,Invalid,signal,0,2,2787.7427986999974,0,3.0,1.9120343999820761,True,1,16,A,2023-09-13_10h41.26.185,exp3,2022.2.2,
,,,,,,,,,,,,,,,,,,,,,,,66,1158,Valid,signal,0,1,2790.7185549999704,1,3.0,1.9459851999999955,True,1,16,A,2023-09-13_10h41.26.185,exp3,2022.2.2,
,,,,,,,,,,,,,,,,,,,,,,,68,1716,Valid,noise,0,2,2793.613888699969,1,3.0,1.8952789999893866,True,1,16,A,2023-09-13_10h41.26.185,exp3,2022.2.2,
,,,,,,,,,,,,,,,,,,,,,,,70,2274,Valid,noise,0,2,2796.590010099986,1,3.0,1.9629304999834858,True,1,16,A,2023-09-13_10h41.26.185,exp3,2022.2.2,
,,,,,,,,,,,,,,,,,,,,,,,72,2274,Valid,signal,0,2,2799.5510644000024,0,3.0,2.012556100031361,True,1,16,A,2023-09-13_10h41.26.185,exp3,2022.2.2,
,,,,,,,,,,,,,,,,,,,,,,,74,1716,Invalid,noise,0,2,2802.4624197999947,1,3.0,1.929191200004425,True,1,16,A,2023-09-13_10h41.26.185,exp3,2022.2.2,
,,,,,,,,,,,,,,,,,,,,,,,76,1716,Invalid,signal,0,1,2805.439280999999,1,3.0,1.9794001000118442,True,1,16,A,2023-09-13_10h41.26.185,exp3,2022.2.2,
,,,,,,,,,,,,,,,,,,,,,,,78,-557,Valid,signal,0,2,2808.5265918999794,0,3.0,2.011957500013523,True,1,16,A,2023-09-13_10h41.26.185,exp3,2022.2.2,
,,,,,,,,,,,,,,,,,,,,,,,80,-2274,Valid,signal,0,2,2811.454892699956,0,3.0,2.0126168999704532,True,1,16,A,2023-09-13_10h41.26.185,exp3,2022.2.2,
,,,,,,,,,,,,,,,,,,,,,,,82,-557,Valid,noise,0,2,2814.4298737999634,1,3.0,1.8794093999895267,True,1,16,A,2023-09-13_10h41.26.185,exp3,2022.2.2,
,,,,,,,,,,,,,,,,,,,,,,,84,1716,Invalid,signal,0,1,2817.3750186999678,1,3.0,1.946127399976831,True,1,16,A,2023-09-13_10h41.26.185,exp3,2022.2.2,
,,,,,,,,,,,,,,,,,,,,,,,86,557,Valid,noise,0,2,2820.159261599998,1,3.0,1.8122915999847464,True,1,16,A,2023-09-13_10h41.26.185,exp3,2022.2.2,
,,,,,,,,,,,,,,,,,,,,,,,88,1716,Valid,noise,0,2,2823.150302299997,1,3.0,1.9954257999779657,True,1,16,A,2023-09-13_10h41.26.185,exp3,2022.2.2,
,,,,,,,,,,,,,,,,,,,,,,,90,-2274,Valid,signal,0,2,2826.1270993999788,0,3.0,1.9128529999870807,True,1,16,A,2023-09-13_10h41.26.185,exp3,2022.2.2,
,,,,,,,,,,,,,,,,,,,,,,,92,557,Valid,noise,0,2,2828.831081499986,1,3.0,1.795630100008566,True,1,16,A,2023-09-13_10h41.26.185,exp3,2022.2.2,
,,,,,,,,,,,,,,,,,,,,,,,94,-557,Invalid,signal,0,2,2831.6146024999907,0,3.0,1.7630078999791294,True,1,16,A,2023-09-13_10h41.26.185,exp3,2022.2.2,
,,,,,,,,,,,,,,,,,,,,,,,96,557,Valid,signal,0,2,2834.478080199973,0,3.0,1.8452216999721713,True,1,16,A,2023-09-13_10h41.26.185,exp3,2022.2.2,
,,,,,,,,,,,,,,,,,,,,,,,98,1158,Invalid,signal,0,1,2837.61488790001,1,3.0,2.07989130000351,True,1,16,A,2023-09-13_10h41.26.185,exp3,2022.2.2,
,,,,,,,,,,,,,,,,,,,,,,,100,1716,Valid,noise,0,2,2840.6551916999742,1,3.0,2.0455591999925673,True,1,16,A,2023-09-13_10h41.26.185,exp3,2022.2.2,
,,,,,,,,,,,,,,,,,,,,,,,102,-1158,Valid,signal,0,1,2843.694384099974,1,3.0,2.0292311999946833,True,1,16,A,2023-09-13_10h41.26.185,exp3,2022.2.2,
,,,,,,,,,,,,,,,,,,,,,,,104,1716,Valid,signal,0,1,2846.702751900011,1,3.0,2.012722399958875,True,1,16,A,2023-09-13_10h41.26.185,exp3,2022.2.2,
,,,,,,,,,,,,,,,,,,,,,,,106,1716,Valid,noise,0,1,2849.758115399978,0,3.0,2.095594800019171,True,1,16,A,2023-09-13_10h41.26.185,exp3,2022.2.2,
,,,,,,,,,,,,,,,,,,,,,,,108,-557,Valid,noise,0,1,2852.8622055999585,0,3.0,2.1298008000012487,True,1,16,A,2023-09-13_10h41.26.185,exp3,2022.2.2,
