trials.label,trials.startVal,trials.maxVal,trials.minVal,trials.startValSd,trials.pthreshold,trials.beta,trials.delta,trials.gamma,trials.grain,trials.stepSize,trials.range,trials.cue,trials.thisIndex,trials.thisRepN,trials.thisN,trials.direction,trials.stepType,trials.intensity,signalOpacity,stair_response_correct,level,trials.response,stair_eye_ok,nTrial,position,validity,Stimulus,orientation,response_key,response_rt,response_correct,confidence,confidence_rt,eye_ok,trial_rep,participant,session,date,expName,psychopyVersion,
low_opac_v,0.4,1,0.01,3,0.82,3.5,0.01,0,0.01,4,5,Valid,0,1,0,start,lin,0.4,0,1,0.4,1,True,,,,,,,,,,,,,26,A,2023-09-21_14h45.03.937,exp3,2022.2.2,
high_opac_v,0.01,1,0.01,3,0.82,3.5,0.01,0,0.01,4,5,Valid,1,1,1,start,lin,0.01,0.01,0,0.01,0,True,,,,,,,,,,,,,26,A,2023-09-21_14h45.03.937,exp3,2022.2.2,
low_opac_i,0.4,1,0.01,3,0.82,3.5,0.01,0,0.01,4,5,Invalid,2,1,2,start,lin,0.4,0,1,0.4,1,True,,,,,,,,,,,,,26,A,2023-09-21_14h45.03.937,exp3,2022.2.2,
low_opac_i,0.4,1,0.01,3,0.82,3.5,0.01,0,0.01,4,5,Invalid,2,2,3,start,lin,0.01,0.01,0,0.01,0,True,,,,,,,,,,,,,26,A,2023-09-21_14h45.03.937,exp3,2022.2.2,
low_opac_v,0.4,1,0.01,3,0.82,3.5,0.01,0,0.01,4,5,Valid,0,2,4,start,lin,0.01,0.01,0,0.01,0,True,,,,,,,,,,,,,26,A,2023-09-21_14h45.03.937,exp3,2022.2.2,
high_opac_v,0.01,1,0.01,3,0.82,3.5,0.01,0,0.01,4,5,Valid,1,2,5,start,lin,1,1,1,1,1,True,,,,,,,,,,,,,26,A,2023-09-21_14h45.03.937,exp3,2022.2.2,
low_opac_i,0.4,1,0.01,3,0.82,3.5,0.01,0,0.01,4,5,Invalid,2,3,6,start,lin,0.3144098688205103,0.3144098688205103,1,0.3144098688205103,1,True,,,,,,,,,,,,,26,A,2023-09-21_14h45.03.937,exp3,2022.2.2,
high_opac_v,0.01,1,0.01,3,0.82,3.5,0.01,0,0.01,4,5,Valid,1,3,7,start,lin,0.6092784667527542,0,1,0.6092784667527542,1,True,,,,,,,,,,,,,26,A,2023-09-21_14h45.03.937,exp3,2022.2.2,
low_opac_v,0.4,1,0.01,3,0.82,3.5,0.01,0,0.01,4,5,Valid,0,3,8,start,lin,0.3144098688205103,0,1,0.3144098688205103,1,True,,,,,,,,,,,,,26,A,2023-09-21_14h45.03.937,exp3,2022.2.2,
low_opac_v,0.4,1,0.01,3,0.82,3.5,0.01,0,0.01,4,5,Valid,0,4,9,start,lin,0.23561159539411833,0.23561159539411833,1,0.23561159539411833,1,True,,,,,,,,,,,,,26,A,2023-09-21_14h45.03.937,exp3,2022.2.2,
low_opac_i,0.4,1,0.01,3,0.82,3.5,0.01,0,0.01,4,5,Invalid,2,4,10,start,lin,0.23561159539411833,0,1,0.23561159539411833,1,True,,,,,,,,,,,,,26,A,2023-09-21_14h45.03.937,exp3,2022.2.2,
high_opac_v,0.01,1,0.01,3,0.82,3.5,0.01,0,0.01,4,5,Valid,1,4,11,start,lin,0.41662067589367746,0.41662067589367746,1,0.41662067589367746,1,True,,,,,,,,,,,,,26,A,2023-09-21_14h45.03.937,exp3,2022.2.2,
low_opac_v,0.4,1,0.01,3,0.82,3.5,0.01,0,0.01,4,5,Valid,0,5,12,start,lin,0.1841780991895161,0.1841780991895161,1,0.1841780991895161,1,True,,,,,,,,,,,,,26,A,2023-09-21_14h45.03.937,exp3,2022.2.2,
high_opac_v,0.01,1,0.01,3,0.82,3.5,0.01,0,0.01,4,5,Valid,1,5,13,start,lin,0.3073330120243674,0,0,0.3073330120243674,0,True,,,,,,,,,,,,,26,A,2023-09-21_14h45.03.937,exp3,2022.2.2,
low_opac_i,0.4,1,0.01,3,0.82,3.5,0.01,0,0.01,4,5,Invalid,2,5,14,start,lin,0.1841780991895161,0,1,0.1841780991895161,1,True,,,,,,,,,,,,,26,A,2023-09-21_14h45.03.937,exp3,2022.2.2,
high_opac_v,0.01,1,0.01,3,0.82,3.5,0.01,0,0.01,4,5,Valid,1,6,15,start,lin,0.4713970668555294,0.4713970668555294,1,0.4713970668555294,1,True,,,,,,,,,,,,,26,A,2023-09-21_14h45.03.937,exp3,2022.2.2,
low_opac_v,0.4,1,0.01,3,0.82,3.5,0.01,0,0.01,4,5,Valid,0,6,16,start,lin,0.14081453445857006,0.14081453445857006,1,0.14081453445857006,1,True,,,,,,,,,,,,,26,A,2023-09-21_14h45.03.937,exp3,2022.2.2,
low_opac_i,0.4,1,0.01,3,0.82,3.5,0.01,0,0.01,4,5,Invalid,2,6,17,start,lin,0.14081453445857006,0.14081453445857006,1,0.14081453445857006,1,True,,,,,,,,,,,,,26,A,2023-09-21_14h45.03.937,exp3,2022.2.2,
low_opac_i,0.4,1,0.01,3,0.82,3.5,0.01,0,0.01,4,5,Invalid,2,7,18,start,lin,0.10410764613410528,0.10410764613410528,1,0.10410764613410528,1,True,,,,,,,,,,,,,26,A,2023-09-21_14h45.03.937,exp3,2022.2.2,
high_opac_v,0.01,1,0.01,3,0.82,3.5,0.01,0,0.01,4,5,Valid,1,7,19,start,lin,0.43449969652665843,0.43449969652665843,1,0.43449969652665843,1,True,,,,,,,,,,,,,26,A,2023-09-21_14h45.03.937,exp3,2022.2.2,
low_opac_v,0.4,1,0.01,3,0.82,3.5,0.01,0,0.01,4,5,Valid,0,7,20,start,lin,0.10410764613410528,0.10410764613410528,1,0.10410764613410528,1,True,,,,,,,,,,,,,26,A,2023-09-21_14h45.03.937,exp3,2022.2.2,
low_opac_v,0.4,1,0.01,3,0.82,3.5,0.01,0,0.01,4,5,Valid,0,8,21,start,lin,0.06939770050553568,0,0,0.06939770050553568,0,True,,,,,,,,,,,,,26,A,2023-09-21_14h45.03.937,exp3,2022.2.2,
high_opac_v,0.01,1,0.01,3,0.82,3.5,0.01,0,0.01,4,5,Valid,1,8,22,start,lin,0.4066614024998842,0.4066614024998842,1,0.4066614024998842,1,True,,,,,,,,,,,,,26,A,2023-09-21_14h45.03.937,exp3,2022.2.2,
low_opac_i,0.4,1,0.01,3,0.82,3.5,0.01,0,0.01,4,5,Invalid,2,8,23,start,lin,0.06939770050553568,0.06939770050553568,1,0.06939770050553568,1,True,,,,,,,,,,,,,26,A,2023-09-21_14h45.03.937,exp3,2022.2.2,
high_opac_v,0.01,1,0.01,3,0.82,3.5,0.01,0,0.01,4,5,Valid,1,9,24,start,lin,0.3854652888161659,0.3854652888161659,1,0.3854652888161659,1,True,,,,,,,,,,,,,26,A,2023-09-21_14h45.03.937,exp3,2022.2.2,
low_opac_i,0.4,1,0.01,3,0.82,3.5,0.01,0,0.01,4,5,Invalid,2,9,25,start,lin,0.03562832594001342,0.03562832594001342,0,0.03562832594001342,0,True,,,,,,,,,,,,,26,A,2023-09-21_14h45.03.937,exp3,2022.2.2,
low_opac_v,0.4,1,0.01,3,0.82,3.5,0.01,0,0.01,4,5,Valid,0,9,26,start,lin,0.15355165060147863,0,1,0.15355165060147863,1,True,,,,,,,,,,,,,26,A,2023-09-21_14h45.03.937,exp3,2022.2.2,
high_opac_v,0.01,1,0.01,3,0.82,3.5,0.01,0,0.01,4,5,Valid,1,10,27,start,lin,0.36767071261727635,0,1,0.36767071261727635,1,True,,,,,,,,,,,,,26,A,2023-09-21_14h45.03.937,exp3,2022.2.2,
low_opac_i,0.4,1,0.01,3,0.82,3.5,0.01,0,0.01,4,5,Invalid,2,10,28,start,lin,0.12109348043581553,0.12109348043581553,1,0.12109348043581553,1,True,,,,,,,,,,,,,26,A,2023-09-21_14h45.03.937,exp3,2022.2.2,
low_opac_v,0.4,1,0.01,3,0.82,3.5,0.01,0,0.01,4,5,Valid,0,10,29,start,lin,0.1380266354329187,0,0,0.1380266354329187,0,True,,,,,,,,,,,,,26,A,2023-09-21_14h45.03.937,exp3,2022.2.2,
low_opac_i,0.4,1,0.01,3,0.82,3.5,0.01,0,0.01,4,5,Invalid,2,11,30,start,lin,0.10732116846540846,0.10732116846540846,1,0.10732116846540846,1,True,,,,,,,,,,,,,26,A,2023-09-21_14h45.03.937,exp3,2022.2.2,
low_opac_v,0.4,1,0.01,3,0.82,3.5,0.01,0,0.01,4,5,Valid,0,11,31,start,lin,0.18500047044237494,0.18500047044237494,1,0.18500047044237494,1,True,,,,,,,,,,,,,26,A,2023-09-21_14h45.03.937,exp3,2022.2.2,
high_opac_v,0.01,1,0.01,3,0.82,3.5,0.01,0,0.01,4,5,Valid,1,11,32,start,lin,0.3517716203982816,0,0,0.3517716203982816,0,True,,,,,,,,,,,,,26,A,2023-09-21_14h45.03.937,exp3,2022.2.2,
low_opac_i,0.4,1,0.01,3,0.82,3.5,0.01,0,0.01,4,5,Invalid,2,12,33,start,lin,0.09544348418602827,0,0,0.09544348418602827,0,True,,,,,,,,,,,,,26,A,2023-09-21_14h45.03.937,exp3,2022.2.2,
high_opac_v,0.01,1,0.01,3,0.82,3.5,0.01,0,0.01,4,5,Valid,1,12,34,start,lin,0.40053920913001784,0.40053920913001784,1,0.40053920913001784,1,True,,,,,,,,,,,,,26,A,2023-09-21_14h45.03.937,exp3,2022.2.2,
low_opac_v,0.4,1,0.01,3,0.82,3.5,0.01,0,0.01,4,5,Valid,0,12,35,start,lin,0.17468021776316672,0.17468021776316672,1,0.17468021776316672,1,True,,,,,,,,,,,,,26,A,2023-09-21_14h45.03.937,exp3,2022.2.2,
low_opac_v,0.4,1,0.01,3,0.82,3.5,0.01,0,0.01,4,5,Valid,0,13,36,start,lin,0.16475639416193197,0.16475639416193197,1,0.16475639416193197,1,True,,,,,,,,,,,,,26,A,2023-09-21_14h45.03.937,exp3,2022.2.2,
low_opac_i,0.4,1,0.01,3,0.82,3.5,0.01,0,0.01,4,5,Invalid,2,13,37,start,lin,0.13578232320463868,0.13578232320463868,1,0.13578232320463868,1,True,,,,,,,,,,,,,26,A,2023-09-21_14h45.03.937,exp3,2022.2.2,
high_opac_v,0.01,1,0.01,3,0.82,3.5,0.01,0,0.01,4,5,Valid,1,13,38,start,lin,0.3898264816535598,0,0,0.3898264816535598,0,True,,,,,,,,,,,,,26,A,2023-09-21_14h45.03.937,exp3,2022.2.2,
low_opac_i,0.4,1,0.01,3,0.82,3.5,0.01,0,0.01,4,5,Invalid,2,14,39,start,lin,0.12718905518848744,0,0,0.12718905518848744,0,True,,,,,,,,,,,,,26,A,2023-09-21_14h45.03.937,exp3,2022.2.2,
high_opac_v,0.01,1,0.01,3,0.82,3.5,0.01,0,0.01,4,5,Valid,1,14,40,start,lin,0.4251454082301776,0.4251454082301776,1,0.4251454082301776,1,True,,,,,,,,,,,,,26,A,2023-09-21_14h45.03.937,exp3,2022.2.2,
low_opac_v,0.4,1,0.01,3,0.82,3.5,0.01,0,0.01,4,5,Valid,0,14,41,start,lin,0.1557689140282926,0.1557689140282926,1,0.1557689140282926,1,True,,,,,,,,,,,,,26,A,2023-09-21_14h45.03.937,exp3,2022.2.2,
high_opac_v,0.01,1,0.01,3,0.82,3.5,0.01,0,0.01,4,5,Valid,1,15,42,start,lin,0.41715029810654525,0,0,0.41715029810654525,0,True,,,,,,,,,,,,,26,A,2023-09-21_14h45.03.937,exp3,2022.2.2,
low_opac_i,0.4,1,0.01,3,0.82,3.5,0.01,0,0.01,4,5,Invalid,2,15,43,start,lin,0.15811187668822496,0.15811187668822496,1,0.15811187668822496,1,True,,,,,,,,,,,,,26,A,2023-09-21_14h45.03.937,exp3,2022.2.2,
low_opac_v,0.4,1,0.01,3,0.82,3.5,0.01,0,0.01,4,5,Valid,0,15,44,start,lin,0.14810321758691442,0,0,0.14810321758691442,0,True,,,,,,,,,,,,,26,A,2023-09-21_14h45.03.937,exp3,2022.2.2,
low_opac_v,0.4,1,0.01,3,0.82,3.5,0.01,0,0.01,4,5,Valid,0,16,45,start,lin,0.1761125698541988,0,0,0.1761125698541988,0,True,,,,,,,,,,,,,26,A,2023-09-21_14h45.03.937,exp3,2022.2.2,
low_opac_i,0.4,1,0.01,3,0.82,3.5,0.01,0,0.01,4,5,Invalid,2,16,46,start,lin,0.15102942338384082,0.15102942338384082,1,0.15102942338384082,1,True,,,,,,,,,,,,,26,A,2023-09-21_14h45.03.937,exp3,2022.2.2,
high_opac_v,0.01,1,0.01,3,0.82,3.5,0.01,0,0.01,4,5,Valid,1,16,47,start,lin,0.4463618766699063,0,0,0.4463618766699063,0,True,,,,,,,,,,,,,26,A,2023-09-21_14h45.03.937,exp3,2022.2.2,
low_opac_v,0.4,1,0.01,3,0.82,3.5,0.01,0,0.01,4,5,Valid,0,17,48,start,lin,0.20156468068240285,0.20156468068240285,1,0.20156468068240285,1,True,,,,,,,,,,,,,26,A,2023-09-21_14h45.03.937,exp3,2022.2.2,
high_opac_v,0.01,1,0.01,3,0.82,3.5,0.01,0,0.01,4,5,Valid,1,17,49,start,lin,0.47354335958536503,0.47354335958536503,1,0.47354335958536503,1,True,,,,,,,,,,,,,26,A,2023-09-21_14h45.03.937,exp3,2022.2.2,
low_opac_i,0.4,1,0.01,3,0.82,3.5,0.01,0,0.01,4,5,Invalid,2,17,50,start,lin,0.14435103214821338,0,0,0.14435103214821338,0,True,,,,,,,,,,,,,26,A,2023-09-21_14h45.03.937,exp3,2022.2.2,
high_opac_v,0.01,1,0.01,3,0.82,3.5,0.01,0,0.01,4,5,Valid,1,18,51,start,lin,0.46686421967769426,0.46686421967769426,1,0.46686421967769426,1,True,,,,,,,,,,,,,26,A,2023-09-21_14h45.03.937,exp3,2022.2.2,
low_opac_v,0.4,1,0.01,3,0.82,3.5,0.01,0,0.01,4,5,Valid,0,18,52,start,lin,0.19554338415924408,0.19554338415924408,1,0.19554338415924408,1,True,,,,,,,,,,,,,26,A,2023-09-21_14h45.03.937,exp3,2022.2.2,
low_opac_i,0.4,1,0.01,3,0.82,3.5,0.01,0,0.01,4,5,Invalid,2,18,53,start,lin,0.16737549821317824,0,1,0.16737549821317824,1,True,,,,,,,,,,,,,26,A,2023-09-21_14h45.03.937,exp3,2022.2.2,
low_opac_i,0.4,1,0.01,3,0.82,3.5,0.01,0,0.01,4,5,Invalid,2,19,54,start,lin,0.16184440537184905,0,0,0.16184440537184905,0,True,,,,,,,,,,,,,26,A,2023-09-21_14h45.03.937,exp3,2022.2.2,
high_opac_v,0.01,1,0.01,3,0.82,3.5,0.01,0,0.01,4,5,Valid,1,19,55,start,lin,0.4610630045554298,0,1,0.4610630045554298,1,True,,,,,,,,,,,,,26,A,2023-09-21_14h45.03.937,exp3,2022.2.2,
low_opac_v,0.4,1,0.01,3,0.82,3.5,0.01,0,0.01,4,5,Valid,0,19,56,start,lin,0.1902117960758623,0,1,0.1902117960758623,1,True,,,,,,,,,,,,,26,A,2023-09-21_14h45.03.937,exp3,2022.2.2,
low_opac_i,0.4,1,0.01,3,0.82,3.5,0.01,0,0.01,4,5,Invalid,2,20,57,start,lin,0.18227306172587318,0,0,0.18227306172587318,0,True,,,,,,,,,,,,,26,A,2023-09-21_14h45.03.937,exp3,2022.2.2,
high_opac_v,0.01,1,0.01,3,0.82,3.5,0.01,0,0.01,4,5,Valid,1,20,58,start,lin,0.45548766343321484,0,1,0.45548766343321484,1,True,,,,,,,,,,,,,26,A,2023-09-21_14h45.03.937,exp3,2022.2.2,
low_opac_v,0.4,1,0.01,3,0.82,3.5,0.01,0,0.01,4,5,Valid,0,20,59,start,lin,0.18503034540695326,0,1,0.18503034540695326,1,True,,,,,,,,,,,,,26,A,2023-09-21_14h45.03.937,exp3,2022.2.2,
low_opac_v,0.4,1,0.01,3,0.82,3.5,0.01,0,0.01,4,5,Valid,0,21,60,start,lin,0.18035221142339516,0,1,0.18035221142339516,1,True,,,,,,,,,,,,,26,A,2023-09-21_14h45.03.937,exp3,2022.2.2,
low_opac_i,0.4,1,0.01,3,0.82,3.5,0.01,0,0.01,4,5,Invalid,2,21,61,start,lin,0.20154729023728268,0.20154729023728268,0,0.20154729023728268,0,True,,,,,,,,,,,,,26,A,2023-09-21_14h45.03.937,exp3,2022.2.2,
high_opac_v,0.01,1,0.01,3,0.82,3.5,0.01,0,0.01,4,5,Valid,1,21,62,start,lin,0.45051665346282027,0.45051665346282027,1,0.45051665346282027,1,True,,,,,,,,,,,,,26,A,2023-09-21_14h45.03.937,exp3,2022.2.2,
high_opac_v,0.01,1,0.01,3,0.82,3.5,0.01,0,0.01,4,5,Valid,1,22,63,start,lin,0.4456458662630247,0,1,0.4456458662630247,1,True,,,,,,,,,,,,,26,A,2023-09-21_14h45.03.937,exp3,2022.2.2,
low_opac_i,0.4,1,0.01,3,0.82,3.5,0.01,0,0.01,4,5,Invalid,2,22,64,start,lin,0.2200906173727758,0,1,0.2200906173727758,1,True,,,,,,,,,,,,,26,A,2023-09-21_14h45.03.937,exp3,2022.2.2,
low_opac_v,0.4,1,0.01,3,0.82,3.5,0.01,0,0.01,4,5,Valid,0,22,65,start,lin,0.1757220302398988,0.1757220302398988,1,0.1757220302398988,1,True,,,,,,,,,,,,,26,A,2023-09-21_14h45.03.937,exp3,2022.2.2,
low_opac_i,0.4,1,0.01,3,0.82,3.5,0.01,0,0.01,4,5,Invalid,2,23,66,start,lin,0.2155245148535318,0.2155245148535318,1,0.2155245148535318,1,True,,,,,,,,,,,,,26,A,2023-09-21_14h45.03.937,exp3,2022.2.2,
low_opac_v,0.4,1,0.01,3,0.82,3.5,0.01,0,0.01,4,5,Valid,0,23,67,start,lin,0.17150734503435258,0.17150734503435258,1,0.17150734503435258,1,True,,,,,,,,,,,,,26,A,2023-09-21_14h45.03.937,exp3,2022.2.2,
high_opac_v,0.01,1,0.01,3,0.82,3.5,0.01,0,0.01,4,5,Valid,1,23,68,start,lin,0.44124055987937316,0,0,0.44124055987937316,0,True,,,,,,,,,,,,,26,A,2023-09-21_14h45.03.937,exp3,2022.2.2,
low_opac_i,0.4,1,0.01,3,0.82,3.5,0.01,0,0.01,4,5,Invalid,2,24,69,start,lin,0.2113875419678645,0.2113875419678645,1,0.2113875419678645,1,True,,,,,,,,,,,,,26,A,2023-09-21_14h45.03.937,exp3,2022.2.2,
low_opac_v,0.4,1,0.01,3,0.82,3.5,0.01,0,0.01,4,5,Valid,0,24,70,start,lin,0.16725368964989706,0.16725368964989706,1,0.16725368964989706,1,True,,,,,,,,,,,,,26,A,2023-09-21_14h45.03.937,exp3,2022.2.2,
high_opac_v,0.01,1,0.01,3,0.82,3.5,0.01,0,0.01,4,5,Valid,1,24,71,start,lin,0.45820719870742804,0.45820719870742804,1,0.45820719870742804,1,True,,,,,,,,,,,,,26,A,2023-09-21_14h45.03.937,exp3,2022.2.2,
low_opac_v,0.4,1,0.01,3,0.82,3.5,0.01,0,0.01,4,5,Valid,0,25,72,start,lin,0.16336697884688078,0.16336697884688078,1,0.16336697884688078,1,True,,,,,,,,,,,,,26,A,2023-09-21_14h45.03.937,exp3,2022.2.2,
low_opac_i,0.4,1,0.01,3,0.82,3.5,0.01,0,0.01,4,5,Invalid,2,25,73,start,lin,0.2072578353014258,0,0,0.2072578353014258,0,True,,,,,,,,,,,,,26,A,2023-09-21_14h45.03.937,exp3,2022.2.2,
high_opac_v,0.01,1,0.01,3,0.82,3.5,0.01,0,0.01,4,5,Valid,1,25,74,start,lin,0.4542013766797813,0.4542013766797813,1,0.4542013766797813,1,True,,,,,,,,,,,,,26,A,2023-09-21_14h45.03.937,exp3,2022.2.2,
low_opac_i,0.4,1,0.01,3,0.82,3.5,0.01,0,0.01,4,5,Invalid,2,26,75,start,lin,0.22293656434401884,0,0,0.22293656434401884,0,True,,,,,,,,,,,,,26,A,2023-09-21_14h45.03.937,exp3,2022.2.2,
low_opac_v,0.4,1,0.01,3,0.82,3.5,0.01,0,0.01,4,5,Valid,0,26,76,start,lin,0.15940655133914372,0.15940655133914372,1,0.15940655133914372,1,True,,,,,,,,,,,,,26,A,2023-09-21_14h45.03.937,exp3,2022.2.2,
high_opac_v,0.01,1,0.01,3,0.82,3.5,0.01,0,0.01,4,5,Valid,1,26,77,start,lin,0.4501712293242683,0.4501712293242683,0,0.4501712293242683,0,True,,,,,,,,,,,,,26,A,2023-09-21_14h45.03.937,exp3,2022.2.2,
high_opac_v,0.01,1,0.01,3,0.82,3.5,0.01,0,0.01,4,5,Valid,1,27,78,start,lin,0.46491937117034443,0.46491937117034443,1,0.46491937117034443,1,True,,,,,,,,,,,,,26,A,2023-09-21_14h45.03.937,exp3,2022.2.2,
low_opac_i,0.4,1,0.01,3,0.82,3.5,0.01,0,0.01,4,5,Invalid,2,27,79,start,lin,0.2374719453126059,0.2374719453126059,1,0.2374719453126059,1,True,,,,,,,,,,,,,26,A,2023-09-21_14h45.03.937,exp3,2022.2.2,
low_opac_v,0.4,1,0.01,3,0.82,3.5,0.01,0,0.01,4,5,Valid,0,27,80,start,lin,0.15573244429664973,0.15573244429664973,0,0.15573244429664973,0,True,,,,,,,,,,,,,26,A,2023-09-21_14h45.03.937,exp3,2022.2.2,
high_opac_v,0.01,1,0.01,3,0.82,3.5,0.01,0,0.01,4,5,Valid,1,28,81,start,lin,0.46124937409470224,0,1,0.46124937409470224,1,True,,,,,,,,,,,,,26,A,2023-09-21_14h45.03.937,exp3,2022.2.2,
low_opac_i,0.4,1,0.01,3,0.82,3.5,0.01,0,0.01,4,5,Invalid,2,28,82,start,lin,0.23396169365507977,0,1,0.23396169365507977,1,True,,,,,,,,,,,,,26,A,2023-09-21_14h45.03.937,exp3,2022.2.2,
low_opac_v,0.4,1,0.01,3,0.82,3.5,0.01,0,0.01,4,5,Valid,0,28,83,start,lin,0.17026181743199237,0.17026181743199237,1,0.17026181743199237,1,True,,,,,,,,,,,,,26,A,2023-09-21_14h45.03.937,exp3,2022.2.2,
high_opac_v,0.01,1,0.01,3,0.82,3.5,0.01,0,0.01,4,5,Valid,1,29,84,start,lin,0.4578110938953188,0,1,0.4578110938953188,1,True,,,,,,,,,,,,,26,A,2023-09-21_14h45.03.937,exp3,2022.2.2,
low_opac_v,0.4,1,0.01,3,0.82,3.5,0.01,0,0.01,4,5,Valid,0,29,85,start,lin,0.166941088077778,0,1,0.166941088077778,1,True,,,,,,,,,,,,,26,A,2023-09-21_14h45.03.937,exp3,2022.2.2,
low_opac_i,0.4,1,0.01,3,0.82,3.5,0.01,0,0.01,4,5,Invalid,2,29,86,start,lin,0.2304016923127491,0.2304016923127491,1,0.2304016923127491,1,True,,,,,,,,,,,,,26,A,2023-09-21_14h45.03.937,exp3,2022.2.2,
high_opac_v,0.01,1,0.01,3,0.82,3.5,0.01,0,0.01,4,5,Valid,1,30,87,start,lin,0.45465017416713904,0.45465017416713904,1,0.45465017416713904,1,True,,,,,,,,,,,,,26,A,2023-09-21_14h45.03.937,exp3,2022.2.2,
low_opac_v,0.4,1,0.01,3,0.82,3.5,0.01,0,0.01,4,5,Valid,0,30,88,start,lin,0.1638625791987852,0,0,0.1638625791987852,0,True,,,,,,,,,,,,,26,A,2023-09-21_14h45.03.937,exp3,2022.2.2,
low_opac_i,0.4,1,0.01,3,0.82,3.5,0.01,0,0.01,4,5,Invalid,2,30,89,start,lin,0.22709938444435998,0,1,0.22709938444435998,1,True,,,,,,,,,,,,,26,A,2023-09-21_14h45.03.937,exp3,2022.2.2,
high_opac_v,0.01,1,0.01,3,0.82,3.5,0.01,0,0.01,4,5,Valid,1,31,90,start,lin,0.4514239272063072,0.4514239272063072,1,0.4514239272063072,1,True,,,,,,,,,,,,,26,A,2023-09-21_14h45.03.937,exp3,2022.2.2,
low_opac_i,0.4,1,0.01,3,0.82,3.5,0.01,0,0.01,4,5,Invalid,2,31,91,start,lin,0.22405730715265285,0,1,0.22405730715265285,1,True,,,,,,,,,,,,,26,A,2023-09-21_14h45.03.937,exp3,2022.2.2,
low_opac_v,0.4,1,0.01,3,0.82,3.5,0.01,0,0.01,4,5,Valid,0,31,92,start,lin,0.17583031642547325,0,1,0.17583031642547325,1,True,,,,,,,,,,,,,26,A,2023-09-21_14h45.03.937,exp3,2022.2.2,
low_opac_i,0.4,1,0.01,3,0.82,3.5,0.01,0,0.01,4,5,Invalid,2,32,93,start,lin,0.22093937130883956,0.22093937130883956,1,0.22093937130883956,1,True,,,,,,,,,,,,,26,A,2023-09-21_14h45.03.937,exp3,2022.2.2,
high_opac_v,0.01,1,0.01,3,0.82,3.5,0.01,0,0.01,4,5,Valid,1,32,94,start,lin,0.4483577591718808,0.4483577591718808,1,0.4483577591718808,1,True,,,,,,,,,,,,,26,A,2023-09-21_14h45.03.937,exp3,2022.2.2,
low_opac_v,0.4,1,0.01,3,0.82,3.5,0.01,0,0.01,4,5,Valid,0,32,95,start,lin,0.17304623393378946,0,1,0.17304623393378946,1,True,,,,,,,,,,,,,26,A,2023-09-21_14h45.03.937,exp3,2022.2.2,
low_opac_v,0.4,1,0.01,3,0.82,3.5,0.01,0,0.01,4,5,Valid,0,33,96,start,lin,0.17014794123006496,0.17014794123006496,1,0.17014794123006496,1,True,,,,,,,,,,,,,26,A,2023-09-21_14h45.03.937,exp3,2022.2.2,
high_opac_v,0.01,1,0.01,3,0.82,3.5,0.01,0,0.01,4,5,Valid,1,33,97,start,lin,0.4455145285853374,0.4455145285853374,1,0.4455145285853374,1,True,,,,,,,,,,,,,26,A,2023-09-21_14h45.03.937,exp3,2022.2.2,
low_opac_i,0.4,1,0.01,3,0.82,3.5,0.01,0,0.01,4,5,Invalid,2,33,98,start,lin,0.21799098512218057,0.21799098512218057,1,0.21799098512218057,1,True,,,,,,,,,,,,,26,A,2023-09-21_14h45.03.937,exp3,2022.2.2,
high_opac_v,0.01,1,0.01,3,0.82,3.5,0.01,0,0.01,4,5,Valid,1,34,99,start,lin,0.44283956860606677,0.44283956860606677,1,0.44283956860606677,1,True,,,,,,,,,,,,,26,A,2023-09-21_14h45.03.937,exp3,2022.2.2,
low_opac_v,0.4,1,0.01,3,0.82,3.5,0.01,0,0.01,4,5,Valid,0,34,100,start,lin,0.16739968115922624,0,1,0.16739968115922624,1,True,,,,,,,,,,,,,26,A,2023-09-21_14h45.03.937,exp3,2022.2.2,
low_opac_i,0.4,1,0.01,3,0.82,3.5,0.01,0,0.01,4,5,Invalid,2,34,101,start,lin,0.21526145292157742,0,1,0.21526145292157742,1,True,,,,,,,,,,,,,26,A,2023-09-21_14h45.03.937,exp3,2022.2.2,
low_opac_v,0.4,1,0.01,3,0.82,3.5,0.01,0,0.01,4,5,Valid,0,35,102,start,lin,0.16483211623548916,0.16483211623548916,1,0.16483211623548916,1,True,,,,,,,,,,,,,26,A,2023-09-21_14h45.03.937,exp3,2022.2.2,
low_opac_i,0.4,1,0.01,3,0.82,3.5,0.01,0,0.01,4,5,Invalid,2,35,103,start,lin,0.2126889529813314,0.2126889529813314,1,0.2126889529813314,1,True,,,,,,,,,,,,,26,A,2023-09-21_14h45.03.937,exp3,2022.2.2,
high_opac_v,0.01,1,0.01,3,0.82,3.5,0.01,0,0.01,4,5,Valid,1,35,104,start,lin,0.44004463284257817,0,0,0.44004463284257817,0,True,,,,,,,,,,,,,26,A,2023-09-21_14h45.03.937,exp3,2022.2.2,
low_opac_i,0.4,1,0.01,3,0.82,3.5,0.01,0,0.01,4,5,Invalid,2,36,105,start,lin,0.20999807024519057,0.20999807024519057,1,0.20999807024519057,1,True,,,,,,,,,,,,,26,A,2023-09-21_14h45.03.937,exp3,2022.2.2,
low_opac_v,0.4,1,0.01,3,0.82,3.5,0.01,0,0.01,4,5,Valid,0,36,106,start,lin,0.16217588886660977,0.16217588886660977,1,0.16217588886660977,1,True,,,,,,,,,,,,,26,A,2023-09-21_14h45.03.937,exp3,2022.2.2,
high_opac_v,0.01,1,0.01,3,0.82,3.5,0.01,0,0.01,4,5,Valid,1,36,107,start,lin,0.45065746851215044,0,1,0.45065746851215044,1,True,,,,,,,,,,,,,26,A,2023-09-21_14h45.03.937,exp3,2022.2.2,
low_opac_i,0.4,1,0.01,3,0.82,3.5,0.01,0,0.01,4,5,Invalid,2,37,108,start,lin,0.20745464291987542,0.20745464291987542,1,0.20745464291987542,1,True,,,,,,,,,,,,,26,A,2023-09-21_14h45.03.937,exp3,2022.2.2,
high_opac_v,0.01,1,0.01,3,0.82,3.5,0.01,0,0.01,4,5,Valid,1,37,109,start,lin,0.4480986790636018,0.4480986790636018,1,0.4480986790636018,1,True,,,,,,,,,,,,,26,A,2023-09-21_14h45.03.937,exp3,2022.2.2,
low_opac_v,0.4,1,0.01,3,0.82,3.5,0.01,0,0.01,4,5,Valid,0,37,110,start,lin,0.15960387817145344,0,1,0.15960387817145344,1,True,,,,,,,,,,,,,26,A,2023-09-21_14h45.03.937,exp3,2022.2.2,
low_opac_i,0.4,1,0.01,3,0.82,3.5,0.01,0,0.01,4,5,Invalid,2,38,111,start,lin,0.20507434926351825,0,1,0.20507434926351825,1,True,,,,,,,,,,,,,26,A,2023-09-21_14h45.03.937,exp3,2022.2.2,
high_opac_v,0.01,1,0.01,3,0.82,3.5,0.01,0,0.01,4,5,Valid,1,38,112,start,lin,0.4457085792092667,0,1,0.4457085792092667,1,True,,,,,,,,,,,,,26,A,2023-09-21_14h45.03.937,exp3,2022.2.2,
low_opac_v,0.4,1,0.01,3,0.82,3.5,0.01,0,0.01,4,5,Valid,0,38,113,start,lin,0.15716239998325354,0.15716239998325354,0,0.15716239998325354,0,True,,,,,,,,,,,,,26,A,2023-09-21_14h45.03.937,exp3,2022.2.2,
low_opac_i,0.4,1,0.01,3,0.82,3.5,0.01,0,0.01,4,5,Invalid,2,39,114,start,lin,0.20281075618560823,0,1,0.20281075618560823,1,True,,,,,,,,,,,,,26,A,2023-09-21_14h45.03.937,exp3,2022.2.2,
low_opac_v,0.4,1,0.01,3,0.82,3.5,0.01,0,0.01,4,5,Valid,0,39,115,start,lin,0.1669425109205626,0,1,0.1669425109205626,1,True,,,,,,,,,,,,,26,A,2023-09-21_14h45.03.937,exp3,2022.2.2,
high_opac_v,0.01,1,0.01,3,0.82,3.5,0.01,0,0.01,4,5,Valid,1,39,116,start,lin,0.4434429219345628,0.4434429219345628,1,0.4434429219345628,1,True,,,,,,,,,,,,,26,A,2023-09-21_14h45.03.937,exp3,2022.2.2,
low_opac_i,0.4,1,0.01,3,0.82,3.5,0.01,0,0.01,4,5,Invalid,2,40,117,start,lin,0.2004266555471858,0,1,0.2004266555471858,1,True,,,,,,,,,,,,,26,A,2023-09-21_14h45.03.937,exp3,2022.2.2,
low_opac_v,0.4,1,0.01,3,0.82,3.5,0.01,0,0.01,4,5,Valid,0,40,118,start,lin,0.16476230677623074,0,1,0.16476230677623074,1,True,,,,,,,,,,,,,26,A,2023-09-21_14h45.03.937,exp3,2022.2.2,
high_opac_v,0.01,1,0.01,3,0.82,3.5,0.01,0,0.01,4,5,Valid,1,40,119,start,lin,0.44106569694023456,0,1,0.44106569694023456,1,True,,,,,,,,,,,,,26,A,2023-09-21_14h45.03.937,exp3,2022.2.2,
high_opac_v,0.01,1,0.01,3,0.82,3.5,0.01,0,0.01,4,5,Valid,1,41,120,start,lin,0.4387580893978633,0.4387580893978633,1,0.4387580893978633,1,True,,,,,,,,,,,,,26,A,2023-09-21_14h45.03.937,exp3,2022.2.2,
low_opac_v,0.4,1,0.01,3,0.82,3.5,0.01,0,0.01,4,5,Valid,0,41,121,start,lin,0.16248916661825616,0.16248916661825616,1,0.16248916661825616,1,True,,,,,,,,,,,,,26,A,2023-09-21_14h45.03.937,exp3,2022.2.2,
low_opac_i,0.4,1,0.01,3,0.82,3.5,0.01,0,0.01,4,5,Invalid,2,41,122,start,lin,0.19813334537819247,0.19813334537819247,1,0.19813334537819247,1,True,,,,,,,,,,,,,26,A,2023-09-21_14h45.03.937,exp3,2022.2.2,
high_opac_v,0.01,1,0.01,3,0.82,3.5,0.01,0,0.01,4,5,Valid,1,42,123,start,lin,0.43658610830724026,0.43658610830724026,1,0.43658610830724026,1,True,,,,,,,,,,,,,26,A,2023-09-21_14h45.03.937,exp3,2022.2.2,
low_opac_v,0.4,1,0.01,3,0.82,3.5,0.01,0,0.01,4,5,Valid,0,42,124,start,lin,0.16027684275046566,0.16027684275046566,1,0.16027684275046566,1,True,,,,,,,,,,,,,26,A,2023-09-21_14h45.03.937,exp3,2022.2.2,
low_opac_i,0.4,1,0.01,3,0.82,3.5,0.01,0,0.01,4,5,Invalid,2,42,125,start,lin,0.19598045566538755,0.19598045566538755,1,0.19598045566538755,1,True,,,,,,,,,,,,,26,A,2023-09-21_14h45.03.937,exp3,2022.2.2,
high_opac_v,0.01,1,0.01,3,0.82,3.5,0.01,0,0.01,4,5,Valid,1,43,126,start,lin,0.43452623666201684,0,0,0.43452623666201684,0,True,,,,,,,,,,,,,26,A,2023-09-21_14h45.03.937,exp3,2022.2.2,
low_opac_i,0.4,1,0.01,3,0.82,3.5,0.01,0,0.01,4,5,Invalid,2,43,127,start,lin,0.19393227820698333,0.19393227820698333,1,0.19393227820698333,1,True,,,,,,,,,,,,,26,A,2023-09-21_14h45.03.937,exp3,2022.2.2,
low_opac_v,0.4,1,0.01,3,0.82,3.5,0.01,0,0.01,4,5,Valid,0,43,128,start,lin,0.15813732638300032,0.15813732638300032,1,0.15813732638300032,1,True,,,,,,,,,,,,,26,A,2023-09-21_14h45.03.937,exp3,2022.2.2,
low_opac_v,0.4,1,0.01,3,0.82,3.5,0.01,0,0.01,4,5,Valid,0,44,129,start,lin,0.1561205617265079,0.1561205617265079,1,0.1561205617265079,1,True,,,,,,,,,,,,,26,A,2023-09-21_14h45.03.937,exp3,2022.2.2,
low_opac_i,0.4,1,0.01,3,0.82,3.5,0.01,0,0.01,4,5,Invalid,2,44,130,start,lin,0.19177954314528411,0.19177954314528411,1,0.19177954314528411,1,True,,,,,,,,,,,,,26,A,2023-09-21_14h45.03.937,exp3,2022.2.2,
high_opac_v,0.01,1,0.01,3,0.82,3.5,0.01,0,0.01,4,5,Valid,1,44,131,start,lin,0.44278170887036794,0,0,0.44278170887036794,0,True,,,,,,,,,,,,,26,A,2023-09-21_14h45.03.937,exp3,2022.2.2,
low_opac_v,0.4,1,0.01,3,0.82,3.5,0.01,0,0.01,4,5,Valid,0,45,132,start,lin,0.15419603766257844,0,1,0.15419603766257844,1,True,,,,,,,,,,,,,26,A,2023-09-21_14h45.03.937,exp3,2022.2.2,
low_opac_i,0.4,1,0.01,3,0.82,3.5,0.01,0,0.01,4,5,Invalid,2,45,133,start,lin,0.18967161873591978,0,1,0.18967161873591978,1,True,,,,,,,,,,,,,26,A,2023-09-21_14h45.03.937,exp3,2022.2.2,
high_opac_v,0.01,1,0.01,3,0.82,3.5,0.01,0,0.01,4,5,Valid,1,45,134,start,lin,0.4508051423375358,0,1,0.4508051423375358,1,True,,,,,,,,,,,,,26,A,2023-09-21_14h45.03.937,exp3,2022.2.2,
low_opac_i,0.4,1,0.01,3,0.82,3.5,0.01,0,0.01,4,5,Invalid,2,46,135,start,lin,0.18765534590258215,0,1,0.18765534590258215,1,True,,,,,,,,,,,,,26,A,2023-09-21_14h45.03.937,exp3,2022.2.2,
low_opac_v,0.4,1,0.01,3,0.82,3.5,0.01,0,0.01,4,5,Valid,0,46,136,start,lin,0.15216905185282126,0.15216905185282126,1,0.15216905185282126,1,True,,,,,,,,,,,,,26,A,2023-09-21_14h45.03.937,exp3,2022.2.2,
high_opac_v,0.01,1,0.01,3,0.82,3.5,0.01,0,0.01,4,5,Valid,1,46,137,start,lin,0.4488072531515239,0.4488072531515239,1,0.4488072531515239,1,True,,,,,,,,,,,,,26,A,2023-09-21_14h45.03.937,exp3,2022.2.2,
low_opac_i,0.4,1,0.01,3,0.82,3.5,0.01,0,0.01,4,5,Invalid,2,47,138,start,lin,0.1857474901421383,0,1,0.1857474901421383,1,True,,,,,,,,,,,,,26,A,2023-09-21_14h45.03.937,exp3,2022.2.2,
high_opac_v,0.01,1,0.01,3,0.82,3.5,0.01,0,0.01,4,5,Valid,1,47,139,start,lin,0.4469229605373729,0,1,0.4469229605373729,1,True,,,,,,,,,,,,,26,A,2023-09-21_14h45.03.937,exp3,2022.2.2,
low_opac_v,0.4,1,0.01,3,0.82,3.5,0.01,0,0.01,4,5,Valid,0,47,140,start,lin,0.15018127763566805,0.15018127763566805,1,0.15018127763566805,1,True,,,,,,,,,,,,,26,A,2023-09-21_14h45.03.937,exp3,2022.2.2,
low_opac_v,0.4,1,0.01,3,0.82,3.5,0.01,0,0.01,4,5,Valid,0,48,141,start,lin,0.1482456084328067,0.1482456084328067,1,0.1482456084328067,1,True,,,,,,,,,,,,,26,A,2023-09-21_14h45.03.937,exp3,2022.2.2,
high_opac_v,0.01,1,0.01,3,0.82,3.5,0.01,0,0.01,4,5,Valid,1,48,142,start,lin,0.4451315230747441,0.4451315230747441,1,0.4451315230747441,1,True,,,,,,,,,,,,,26,A,2023-09-21_14h45.03.937,exp3,2022.2.2,
low_opac_i,0.4,1,0.01,3,0.82,3.5,0.01,0,0.01,4,5,Invalid,2,48,143,start,lin,0.18391972117507582,0,1,0.18391972117507582,1,True,,,,,,,,,,,,,26,A,2023-09-21_14h45.03.937,exp3,2022.2.2,
low_opac_v,0.4,1,0.01,3,0.82,3.5,0.01,0,0.01,4,5,Valid,0,49,144,start,lin,0.14641327233055318,0.14641327233055318,1,0.14641327233055318,1,True,,,,,,,,,,,,,26,A,2023-09-21_14h45.03.937,exp3,2022.2.2,
low_opac_i,0.4,1,0.01,3,0.82,3.5,0.01,0,0.01,4,5,Invalid,2,49,145,start,lin,0.18198763342280044,0.18198763342280044,1,0.18198763342280044,1,True,,,,,,,,,,,,,26,A,2023-09-21_14h45.03.937,exp3,2022.2.2,
high_opac_v,0.01,1,0.01,3,0.82,3.5,0.01,0,0.01,4,5,Valid,1,49,146,start,lin,0.4434081499332135,0.4434081499332135,1,0.4434081499332135,1,True,,,,,,,,,,,,,26,A,2023-09-21_14h45.03.937,exp3,2022.2.2,
low_opac_i,0.4,1,0.01,3,0.82,3.5,0.01,0,0.01,4,5,Invalid,2,50,147,start,lin,0.18008775973794008,0.18008775973794008,1,0.18008775973794008,1,True,,,,,,,,,,,,,26,A,2023-09-21_14h45.03.937,exp3,2022.2.2,
high_opac_v,0.01,1,0.01,3,0.82,3.5,0.01,0,0.01,4,5,Valid,1,50,148,start,lin,0.44157929323896106,0.44157929323896106,1,0.44157929323896106,1,True,,,,,,,,,,,,,26,A,2023-09-21_14h45.03.937,exp3,2022.2.2,
low_opac_v,0.4,1,0.01,3,0.82,3.5,0.01,0,0.01,4,5,Valid,0,50,149,start,lin,0.144659754945958,0.144659754945958,1,0.144659754945958,1,True,,,,,,,,,,,,,26,A,2023-09-21_14h45.03.937,exp3,2022.2.2,
low_opac_i,0.4,1,0.01,3,0.82,3.5,0.01,0,0.01,4,5,Invalid,2,51,150,start,lin,0.17823849554807553,0.17823849554807553,1,0.17823849554807553,1,True,,,,,,,,,,,,,26,A,2023-09-21_14h45.03.937,exp3,2022.2.2,
low_opac_v,0.4,1,0.01,3,0.82,3.5,0.01,0,0.01,4,5,Valid,0,51,151,start,lin,0.14281032081594375,0,0,0.14281032081594375,0,True,,,,,,,,,,,,,26,A,2023-09-21_14h45.03.937,exp3,2022.2.2,
high_opac_v,0.01,1,0.01,3,0.82,3.5,0.01,0,0.01,4,5,Valid,1,51,152,start,lin,0.43977621726140054,0.43977621726140054,1,0.43977621726140054,1,True,,,,,,,,,,,,,26,A,2023-09-21_14h45.03.937,exp3,2022.2.2,
low_opac_i,0.4,1,0.01,3,0.82,3.5,0.01,0,0.01,4,5,Invalid,2,52,153,start,lin,0.17648621719129348,0,1,0.17648621719129348,1,True,,,,,,,,,,,,,26,A,2023-09-21_14h45.03.937,exp3,2022.2.2,
high_opac_v,0.01,1,0.01,3,0.82,3.5,0.01,0,0.01,4,5,Valid,1,52,154,start,lin,0.43804186252513,0.43804186252513,1,0.43804186252513,1,True,,,,,,,,,,,,,26,A,2023-09-21_14h45.03.937,exp3,2022.2.2,
low_opac_v,0.4,1,0.01,3,0.82,3.5,0.01,0,0.01,4,5,Valid,0,52,155,start,lin,0.14985218382260396,0,1,0.14985218382260396,1,True,,,,,,,,,,,,,26,A,2023-09-21_14h45.03.937,exp3,2022.2.2,
low_opac_i,0.4,1,0.01,3,0.82,3.5,0.01,0,0.01,4,5,Invalid,2,53,156,start,lin,0.1748077873605145,0,1,0.1748077873605145,1,True,,,,,,,,,,,,,26,A,2023-09-21_14h45.03.937,exp3,2022.2.2,
high_opac_v,0.01,1,0.01,3,0.82,3.5,0.01,0,0.01,4,5,Valid,1,53,157,start,lin,0.4363965525246696,0,1,0.4363965525246696,1,True,,,,,,,,,,,,,26,A,2023-09-21_14h45.03.937,exp3,2022.2.2,
low_opac_v,0.4,1,0.01,3,0.82,3.5,0.01,0,0.01,4,5,Valid,0,53,158,start,lin,0.1481327625128691,0,1,0.1481327625128691,1,True,,,,,,,,,,,,,26,A,2023-09-21_14h45.03.937,exp3,2022.2.2,
high_opac_v,0.01,1,0.01,3,0.82,3.5,0.01,0,0.01,4,5,Valid,1,54,159,start,lin,0.43481918181445045,0.43481918181445045,1,0.43481918181445045,1,True,,,,,,,,,,,,,26,A,2023-09-21_14h45.03.937,exp3,2022.2.2,
low_opac_i,0.4,1,0.01,3,0.82,3.5,0.01,0,0.01,4,5,Invalid,2,54,160,start,lin,0.17303706738017552,0,1,0.17303706738017552,1,True,,,,,,,,,,,,,26,A,2023-09-21_14h45.03.937,exp3,2022.2.2,
low_opac_v,0.4,1,0.01,3,0.82,3.5,0.01,0,0.01,4,5,Valid,0,54,161,start,lin,0.1464996555737641,0.1464996555737641,1,0.1464996555737641,1,True,,,,,,,,,,,,,26,A,2023-09-21_14h45.03.937,exp3,2022.2.2,
low_opac_v,0.4,1,0.01,3,0.82,3.5,0.01,0,0.01,4,5,Valid,0,55,162,start,lin,0.14493240550548087,0,1,0.14493240550548087,1,True,,,,,,,,,,,,,26,A,2023-09-21_14h45.03.937,exp3,2022.2.2,
low_opac_i,0.4,1,0.01,3,0.82,3.5,0.01,0,0.01,4,5,Invalid,2,55,163,start,lin,0.1713007715535636,0.1713007715535636,1,0.1713007715535636,1,True,,,,,,,,,,,,,26,A,2023-09-21_14h45.03.937,exp3,2022.2.2,
high_opac_v,0.01,1,0.01,3,0.82,3.5,0.01,0,0.01,4,5,Valid,1,55,164,start,lin,0.43315494982944636,0,1,0.43315494982944636,1,True,,,,,,,,,,,,,26,A,2023-09-21_14h45.03.937,exp3,2022.2.2,
high_opac_v,0.01,1,0.01,3,0.82,3.5,0.01,0,0.01,4,5,Valid,1,56,165,start,lin,0.43152389566257937,0,1,0.43152389566257937,1,True,,,,,,,,,,,,,26,A,2023-09-21_14h45.03.937,exp3,2022.2.2,
low_opac_i,0.4,1,0.01,3,0.82,3.5,0.01,0,0.01,4,5,Invalid,2,56,166,start,lin,0.16957730367205956,0.16957730367205956,1,0.16957730367205956,1,True,,,,,,,,,,,,,26,A,2023-09-21_14h45.03.937,exp3,2022.2.2,
low_opac_v,0.4,1,0.01,3,0.82,3.5,0.01,0,0.01,4,5,Valid,0,56,167,start,lin,0.1432772612876056,0,1,0.1432772612876056,1,True,,,,,,,,,,,,,26,A,2023-09-21_14h45.03.937,exp3,2022.2.2,
low_opac_v,0.4,1,0.01,3,0.82,3.5,0.01,0,0.01,4,5,Valid,0,57,168,start,lin,0.14165389828553293,0.14165389828553293,1,0.14165389828553293,1,True,,,,,,,,,,,,,26,A,2023-09-21_14h45.03.937,exp3,2022.2.2,
low_opac_i,0.4,1,0.01,3,0.82,3.5,0.01,0,0.01,4,5,Invalid,2,57,169,start,lin,0.16791120446430263,0,1,0.16791120446430263,1,True,,,,,,,,,,,,,26,A,2023-09-21_14h45.03.937,exp3,2022.2.2,
high_opac_v,0.01,1,0.01,3,0.82,3.5,0.01,0,0.01,4,5,Valid,1,57,170,start,lin,0.42990704751284464,0,1,0.42990704751284464,1,True,,,,,,,,,,,,,26,A,2023-09-21_14h45.03.937,exp3,2022.2.2,
high_opac_v,0.01,1,0.01,3,0.82,3.5,0.01,0,0.01,4,5,Valid,1,58,171,start,lin,0.4283353660506319,0,1,0.4283353660506319,1,True,,,,,,,,,,,,,26,A,2023-09-21_14h45.03.937,exp3,2022.2.2,
low_opac_i,0.4,1,0.01,3,0.82,3.5,0.01,0,0.01,4,5,Invalid,2,58,172,start,lin,0.16632334393213752,0.16632334393213752,0,0.16632334393213752,0,True,,,,,,,,,,,,,26,A,2023-09-21_14h45.03.937,exp3,2022.2.2,
low_opac_v,0.4,1,0.01,3,0.82,3.5,0.01,0,0.01,4,5,Valid,0,58,173,start,lin,0.140043887353199,0.140043887353199,0,0.140043887353199,0,True,,,,,,,,,,,,,26,A,2023-09-21_14h45.03.937,exp3,2022.2.2,
low_opac_i,0.4,1,0.01,3,0.82,3.5,0.01,0,0.01,4,5,Invalid,2,59,174,start,lin,0.17306789164867717,0,1,0.17306789164867717,1,True,,,,,,,,,,,,,26,A,2023-09-21_14h45.03.937,exp3,2022.2.2,
high_opac_v,0.01,1,0.01,3,0.82,3.5,0.01,0,0.01,4,5,Valid,1,59,175,start,lin,0.4268408070262577,0.4268408070262577,1,0.4268408070262577,1,True,,,,,,,,,,,,,26,A,2023-09-21_14h45.03.937,exp3,2022.2.2,
low_opac_v,0.4,1,0.01,3,0.82,3.5,0.01,0,0.01,4,5,Valid,0,59,176,start,lin,0.14630898428986,0.14630898428986,0,0.14630898428986,0,True,,,,,,,,,,,,,26,A,2023-09-21_14h45.03.937,exp3,2022.2.2,
low_opac_v,0.4,1,0.01,3,0.82,3.5,0.01,0,0.01,4,5,Valid,0,60,177,start,lin,0.15258421846849307,0,1,0.15258421846849307,1,True,,,,,,,,,,,,,26,A,2023-09-21_14h45.03.937,exp3,2022.2.2,
low_opac_i,0.4,1,0.01,3,0.82,3.5,0.01,0,0.01,4,5,Invalid,2,60,178,start,lin,0.1715061609422459,0.1715061609422459,1,0.1715061609422459,1,True,,,,,,,,,,,,,26,A,2023-09-21_14h45.03.937,exp3,2022.2.2,
high_opac_v,0.01,1,0.01,3,0.82,3.5,0.01,0,0.01,4,5,Valid,1,60,179,start,lin,0.4254061792223471,0,1,0.4254061792223471,1,True,,,,,,,,,,,,,26,A,2023-09-21_14h45.03.937,exp3,2022.2.2,
high_opac_v,0.01,1,0.01,3,0.82,3.5,0.01,0,0.01,4,5,Valid,1,61,180,start,lin,0.4240163004104493,0.4240163004104493,1,0.4240163004104493,1,True,,,,,,,,,,,,,26,A,2023-09-21_14h45.03.937,exp3,2022.2.2,
low_opac_v,0.4,1,0.01,3,0.82,3.5,0.01,0,0.01,4,5,Valid,0,61,181,start,lin,0.15111922842205777,0,1,0.15111922842205777,1,True,,,,,,,,,,,,,26,A,2023-09-21_14h45.03.937,exp3,2022.2.2,
low_opac_i,0.4,1,0.01,3,0.82,3.5,0.01,0,0.01,4,5,Invalid,2,61,182,start,lin,0.16995388193499716,0,1,0.16995388193499716,1,True,,,,,,,,,,,,,26,A,2023-09-21_14h45.03.937,exp3,2022.2.2,
high_opac_v,0.01,1,0.01,3,0.82,3.5,0.01,0,0.01,4,5,Valid,1,62,183,start,lin,0.42253459117160885,0.42253459117160885,1,0.42253459117160885,1,True,,,,,,,,,,,,,26,A,2023-09-21_14h45.03.937,exp3,2022.2.2,
low_opac_v,0.4,1,0.01,3,0.82,3.5,0.01,0,0.01,4,5,Valid,0,62,184,start,lin,0.14965957165964322,0.14965957165964322,1,0.14965957165964322,1,True,,,,,,,,,,,,,26,A,2023-09-21_14h45.03.937,exp3,2022.2.2,
low_opac_i,0.4,1,0.01,3,0.82,3.5,0.01,0,0.01,4,5,Invalid,2,62,185,start,lin,0.16843293597128323,0.16843293597128323,1,0.16843293597128323,1,True,,,,,,,,,,,,,26,A,2023-09-21_14h45.03.937,exp3,2022.2.2,
low_opac_v,0.4,1,0.01,3,0.82,3.5,0.01,0,0.01,4,5,Valid,0,63,186,start,lin,0.14824788644870662,0.14824788644870662,1,0.14824788644870662,1,True,,,,,,,,,,,,,26,A,2023-09-21_14h45.03.937,exp3,2022.2.2,
high_opac_v,0.01,1,0.01,3,0.82,3.5,0.01,0,0.01,4,5,Valid,1,63,187,start,lin,0.42107033738546873,0.42107033738546873,1,0.42107033738546873,1,True,,,,,,,,,,,,,26,A,2023-09-21_14h45.03.937,exp3,2022.2.2,
low_opac_i,0.4,1,0.01,3,0.82,3.5,0.01,0,0.01,4,5,Invalid,2,63,188,start,lin,0.16698419519973456,0,1,0.16698419519973456,1,True,,,,,,,,,,,,,26,A,2023-09-21_14h45.03.937,exp3,2022.2.2,
high_opac_v,0.01,1,0.01,3,0.82,3.5,0.01,0,0.01,4,5,Valid,1,64,189,start,lin,0.419609073851917,0,1,0.419609073851917,1,True,,,,,,,,,,,,,26,A,2023-09-21_14h45.03.937,exp3,2022.2.2,
low_opac_i,0.4,1,0.01,3,0.82,3.5,0.01,0,0.01,4,5,Invalid,2,64,190,start,lin,0.16559176115359672,0.16559176115359672,1,0.16559176115359672,1,True,,,,,,,,,,,,,26,A,2023-09-21_14h45.03.937,exp3,2022.2.2,
low_opac_v,0.4,1,0.01,3,0.82,3.5,0.01,0,0.01,4,5,Valid,0,64,191,start,lin,0.14690093687170297,0.14690093687170297,1,0.14690093687170297,1,True,,,,,,,,,,,,,26,A,2023-09-21_14h45.03.937,exp3,2022.2.2,
low_opac_v,0.4,1,0.01,3,0.82,3.5,0.01,0,0.01,4,5,Valid,0,65,192,start,lin,0.14560490073112042,0.14560490073112042,1,0.14560490073112042,1,True,,,,,,,,,,,,,26,A,2023-09-21_14h45.03.937,exp3,2022.2.2,
low_opac_i,0.4,1,0.01,3,0.82,3.5,0.01,0,0.01,4,5,Invalid,2,65,193,start,lin,0.1642415097998161,0.1642415097998161,1,0.1642415097998161,1,True,,,,,,,,,,,,,26,A,2023-09-21_14h45.03.937,exp3,2022.2.2,
high_opac_v,0.01,1,0.01,3,0.82,3.5,0.01,0,0.01,4,5,Valid,1,65,194,start,lin,0.4181936426978465,0.4181936426978465,1,0.4181936426978465,1,True,,,,,,,,,,,,,26,A,2023-09-21_14h45.03.937,exp3,2022.2.2,
low_opac_v,0.4,1,0.01,3,0.82,3.5,0.01,0,0.01,4,5,Valid,0,66,195,start,lin,0.14434745859914833,0.14434745859914833,1,0.14434745859914833,1,True,,,,,,,,,,,,,26,A,2023-09-21_14h45.03.937,exp3,2022.2.2,
high_opac_v,0.01,1,0.01,3,0.82,3.5,0.01,0,0.01,4,5,Valid,1,66,196,start,lin,0.41684163370132427,0.41684163370132427,1,0.41684163370132427,1,True,,,,,,,,,,,,,26,A,2023-09-21_14h45.03.937,exp3,2022.2.2,
low_opac_i,0.4,1,0.01,3,0.82,3.5,0.01,0,0.01,4,5,Invalid,2,66,197,start,lin,0.16280117268170316,0,1,0.16280117268170316,1,True,,,,,,,,,,,,,26,A,2023-09-21_14h45.03.937,exp3,2022.2.2,
high_opac_v,0.01,1,0.01,3,0.82,3.5,0.01,0,0.01,4,5,Valid,1,67,198,start,lin,0.4155392868278428,0.4155392868278428,1,0.4155392868278428,1,True,,,,,,,,,,,,,26,A,2023-09-21_14h45.03.937,exp3,2022.2.2,
low_opac_v,0.4,1,0.01,3,0.82,3.5,0.01,0,0.01,4,5,Valid,0,67,199,start,lin,0.14300654032005672,0,1,0.14300654032005672,1,True,,,,,,,,,,,,,26,A,2023-09-21_14h45.03.937,exp3,2022.2.2,
low_opac_i,0.4,1,0.01,3,0.82,3.5,0.01,0,0.01,4,5,Invalid,2,67,200,start,lin,0.16137741669366173,0.16137741669366173,1,0.16137741669366173,1,True,,,,,,,,,,,,,26,A,2023-09-21_14h45.03.937,exp3,2022.2.2,
high_opac_v,0.01,1,0.01,3,0.82,3.5,0.01,0,0.01,4,5,Valid,1,68,201,start,lin,0.41427430327742226,0.41427430327742226,1,0.41427430327742226,1,True,,,,,,,,,,,,,26,A,2023-09-21_14h45.03.937,exp3,2022.2.2,
low_opac_v,0.4,1,0.01,3,0.82,3.5,0.01,0,0.01,4,5,Valid,0,68,202,start,lin,0.1416821634879094,0.1416821634879094,0,0.1416821634879094,0,True,,,,,,,,,,,,,26,A,2023-09-21_14h45.03.937,exp3,2022.2.2,
low_opac_i,0.4,1,0.01,3,0.82,3.5,0.01,0,0.01,4,5,Invalid,2,68,203,start,lin,0.15995595554293107,0,1,0.15995595554293107,1,True,,,,,,,,,,,,,26,A,2023-09-21_14h45.03.937,exp3,2022.2.2,
low_opac_i,0.4,1,0.01,3,0.82,3.5,0.01,0,0.01,4,5,Invalid,2,69,204,start,lin,0.15855298111601082,0,1,0.15855298111601082,1,True,,,,,,,,,,,,,26,A,2023-09-21_14h45.03.937,exp3,2022.2.2,
low_opac_v,0.4,1,0.01,3,0.82,3.5,0.01,0,0.01,4,5,Valid,0,69,205,start,lin,0.14680618758549513,0.14680618758549513,1,0.14680618758549513,1,True,,,,,,,,,,,,,26,A,2023-09-21_14h45.03.937,exp3,2022.2.2,
high_opac_v,0.01,1,0.01,3,0.82,3.5,0.01,0,0.01,4,5,Valid,1,69,206,start,lin,0.41292348270218776,0,1,0.41292348270218776,1,True,,,,,,,,,,,,,26,A,2023-09-21_14h45.03.937,exp3,2022.2.2,
high_opac_v,0.01,1,0.01,3,0.82,3.5,0.01,0,0.01,4,5,Valid,1,70,207,start,lin,0.4115876074769709,0.4115876074769709,1,0.4115876074769709,1,True,,,,,,,,,,,,,26,A,2023-09-21_14h45.03.937,exp3,2022.2.2,
low_opac_v,0.4,1,0.01,3,0.82,3.5,0.01,0,0.01,4,5,Valid,0,70,208,start,lin,0.14561689551723844,0.14561689551723844,1,0.14561689551723844,1,True,,,,,,,,,,,,,26,A,2023-09-21_14h45.03.937,exp3,2022.2.2,
low_opac_i,0.4,1,0.01,3,0.82,3.5,0.01,0,0.01,4,5,Invalid,2,70,209,start,lin,0.15721326809599034,0.15721326809599034,1,0.15721326809599034,1,True,,,,,,,,,,,,,26,A,2023-09-21_14h45.03.937,exp3,2022.2.2,
low_opac_i,0.4,1,0.01,3,0.82,3.5,0.01,0,0.01,4,5,Invalid,2,71,210,start,lin,0.15592342592614178,0,1,0.15592342592614178,1,True,,,,,,,,,,,,,26,A,2023-09-21_14h45.03.937,exp3,2022.2.2,
low_opac_v,0.4,1,0.01,3,0.82,3.5,0.01,0,0.01,4,5,Valid,0,71,211,start,lin,0.14446093102525254,0,1,0.14446093102525254,1,True,,,,,,,,,,,,,26,A,2023-09-21_14h45.03.937,exp3,2022.2.2,
high_opac_v,0.01,1,0.01,3,0.82,3.5,0.01,0,0.01,4,5,Valid,1,71,212,start,lin,0.41025452087616743,0.41025452087616743,1,0.41025452087616743,1,True,,,,,,,,,,,,,26,A,2023-09-21_14h45.03.937,exp3,2022.2.2,
high_opac_v,0.01,1,0.01,3,0.82,3.5,0.01,0,0.01,4,5,Valid,1,72,213,start,lin,0.40892658044653923,0.40892658044653923,1,0.40892658044653923,1,True,,,,,,,,,,,,,26,A,2023-09-21_14h45.03.937,exp3,2022.2.2,
low_opac_v,0.4,1,0.01,3,0.82,3.5,0.01,0,0.01,4,5,Valid,0,72,214,start,lin,0.14322691141342525,0.14322691141342525,1,0.14322691141342525,1,True,,,,,,,,,,,,,26,A,2023-09-21_14h45.03.937,exp3,2022.2.2,
low_opac_i,0.4,1,0.01,3,0.82,3.5,0.01,0,0.01,4,5,Invalid,2,72,215,start,lin,0.15467145643499192,0.15467145643499192,1,0.15467145643499192,1,True,,,,,,,,,,,,,26,A,2023-09-21_14h45.03.937,exp3,2022.2.2,
low_opac_v,0.4,1,0.01,3,0.82,3.5,0.01,0,0.01,4,5,Valid,0,73,216,start,lin,0.14200769402139052,0.14200769402139052,1,0.14200769402139052,1,True,,,,,,,,,,,,,26,A,2023-09-21_14h45.03.937,exp3,2022.2.2,
high_opac_v,0.01,1,0.01,3,0.82,3.5,0.01,0,0.01,4,5,Valid,1,73,217,start,lin,0.40765543601810467,0.40765543601810467,1,0.40765543601810467,1,True,,,,,,,,,,,,,26,A,2023-09-21_14h45.03.937,exp3,2022.2.2,
low_opac_i,0.4,1,0.01,3,0.82,3.5,0.01,0,0.01,4,5,Invalid,2,73,218,start,lin,0.15333590955238152,0,0,0.15333590955238152,0,True,,,,,,,,,,,,,26,A,2023-09-21_14h45.03.937,exp3,2022.2.2,
high_opac_v,0.01,1,0.01,3,0.82,3.5,0.01,0,0.01,4,5,Valid,1,74,219,start,lin,0.40643351277386247,0.40643351277386247,1,0.40643351277386247,1,True,,,,,,,,,,,,,26,A,2023-09-21_14h45.03.937,exp3,2022.2.2,
low_opac_i,0.4,1,0.01,3,0.82,3.5,0.01,0,0.01,4,5,Invalid,2,74,220,start,lin,0.15845799580083458,0.15845799580083458,1,0.15845799580083458,1,True,,,,,,,,,,,,,26,A,2023-09-21_14h45.03.937,exp3,2022.2.2,
low_opac_v,0.4,1,0.01,3,0.82,3.5,0.01,0,0.01,4,5,Valid,0,74,221,start,lin,0.14079302650436365,0,1,0.14079302650436365,1,True,,,,,,,,,,,,,26,A,2023-09-21_14h45.03.937,exp3,2022.2.2,
low_opac_v,0.4,1,0.01,3,0.82,3.5,0.01,0,0.01,4,5,Valid,0,75,222,start,lin,0.13957410527344216,0,0,0.13957410527344216,0,True,,,,,,,,,,,,,26,A,2023-09-21_14h45.03.937,exp3,2022.2.2,
high_opac_v,0.01,1,0.01,3,0.82,3.5,0.01,0,0.01,4,5,Valid,1,75,223,start,lin,0.4052499055452459,0.4052499055452459,1,0.4052499055452459,1,True,,,,,,,,,,,,,26,A,2023-09-21_14h45.03.937,exp3,2022.2.2,
low_opac_i,0.4,1,0.01,3,0.82,3.5,0.01,0,0.01,4,5,Invalid,2,75,224,start,lin,0.1572276178808989,0.1572276178808989,0,0.1572276178808989,0,True,,,,,,,,,,,,,26,A,2023-09-21_14h45.03.937,exp3,2022.2.2,
,,,,,,,,,,,,,,,,,,,,,,,,0,-1716,Valid,noise,-45,2,8.226862900075503,1,2.0,16.282441699993797,True,2,26,A,2023-09-21_14h45.03.937,exp3,2022.2.2,
,,,,,,,,,,,,,,,,,,,,,,,,0,1158,Valid,noise,45,2,5.672541599953547,1,3.0,6.980681899935007,True,1,26,A,2023-09-21_14h45.03.937,exp3,2022.2.2,
,,,,,,,,,,,,,,,,,,,,,,,,0,-2274,Valid,signal,45,2,2.9223368000239134,0,3.0,4.23039359995164,True,1,26,A,2023-09-21_14h45.03.937,exp3,2022.2.2,
,,,,,,,,,,,,,,,,,,,,,,,,0,-557,Valid,noise,45,2,2.771753199980594,1,3.0,4.079943899996579,True,1,26,A,2023-09-21_14h45.03.937,exp3,2022.2.2,
,,,,,,,,,,,,,,,,,,,,,,,,0,2274,Valid,signal,45,1,6.239818300004117,1,1.0,7.547925700084306,True,1,26,A,2023-09-21_14h45.03.937,exp3,2022.2.2,
,,,,,,,,,,,,,,,,,,,,,,,,0,1716,Valid,signal,45,1,3.3056304999627173,1,3.0,4.613660100032575,True,1,26,A,2023-09-21_14h45.03.937,exp3,2022.2.2,
,,,,,,,,,,,,,,,,,,,,,,,,0,-557,Valid,signal,45,1,2.955855199950747,1,3.0,4.263682599994354,True,1,26,A,2023-09-21_14h45.03.937,exp3,2022.2.2,
,,,,,,,,,,,,,,,,,,,,,,,,0,1716,Valid,noise,-45,2,3.0730603999691084,1,2.0,4.380634899949655,True,1,26,A,2023-09-21_14h45.03.937,exp3,2022.2.2,
,,,,,,,,,,,,,,,,,,,,,,,,0,-557,Valid,signal,45,1,8.240807699970901,1,2.0,9.548678299994208,True,1,26,A,2023-09-21_14h45.03.937,exp3,2022.2.2,
,,,,,,,,,,,,,,,,,,,,,,,,0,-1158,Valid,noise,45,2,3.0713067000033334,1,1.0,4.379244499956258,True,1,26,A,2023-09-21_14h45.03.937,exp3,2022.2.2,
,,,,,,,,,,,,,,,,,,,,,,,,0,-1158,Valid,signal,45,1,3.439590899972245,1,3.0,4.74732490000315,True,1,26,A,2023-09-21_14h45.03.937,exp3,2022.2.2,
,,,,,,,,,,,,,,,,,,,,,,,,0,-1158,Valid,signal,45,1,2.155412400024943,1,3.0,3.463152200100012,True,1,26,A,2023-09-21_14h45.03.937,exp3,2022.2.2,
,,,,,,,,,,,,,,,,,,,,,,,,0,-1716,Valid,noise,45,2,1.6212995999958366,1,2.0,2.9291769000701606,True,1,26,A,2023-09-21_14h45.03.937,exp3,2022.2.2,
,,,,,,,,,,,,,,,,,,,,,,,,0,2274,Valid,noise,-45,2,1.955112800002098,1,1.0,3.2630150999175385,True,1,26,A,2023-09-21_14h45.03.937,exp3,2022.2.2,
,,,,,,,,,,,,,,,,,,,,,,,,0,-1158,Valid,signal,45,1,1.572160700103268,1,3.0,2.879905700101517,True,1,26,A,2023-09-21_14h45.03.937,exp3,2022.2.2,
,,,,,,,,,,,,,,,,,,,,,,,,0,-557,Invalid,signal,45,1,3.205010199919343,1,3.0,4.512948399991728,True,1,26,A,2023-09-21_14h45.03.937,exp3,2022.2.2,
,,,,,,,,,,,,,,,,,,,,,,,,0,-557,Valid,signal,45,1,2.088773800060153,1,3.0,3.396647199988365,True,1,26,A,2023-09-21_14h45.03.937,exp3,2022.2.2,
,,,,,,,,,,,,,,,,,,,,,,,,0,-557,Valid,noise,-45,2,1.8555160999530926,1,3.0,3.1631157000083476,True,1,26,A,2023-09-21_14h45.03.937,exp3,2022.2.2,
,,,,,,,,,,,,,,,,,,,,,,,,0,1158,Valid,noise,45,2,2.538469500024803,1,3.0,3.8463807000080124,True,1,26,A,2023-09-21_14h45.03.937,exp3,2022.2.2,
,,,,,,,,,,,,,,,,,,,,,,,,0,1716,Valid,noise,45,2,2.088653599959798,1,3.0,3.396453100023791,True,1,26,A,2023-09-21_14h45.03.937,exp3,2022.2.2,
,,,,,,,,,,,,,,,,,,,,,,,,0,1716,Valid,noise,45,2,1.6050669000251219,1,3.0,2.9129000999964774,True,1,26,A,2023-09-21_14h45.03.937,exp3,2022.2.2,
,,,,,,,,,,,,,,,,,,,,,,,,0,1158,Valid,signal,-45,1,2.6553550000535324,1,2.0,3.963347400072962,True,1,26,A,2023-09-21_14h45.03.937,exp3,2022.2.2,
,,,,,,,,,,,,,,,,,,,,,,,,0,-2274,Valid,signal,-45,2,2.0894009999465197,0,2.0,3.397027099970728,True,1,26,A,2023-09-21_14h45.03.937,exp3,2022.2.2,
,,,,,,,,,,,,,,,,,,,,,,,,0,1716,Valid,signal,-45,1,2.4383924999274313,1,2.0,3.7461461999919266,True,1,26,A,2023-09-21_14h45.03.937,exp3,2022.2.2,
,,,,,,,,,,,,,,,,,,,,,,,,0,2274,Valid,signal,45,1,2.405380200012587,1,2.0,3.713250400032848,True,1,26,A,2023-09-21_14h45.03.937,exp3,2022.2.2,
,,,,,,,,,,,,,,,,,,,,,,,,0,1716,Invalid,noise,45,2,2.1555355999153107,1,2.0,3.4631734000286087,True,1,26,A,2023-09-21_14h45.03.937,exp3,2022.2.2,
,,,,,,,,,,,,,,,,,,,,,,,,0,557,Invalid,noise,-45,2,3.506133500020951,1,2.0,4.813708600006066,True,1,26,A,2023-09-21_14h45.03.937,exp3,2022.2.2,
,,,,,,,,,,,,,,,,,,,,,,,,0,557,Valid,noise,-45,2,2.088074399973266,1,2.0,3.3960274000419304,True,1,26,A,2023-09-21_14h45.03.937,exp3,2022.2.2,
,,,,,,,,,,,,,,,,,,,,,,,,0,-557,Valid,signal,45,1,6.2237287000752985,1,3.0,7.531760299927555,True,1,26,A,2023-09-21_14h45.03.937,exp3,2022.2.2,
,,,,,,,,,,,,,,,,,,,,,,,,0,-2274,Valid,signal,45,2,6.657301599974744,0,2.0,7.965214900090359,True,1,26,A,2023-09-21_14h45.03.937,exp3,2022.2.2,
,,,,,,,,,,,,,,,,,,,,,,,,0,-557,Valid,signal,45,1,2.0881373999873176,1,3.0,3.3960788999684155,True,1,26,A,2023-09-21_14h45.03.937,exp3,2022.2.2,
,,,,,,,,,,,,,,,,,,,,,,,,0,1716,Valid,noise,-45,2,2.78898890002165,1,2.0,4.096730399993248,True,1,26,A,2023-09-21_14h45.03.937,exp3,2022.2.2,
,,,,,,,,,,,,,,,,,,,,,,,,0,-1158,Valid,signal,-45,1,2.738771899952553,1,3.0,4.046572500024922,True,1,26,A,2023-09-21_14h45.03.937,exp3,2022.2.2,
,,,,,,,,,,,,,,,,,,,,,,,,0,1716,Valid,signal,-45,1,2.03892049996648,1,3.0,3.3465183000080287,True,1,26,A,2023-09-21_14h45.03.937,exp3,2022.2.2,
,,,,,,,,,,,,,,,,,,,,,,,,0,1716,Valid,signal,-45,1,1.3706844000844285,1,3.0,2.6786169999977574,True,1,26,A,2023-09-21_14h45.03.937,exp3,2022.2.2,
,,,,,,,,,,,,,,,,,,,,,,,,0,2274,Valid,signal,45,1,1.6053021000698209,1,3.0,2.9132506999885663,True,1,26,A,2023-09-21_14h45.03.937,exp3,2022.2.2,
,,,,,,,,,,,,,,,,,,,,,,,,0,1716,Valid,signal,-45,1,1.0379537000553682,1,3.0,2.345858099986799,True,1,26,A,2023-09-21_14h45.03.937,exp3,2022.2.2,
,,,,,,,,,,,,,,,,,,,,,,,,0,-557,Valid,noise,45,2,2.1225197999738157,1,2.0,3.4303525999421254,True,1,26,A,2023-09-21_14h45.03.937,exp3,2022.2.2,
,,,,,,,,,,,,,,,,,,,,,,,,0,-1716,Valid,signal,45,1,1.6209229999221861,1,3.0,2.928863500012085,True,1,26,A,2023-09-21_14h45.03.937,exp3,2022.2.2,
,,,,,,,,,,,,,,,,,,,,,,,,0,1158,Valid,signal,45,1,1.8419066000496969,1,3.0,7.14843820000533,True,3,26,A,2023-09-21_14h45.03.937,exp3,2022.2.2,
,,,,,,,,,,,,,,,,,,,,,,,,0,2274,Valid,signal,45,2,3.022211200091988,0,1.0,4.330101600033231,True,1,26,A,2023-09-21_14h45.03.937,exp3,2022.2.2,
,,,,,,,,,,,,,,,,,,,,,,,,0,-2274,Valid,signal,45,2,4.6389997999649495,0,1.0,5.946930499980226,True,1,26,A,2023-09-21_14h45.03.937,exp3,2022.2.2,
,,,,,,,,,,,,,,,,,,,,,,,,0,-1716,Valid,noise,45,2,2.5057083000428975,1,1.0,3.8133270000107586,True,1,26,A,2023-09-21_14h45.03.937,exp3,2022.2.2,
,,,,,,,,,,,,,,,,,,,,,,,,0,557,Valid,signal,-45,1,2.838707900024019,1,2.0,4.1466877000639215,True,1,26,A,2023-09-21_14h45.03.937,exp3,2022.2.2,
,,,,,,,,,,,,,,,,,,,,,,,,0,-557,Valid,noise,-45,2,2.839769700076431,1,2.0,4.147359699942172,True,1,26,A,2023-09-21_14h45.03.937,exp3,2022.2.2,
,,,,,,,,,,,,,,,,,,,,,,,,0,-1158,Valid,noise,-45,2,2.4379515999462456,1,2.0,3.7457774999784306,True,1,26,A,2023-09-21_14h45.03.937,exp3,2022.2.2,
,,,,,,,,,,,,,,,,,,,,,,,,0,557,Valid,noise,-45,2,2.9558637000154704,1,2.0,4.263698700000532,True,1,26,A,2023-09-21_14h45.03.937,exp3,2022.2.2,
,,,,,,,,,,,,,,,,,,,,,,,,0,557,Valid,noise,45,2,1.987980099976994,1,3.0,3.295968999969773,True,1,26,A,2023-09-21_14h45.03.937,exp3,2022.2.2,
,,,,,,,,,,,,,,,,,,,,,,,,0,-2274,Invalid,signal,-45,2,3.189346200088039,0,1.0,4.4971011999296024,True,1,26,A,2023-09-21_14h45.03.937,exp3,2022.2.2,
,,,,,,,,,,,,,,,,,,,,,,,,0,-2274,Valid,signal,45,2,2.1846662999596447,0,1.0,6.6141721999738365,True,2,26,A,2023-09-21_14h45.03.937,exp3,2022.2.2,
,,,,,,,,,,,,,,,,,,,,,,,,0,1158,Valid,noise,45,2,4.822864899993874,1,1.0,6.13064420002047,True,1,26,A,2023-09-21_14h45.03.937,exp3,2022.2.2,
,,,,,,,,,,,,,,,,,,,,,,,,0,1716,Valid,signal,45,1,3.289119200082496,1,2.0,4.597030499950051,True,1,26,A,2023-09-21_14h45.03.937,exp3,2022.2.2,
,,,,,,,,,,,,,,,,,,,,,,,,0,-1158,Valid,noise,-45,2,2.75582319998648,1,2.0,4.06371440005023,True,1,26,A,2023-09-21_14h45.03.937,exp3,2022.2.2,
,,,,,,,,,,,,,,,,,,,,,,,,0,-1158,Valid,noise,-45,2,2.304987500072457,1,2.0,3.612931100069545,True,1,26,A,2023-09-21_14h45.03.937,exp3,2022.2.2,
,,,,,,,,,,,,,,,,,,,,,,,,0,557,Valid,signal,-45,1,2.054859000025317,1,3.0,3.3626577999675646,True,1,26,A,2023-09-21_14h45.03.937,exp3,2022.2.2,
,,,,,,,,,,,,,,,,,,,,,,,,0,1158,Valid,noise,45,2,2.572561000008136,1,2.0,3.8803868999239057,True,1,26,A,2023-09-21_14h45.03.937,exp3,2022.2.2,
,,,,,,,,,,,,,,,,,,,,,,,,0,-1716,Valid,noise,45,2,3.855345399933867,1,2.0,5.163419699994847,True,1,26,A,2023-09-21_14h45.03.937,exp3,2022.2.2,
,,,,,,,,,,,,,,,,,,,,,,,,0,1716,Invalid,signal,45,2,4.439958099974319,0,1.0,5.74778440000955,True,1,26,A,2023-09-21_14h45.03.937,exp3,2022.2.2,
,,,,,,,,,,,,,,,,,,,,,,,,0,557,Valid,noise,-45,2,5.155569600057788,1,3.0,6.463738800026476,True,1,26,A,2023-09-21_14h45.03.937,exp3,2022.2.2,
,,,,,,,,,,,,,,,,,,,,,,,,0,2274,Valid,noise,-45,2,2.3392177999485284,1,1.0,3.646950700087473,True,1,26,A,2023-09-21_14h45.03.937,exp3,2022.2.2,
,,,,,,,,,,,,,,,,,,,,,,,,0,557,Valid,signal,45,1,1.471469399984926,1,3.0,2.779204100021161,True,1,26,A,2023-09-21_14h45.03.937,exp3,2022.2.2,
,,,,,,,,,,,,,,,,,,,,,,,,0,-2274,Invalid,noise,45,2,1.437996600056067,1,3.0,2.7457304999697953,True,1,26,A,2023-09-21_14h45.03.937,exp3,2022.2.2,
,,,,,,,,,,,,,,,,,,,,,,,,0,557,Invalid,signal,45,1,2.811626199982129,1,3.0,7.3475824999623,True,2,26,A,2023-09-21_14h45.03.937,exp3,2022.2.2,
,,,,,,,,,,,,,,,,,,,,,,,,0,-1716,Valid,signal,-45,1,2.688841999974102,1,3.0,3.997015399974771,True,1,26,A,2023-09-21_14h45.03.937,exp3,2022.2.2,
,,,,,,,,,,,,,,,,,,,,,,,,0,-1716,Valid,signal,-45,1,1.304734000004828,1,3.0,2.6129658999852836,True,1,26,A,2023-09-21_14h45.03.937,exp3,2022.2.2,
,,,,,,,,,,,,,,,,,,,,,,,,0,1158,Invalid,signal,-45,1,1.1051099000032991,1,3.0,2.4127570000709966,True,1,26,A,2023-09-21_14h45.03.937,exp3,2022.2.2,
,,,,,,,,,,,,,,,,,,,,,,,,0,2274,Valid,noise,45,2,3.5891522999154404,1,1.0,4.89706109999679,True,1,26,A,2023-09-21_14h45.03.937,exp3,2022.2.2,
,,,,,,,,,,,,,,,,,,,,,,,,0,-557,Valid,noise,-45,2,3.701394599978812,1,2.0,11.416030199965462,True,4,26,A,2023-09-21_14h45.03.937,exp3,2022.2.2,
,,,,,,,,,,,,,,,,,,,,,,,,0,-1158,Valid,noise,-45,2,2.872946099960245,1,3.0,4.180813700077124,True,1,26,A,2023-09-21_14h45.03.937,exp3,2022.2.2,
,,,,,,,,,,,,,,,,,,,,,,,,0,1716,Valid,noise,45,2,3.428897300036624,1,3.0,7.664344900054857,True,2,26,A,2023-09-21_14h45.03.937,exp3,2022.2.2,
,,,,,,,,,,,,,,,,,,,,,,,,0,1716,Valid,signal,45,1,3.4554679000284523,1,2.0,4.763389199972153,True,1,26,A,2023-09-21_14h45.03.937,exp3,2022.2.2,
,,,,,,,,,,,,,,,,,,,,,,,,0,-557,Valid,signal,-45,1,2.596056800102815,1,3.0,6.648385499953292,True,2,26,A,2023-09-21_14h45.03.937,exp3,2022.2.2,
,,,,,,,,,,,,,,,,,,,,,,,,0,-1158,Valid,noise,-45,2,1.8712575000245124,1,3.0,3.1790821000467986,True,1,26,A,2023-09-21_14h45.03.937,exp3,2022.2.2,
,,,,,,,,,,,,,,,,,,,,,,,,0,2274,Valid,noise,-45,2,3.5728038999950513,1,2.0,4.8804801000515,True,1,26,A,2023-09-21_14h45.03.937,exp3,2022.2.2,
,,,,,,,,,,,,,,,,,,,,,,,,0,557,Valid,signal,-45,1,4.022088299971074,1,3.0,5.3299818999366835,True,1,26,A,2023-09-21_14h45.03.937,exp3,2022.2.2,
,,,,,,,,,,,,,,,,,,,,,,,,0,557,Valid,signal,45,1,4.939207599963993,1,3.0,6.247012499952689,True,1,26,A,2023-09-21_14h45.03.937,exp3,2022.2.2,
,,,,,,,,,,,,,,,,,,,,,,,,0,-1158,Valid,signal,-45,1,5.177965600043535,1,2.0,38.94382050004788,True,2,26,A,2023-09-21_14h45.03.937,exp3,2022.2.2,
,,,,,,,,,,,,,,,,,,,,,,,,0,-1158,Valid,signal,45,1,1.3886696000117809,1,2.0,2.6963952999794856,True,1,26,A,2023-09-21_14h45.03.937,exp3,2022.2.2,
,,,,,,,,,,,,,,,,,,,,,,,,0,-2274,Invalid,signal,45,2,3.155877000070177,0,1.0,4.46387480001431,True,1,26,A,2023-09-21_14h45.03.937,exp3,2022.2.2,
,,,,,,,,,,,,,,,,,,,,,,,,0,-1716,Valid,noise,45,2,2.304688800009899,1,3.0,3.6127623000647873,True,1,26,A,2023-09-21_14h45.03.937,exp3,2022.2.2,
,,,,,,,,,,,,,,,,,,,,,,,,0,-1158,Valid,noise,45,2,1.9851756000425667,1,3.0,5.9646001000655815,True,2,26,A,2023-09-21_14h45.03.937,exp3,2022.2.2,
,,,,,,,,,,,,,,,,,,,,,,,,0,557,Valid,noise,-45,2,1.8381389999995008,1,3.0,3.146057599922642,True,1,26,A,2023-09-21_14h45.03.937,exp3,2022.2.2,
,,,,,,,,,,,,,,,,,,,,,,,,0,1158,Valid,noise,45,2,2.1059584999457,1,3.0,3.413622499909252,True,1,26,A,2023-09-21_14h45.03.937,exp3,2022.2.2,
,,,,,,,,,,,,,,,,,,,,,,,,0,1158,Valid,signal,-45,1,4.005211099982262,1,3.0,5.313173999893479,True,1,26,A,2023-09-21_14h45.03.937,exp3,2022.2.2,
,,,,,,,,,,,,,,,,,,,,,,,,0,-1158,Valid,signal,45,1,2.055171599960886,1,3.0,3.363040699972771,True,1,26,A,2023-09-21_14h45.03.937,exp3,2022.2.2,
,,,,,,,,,,,,,,,,,,,,,,,,0,-557,Invalid,noise,45,1,3.005866299965419,0,1.0,4.3136787000112236,True,1,26,A,2023-09-21_14h45.03.937,exp3,2022.2.2,
,,,,,,,,,,,,,,,,,,,,,,,,0,-557,Valid,signal,45,1,1.9214426999678835,1,3.0,3.2296223000157624,True,1,26,A,2023-09-21_14h45.03.937,exp3,2022.2.2,
,,,,,,,,,,,,,,,,,,,,,,,,0,-2274,Valid,noise,45,2,3.23921839997638,1,2.0,4.547152400016785,True,1,26,A,2023-09-21_14h45.03.937,exp3,2022.2.2,
,,,,,,,,,,,,,,,,,,,,,,,,0,-557,Valid,signal,-45,1,3.0890163000440225,1,3.0,4.396807700046338,True,1,26,A,2023-09-21_14h45.03.937,exp3,2022.2.2,
,,,,,,,,,,,,,,,,,,,,,,,,0,1158,Valid,signal,-45,2,3.818271900061518,0,1.0,8.198047799989581,True,2,26,A,2023-09-21_14h45.03.937,exp3,2022.2.2,
,,,,,,,,,,,,,,,,,,,,,,,,0,2274,Valid,noise,-45,2,8.345613099983893,1,2.0,12.049732399987988,True,2,26,A,2023-09-21_14h45.03.937,exp3,2022.2.2,
,,,,,,,,,,,,,,,,,,,,,,,,0,-2274,Valid,signal,-45,2,4.0887729000533,0,1.0,5.396853099926375,True,1,26,A,2023-09-21_14h45.03.937,exp3,2022.2.2,
,,,,,,,,,,,,,,,,,,,,,,,,0,557,Valid,signal,45,1,4.18937769997865,1,3.0,5.497277999995276,True,1,26,A,2023-09-21_14h45.03.937,exp3,2022.2.2,
,,,,,,,,,,,,,,,,,,,,,,,,0,1716,Valid,signal,45,1,3.5734876999631524,1,3.0,4.881162899895571,True,1,26,A,2023-09-21_14h45.03.937,exp3,2022.2.2,
,,,,,,,,,,,,,,,,,,,,,,,,0,1716,Valid,noise,45,2,2.3708497000625357,1,2.0,3.6789334000786766,True,1,26,A,2023-09-21_14h45.03.937,exp3,2022.2.2,
,,,,,,,,,,,,,,,,,,,,,,,,0,-1716,Valid,signal,-45,1,5.3070198999485,1,2.0,6.614924699999392,True,1,26,A,2023-09-21_14h45.03.937,exp3,2022.2.2,
,,,,,,,,,,,,,,,,,,,,,,,,0,-1158,Invalid,signal,45,1,1.7380367000587285,1,2.0,3.0457323999144137,True,1,26,A,2023-09-21_14h45.03.937,exp3,2022.2.2,
,,,,,,,,,,,,,,,,,,,,,,,,0,-2274,Valid,noise,-45,2,2.9889539999421686,1,1.0,4.296738900011405,True,1,26,A,2023-09-21_14h45.03.937,exp3,2022.2.2,
,,,,,,,,,,,,,,,,,,,,,,,,0,-2274,Valid,noise,45,2,2.388695999979973,1,2.0,3.696524400031194,True,1,26,A,2023-09-21_14h45.03.937,exp3,2022.2.2,
,,,,,,,,,,,,,,,,,,,,,,,,0,-2274,Valid,signal,45,1,3.093636899953708,1,1.0,11.199670300004072,True,2,26,A,2023-09-21_14h45.03.937,exp3,2022.2.2,
,,,,,,,,,,,,,,,,,,,,,,,,0,1158,Valid,noise,-45,2,2.138226200011559,1,2.0,3.446205100044608,True,1,26,A,2023-09-21_14h45.03.937,exp3,2022.2.2,
,,,,,,,,,,,,,,,,,,,,,,,,0,-557,Valid,noise,45,2,1.7550000000046566,1,2.0,3.0627071999479085,True,1,26,A,2023-09-21_14h45.03.937,exp3,2022.2.2,
,,,,,,,,,,,,,,,,,,,,,,,,0,-557,Valid,noise,-45,2,1.2675806999905035,1,2.0,4.296931899967603,True,2,26,A,2023-09-21_14h45.03.937,exp3,2022.2.2,
,,,,,,,,,,,,,,,,,,,,,,,,0,2274,Invalid,noise,-45,2,5.6733548999764025,1,1.0,6.980823599966243,True,1,26,A,2023-09-21_14h45.03.937,exp3,2022.2.2,
,,,,,,,,,,,,,,,,,,,,,,,,0,1716,Valid,noise,45,2,2.201701099984348,1,2.0,9.432020999956876,True,2,26,A,2023-09-21_14h45.03.937,exp3,2022.2.2,
,,,,,,,,,,,,,,,,,,,,,,,,0,-2274,Valid,signal,45,2,2.889277799986303,0,1.0,4.19714359997306,True,1,26,A,2023-09-21_14h45.03.937,exp3,2022.2.2,
,,,,,,,,,,,,,,,,,,,,,,,,0,557,Valid,noise,-45,2,1.554547999985516,1,1.0,2.8623765000374988,True,1,26,A,2023-09-21_14h45.03.937,exp3,2022.2.2,
,,,,,,,,,,,,,,,,,,,,,,,,0,557,Valid,signal,45,1,2.655919300043024,1,3.0,3.963616400025785,True,1,26,A,2023-09-21_14h45.03.937,exp3,2022.2.2,
,,,,,,,,,,,,,,,,,,,,,,,,0,2274,Valid,noise,45,2,1.671389100025408,1,2.0,5.880601199925877,True,2,26,A,2023-09-21_14h45.03.937,exp3,2022.2.2,
,,,,,,,,,,,,,,,,,,,,,,,,0,2274,Valid,signal,-45,2,3.189265500055626,0,2.0,4.497027299948968,True,1,26,A,2023-09-21_14h45.03.937,exp3,2022.2.2,
,,,,,,,,,,,,,,,,,,,,,,,,0,2274,Valid,noise,45,2,1.904898399952799,1,2.0,3.212533300044015,True,1,26,A,2023-09-21_14h45.03.937,exp3,2022.2.2,
,,,,,,,,,,,,,,,,,,,,,,,,0,1158,Valid,signal,-45,1,2.2882453999482095,1,3.0,3.5962416999973357,True,1,26,A,2023-09-21_14h45.03.937,exp3,2022.2.2,
,,,,,,,,,,,,,,,,,,,,,,,,0,-1716,Valid,signal,-45,1,2.330037699895911,1,3.0,9.315594000043347,True,4,26,A,2023-09-21_14h45.03.937,exp3,2022.2.2,
,,,,,,,,,,,,,,,,,,,,,,,,0,-1716,Valid,noise,-45,2,3.2391401999630034,1,2.0,4.546755400020629,True,1,26,A,2023-09-21_14h45.03.937,exp3,2022.2.2,
,,,,,,,,,,,,,,,,,,,,,,,,0,-1716,Invalid,noise,45,2,1.8385165999643505,1,2.0,3.1462421000469476,True,1,26,A,2023-09-21_14h45.03.937,exp3,2022.2.2,
,,,,,,,,,,,,,,,,,,,,,,,,0,-2274,Valid,signal,45,2,1.8553923999425024,0,2.0,3.163029900053516,True,1,26,A,2023-09-21_14h45.03.937,exp3,2022.2.2,
,,,,,,,,,,,,,,,,,,,,,,,,0,2274,Valid,signal,-45,2,3.0221181000815704,0,1.0,4.329829799942672,True,1,26,A,2023-09-21_14h45.03.937,exp3,2022.2.2,
,,,,,,,,,,,,,,,,,,,,,,,,0,-1716,Invalid,signal,45,1,1.8216340999351814,1,3.0,3.129589800024405,True,1,26,A,2023-09-21_14h45.03.937,exp3,2022.2.2,
,,,,,,,,,,,,,,,,,,,,,,,,0,-557,Valid,noise,45,2,5.940595999942161,1,2.0,7.248356900061481,True,1,26,A,2023-09-21_14h45.03.937,exp3,2022.2.2,
,,,,,,,,,,,,,,,,,,,,,,,,0,557,Valid,signal,-45,1,3.7221221000654623,1,2.0,5.029977899976075,True,1,26,A,2023-09-21_14h45.03.937,exp3,2022.2.2,
,,,,,,,,,,,,,,,,,,,,,,,,0,557,Invalid,noise,-45,2,1.5888090999796987,1,2.0,7.597627100069076,True,3,26,A,2023-09-21_14h45.03.937,exp3,2022.2.2,
,,,,,,,,,,,,,,,,,,,,,,,,0,-1158,Valid,signal,45,2,4.64015929994639,0,2.0,5.947962300037034,True,1,26,A,2023-09-21_14h45.03.937,exp3,2022.2.2,
,,,,,,,,,,,,,,,,,,,,,,,,0,-1158,Invalid,noise,-45,2,2.387988500064239,1,2.0,3.6960272000869736,True,1,26,A,2023-09-21_14h45.03.937,exp3,2022.2.2,
,,,,,,,,,,,,,,,,,,,,,,,,0,-2274,Valid,noise,-45,2,5.022818300058134,1,1.0,6.330759100033902,True,1,26,A,2023-09-21_14h45.03.937,exp3,2022.2.2,
,,,,,,,,,,,,,,,,,,,,,,,,0,-1158,Valid,noise,45,2,2.5558065000222996,1,1.0,3.8636585000203922,True,1,26,A,2023-09-21_14h45.03.937,exp3,2022.2.2,
,,,,,,,,,,,,,,,,,,,,,,,,0,-1716,Valid,noise,45,2,3.705019099987112,1,2.0,60.88516469998285,True,4,26,A,2023-09-21_14h45.03.937,exp3,2022.2.2,
,,,,,,,,,,,,,,,,,,,,,,,,0,1158,Invalid,signal,-45,1,1.7548157999990508,1,3.0,3.0629524999530986,True,1,26,A,2023-09-21_14h45.03.937,exp3,2022.2.2,
,,,,,,,,,,,,,,,,,,,,,,,,0,1158,Valid,noise,45,2,2.4054172000614926,1,3.0,3.71315450000111,True,1,26,A,2023-09-21_14h45.03.937,exp3,2022.2.2,
,,,,,,,,,,,,,,,,,,,,,,,,0,1716,Valid,noise,-45,2,1.8558029000414535,1,3.0,3.1634631999768317,True,1,26,A,2023-09-21_14h45.03.937,exp3,2022.2.2,
,,,,,,,,,,,,,,,,,,,,,,,,0,2274,Valid,noise,-45,2,2.011051499983296,1,2.0,6.680501299910247,True,2,26,A,2023-09-21_14h45.03.937,exp3,2022.2.2,
,,,,,,,,,,,,,,,,,,,,,,,,0,-557,Valid,signal,45,1,1.8000902999192476,1,3.0,4.847090200055391,True,2,26,A,2023-09-21_14h45.03.937,exp3,2022.2.2,
,,,,,,,,,,,,,,,,,,,,,,,,0,557,Valid,noise,-45,2,2.941941100056283,1,2.0,7.048119900049642,True,2,26,A,2023-09-21_14h45.03.937,exp3,2022.2.2,
,,,,,,,,,,,,,,,,,,,,,,,,0,-1158,Valid,noise,-45,2,2.4155509000411257,1,3.0,6.580745300045237,True,2,26,A,2023-09-21_14h45.03.937,exp3,2022.2.2,
,,,,,,,,,,,,,,,,,,,,,,,,0,-2274,Valid,noise,45,2,3.7383767999708652,1,1.0,5.046286699944176,True,1,26,A,2023-09-21_14h45.03.937,exp3,2022.2.2,
,,,,,,,,,,,,,,,,,,,,,,,,0,557,Valid,noise,45,2,10.308351200073957,1,1.0,11.616207199986093,True,1,26,A,2023-09-21_14h45.03.937,exp3,2022.2.2,
,,,,,,,,,,,,,,,,,,,,,,,,0,-557,Valid,noise,-45,2,3.6225421999115497,1,2.0,4.930562000023201,True,1,26,A,2023-09-21_14h45.03.937,exp3,2022.2.2,
,,,,,,,,,,,,,,,,,,,,,,,,0,-1716,Invalid,signal,45,1,4.411963400081731,1,1.0,11.56624750001356,True,4,26,A,2023-09-21_14h45.03.937,exp3,2022.2.2,
,,,,,,,,,,,,,,,,,,,,,,,,0,557,Valid,noise,-45,2,2.753932800027542,1,2.0,6.280657700030133,True,2,26,A,2023-09-21_14h45.03.937,exp3,2022.2.2,
,,,,,,,,,,,,,,,,,,,,,,,,0,-1716,Valid,signal,-45,1,3.5060987999895588,1,1.0,4.813909999909811,True,1,26,A,2023-09-21_14h45.03.937,exp3,2022.2.2,
,,,,,,,,,,,,,,,,,,,,,,,,0,-1716,Valid,signal,-45,1,3.7221056000562385,1,2.0,5.030197999905795,True,1,26,A,2023-09-21_14h45.03.937,exp3,2022.2.2,
,,,,,,,,,,,,,,,,,,,,,,,,0,2274,Invalid,noise,-45,2,6.950776700046845,1,1.0,27.67257980001159,True,5,26,A,2023-09-21_14h45.03.937,exp3,2022.2.2,
,,,,,,,,,,,,,,,,,,,,,,,,0,1158,Valid,signal,-45,1,3.222323599969968,1,3.0,4.530382000026293,True,1,26,A,2023-09-21_14h45.03.937,exp3,2022.2.2,
,,,,,,,,,,,,,,,,,,,,,,,,0,2274,Invalid,signal,-45,2,3.089488700032234,0,1.0,4.3972655000397936,True,1,26,A,2023-09-21_14h45.03.937,exp3,2022.2.2,
,,,,,,,,,,,,,,,,,,,,,,,,0,-1716,Valid,noise,-45,2,4.522295099915937,1,2.0,5.830322699970566,True,1,26,A,2023-09-21_14h45.03.937,exp3,2022.2.2,
,,,,,,,,,,,,,,,,,,,,,,,,0,1716,Invalid,noise,45,2,2.2628346000565216,1,2.0,10.165784999961033,True,4,26,A,2023-09-21_14h45.03.937,exp3,2022.2.2,
,,,,,,,,,,,,,,,,,,,,,,,,0,557,Invalid,signal,-45,1,2.9448477999540046,1,3.0,6.347529000020586,True,2,26,A,2023-09-21_14h45.03.937,exp3,2022.2.2,
,,,,,,,,,,,,,,,,,,,,,,,,0,1158,Valid,signal,-45,1,3.6984090000623837,1,3.0,92.96425699989777,True,3,26,A,2023-09-21_14h45.03.937,exp3,2022.2.2,
,,,,,,,,,,,,,,,,,,,,,,,,0,-1158,Valid,signal,-45,1,2.287998399930075,1,3.0,3.596202499931678,True,1,26,A,2023-09-21_14h45.03.937,exp3,2022.2.2,
,,,,,,,,,,,,,,,,,,,,,,,,0,-1716,Valid,noise,45,2,3.022819999954663,1,1.0,4.3307130000321195,True,1,26,A,2023-09-21_14h45.03.937,exp3,2022.2.2,
,,,,,,,,,,,,,,,,,,,,,,,,0,557,Valid,signal,45,1,2.7380072999512777,1,3.0,4.045939999981783,True,1,26,A,2023-09-21_14h45.03.937,exp3,2022.2.2,
,,,,,,,,,,,,,,,,,,,,,,,,0,-1716,Valid,signal,-45,1,2.7730601999210194,1,3.0,4.080869600060396,True,1,26,A,2023-09-21_14h45.03.937,exp3,2022.2.2,
,,,,,,,,,,,,,,,,,,,,,,,,0,1158,Valid,noise,-45,2,2.1545326999621466,1,3.0,3.462441199924797,True,1,26,A,2023-09-21_14h45.03.937,exp3,2022.2.2,
,,,,,,,,,,,,,,,,,,,,,,,,0,1716,Valid,signal,-45,1,1.605147499940358,1,3.0,2.9128982999827713,True,1,26,A,2023-09-21_14h45.03.937,exp3,2022.2.2,
,,,,,,,,,,,,,,,,,,,,,,,,0,-2274,Invalid,noise,-45,2,1.7618852000450715,1,3.0,4.996866000001319,True,2,26,A,2023-09-21_14h45.03.937,exp3,2022.2.2,
,,,,,,,,,,,,,,,,,,,,,,,,0,1716,Valid,noise,45,2,3.6390660000033677,1,1.0,4.947006199974567,True,1,26,A,2023-09-21_14h45.03.937,exp3,2022.2.2,
,,,,,,,,,,,,,,,,,,,,,,,,0,-2274,Valid,noise,-45,2,2.1391057999571785,1,1.0,3.4467447999631986,True,1,26,A,2023-09-21_14h45.03.937,exp3,2022.2.2,
,,,,,,,,,,,,,,,,,,,,,,,,0,2274,Valid,noise,45,2,1.4508189000189304,1,1.0,5.480221499921754,True,2,26,A,2023-09-21_14h45.03.937,exp3,2022.2.2,
,,,,,,,,,,,,,,,,,,,,,,,,0,1158,Valid,signal,45,1,2.6758363000117242,1,2.0,7.531125899986364,True,3,26,A,2023-09-21_14h45.03.937,exp3,2022.2.2,
,,,,,,,,,,,,,,,,,,,,,,,,0,2274,Valid,signal,45,1,5.02314970002044,1,1.0,6.331026499974541,True,1,26,A,2023-09-21_14h45.03.937,exp3,2022.2.2,
,,,,,,,,,,,,,,,,,,,,,,,,0,1158,Valid,noise,45,2,4.106033400050364,1,2.0,5.413772300002165,True,1,26,A,2023-09-21_14h45.03.937,exp3,2022.2.2,
,,,,,,,,,,,,,,,,,,,,,,,,0,-1716,Valid,signal,-45,1,5.297144099953584,1,2.0,40.677542399964295,True,3,26,A,2023-09-21_14h45.03.937,exp3,2022.2.2,
,,,,,,,,,,,,,,,,,,,,,,,,0,2274,Valid,signal,45,1,4.239318499923684,1,1.0,5.547042999998666,True,1,26,A,2023-09-21_14h45.03.937,exp3,2022.2.2,
,,,,,,,,,,,,,,,,,,,,,,,,0,-1158,Invalid,signal,45,1,2.1555493000196293,1,1.0,3.4632201000349596,True,1,26,A,2023-09-21_14h45.03.937,exp3,2022.2.2,
,,,,,,,,,,,,,,,,,,,,,,,,0,2274,Valid,signal,-45,2,1.7879540999419987,0,1.0,3.095840899972245,True,1,26,A,2023-09-21_14h45.03.937,exp3,2022.2.2,
,,,,,,,,,,,,,,,,,,,,,,,,0,-557,Invalid,signal,-45,1,1.9409877000143752,1,3.0,5.3639103000750765,True,2,26,A,2023-09-21_14h45.03.937,exp3,2022.2.2,
,,,,,,,,,,,,,,,,,,,,,,,,0,-2274,Valid,noise,-45,2,3.072079100064002,1,2.0,4.380093800020404,True,1,26,A,2023-09-21_14h45.03.937,exp3,2022.2.2,
,,,,,,,,,,,,,,,,,,,,,,,,0,-557,Invalid,noise,-45,2,2.4557651000795886,1,2.0,3.7634569000219926,True,1,26,A,2023-09-21_14h45.03.937,exp3,2022.2.2,
,,,,,,,,,,,,,,,,,,,,,,,,0,-1716,Invalid,noise,-45,2,2.238407799974084,1,2.0,3.5464230000507087,True,1,26,A,2023-09-21_14h45.03.937,exp3,2022.2.2,
,,,,,,,,,,,,,,,,,,,,,,,,0,1158,Valid,signal,-45,1,2.2837020000442863,1,2.0,11.016152500058524,True,3,26,A,2023-09-21_14h45.03.937,exp3,2022.2.2,
,,,,,,,,,,,,,,,,,,,,,,,,0,-1158,Invalid,noise,45,2,1.8178848000243306,1,2.0,4.863859000033699,True,2,26,A,2023-09-21_14h45.03.937,exp3,2022.2.2,
,,,,,,,,,,,,,,,,,,,,,,,,0,-2274,Valid,noise,-45,2,2.3292147999163717,1,2.0,10.098805099958554,True,4,26,A,2023-09-21_14h45.03.937,exp3,2022.2.2,
,,,,,,,,,,,,,,,,,,,,,,,,0,1158,Invalid,noise,45,2,2.296622100053355,1,2.0,5.6979783999267966,True,2,26,A,2023-09-21_14h45.03.937,exp3,2022.2.2,
,,,,,,,,,,,,,,,,,,,,,,,,0,1716,Invalid,signal,-45,1,2.6221375999739394,1,2.0,3.9299294999800622,True,1,26,A,2023-09-21_14h45.03.937,exp3,2022.2.2,
,,,,,,,,,,,,,,,,,,,,,,,,0,2274,Invalid,signal,45,2,5.83951329998672,0,1.0,7.147337900009006,True,1,26,A,2023-09-21_14h45.03.937,exp3,2022.2.2,
,,,,,,,,,,,,,,,,,,,,,,,,0,1158,Invalid,noise,45,2,2.4233951999340206,1,2.0,8.465278399991803,True,3,26,A,2023-09-21_14h45.03.937,exp3,2022.2.2,
,,,,,,,,,,,,,,,,,,,,,,,,0,-2274,Valid,noise,45,2,3.9888309000525624,1,2.0,5.296581799979322,True,1,26,A,2023-09-21_14h45.03.937,exp3,2022.2.2,
,,,,,,,,,,,,,,,,,,,,,,,,1,-1158,Invalid,signal,45,1,5.365263000014238,1,3.0,6.67376650008373,True,1,26,A,2023-09-21_14h45.03.937,exp3,2022.2.2,
,,,,,,,,,,,,,,,,,,,,,,,,2,-1158,Valid,noise,45,2,5.489133499911986,1,2.0,6.797739299945533,True,1,26,A,2023-09-21_14h45.03.937,exp3,2022.2.2,
,,,,,,,,,,,,,,,,,,,,,,,,3,-1158,Valid,noise,45,2,5.540024399990216,1,3.0,22.85406519996468,True,2,26,A,2023-09-21_14h45.03.937,exp3,2022.2.2,
,,,,,,,,,,,,,,,,,,,,,,,,4,-2274,Valid,noise,-45,2,3.289210299961269,1,1.0,4.597499900031835,True,1,26,A,2023-09-21_14h45.03.937,exp3,2022.2.2,
,,,,,,,,,,,,,,,,,,,,,,,,5,-557,Valid,signal,-45,1,4.505427600000985,1,3.0,5.813695999910124,True,1,26,A,2023-09-21_14h45.03.937,exp3,2022.2.2,
,,,,,,,,,,,,,,,,,,,,,,,,6,1158,Valid,noise,-45,2,3.8501613999251276,1,3.0,8.098439399967901,True,2,26,A,2023-09-21_14h45.03.937,exp3,2022.2.2,
,,,,,,,,,,,,,,,,,,,,,,,,7,-2274,Valid,signal,45,2,2.9054231999907643,0,1.0,4.213615600019693,True,1,26,A,2023-09-21_14h45.03.937,exp3,2022.2.2,
,,,,,,,,,,,,,,,,,,,,,,,,8,-1716,Invalid,signal,-45,1,5.139023599913344,1,2.0,6.4470094999996945,True,1,26,A,2023-09-21_14h45.03.937,exp3,2022.2.2,
,,,,,,,,,,,,,,,,,,,,,,,,9,557,Invalid,noise,-45,2,2.138132599997334,1,2.0,3.4463650999823585,True,1,26,A,2023-09-21_14h45.03.937,exp3,2022.2.2,
,,,,,,,,,,,,,,,,,,,,,,,,10,-1716,Valid,signal,45,1,2.188036200008355,1,3.0,3.4962688999949023,True,1,26,A,2023-09-21_14h45.03.937,exp3,2022.2.2,
,,,,,,,,,,,,,,,,,,,,,,,,11,1716,Valid,signal,-45,1,2.0137992999516428,1,3.0,6.014437500038184,True,2,26,A,2023-09-21_14h45.03.937,exp3,2022.2.2,
,,,,,,,,,,,,,,,,,,,,,,,,12,2274,Valid,signal,45,2,3.9727791000623256,0,1.0,5.280910599976778,True,1,26,A,2023-09-21_14h45.03.937,exp3,2022.2.2,
,,,,,,,,,,,,,,,,,,,,,,,,13,-2274,Valid,signal,45,2,3.387363599962555,0,1.0,4.69596929999534,True,1,26,A,2023-09-21_14h45.03.937,exp3,2022.2.2,
,,,,,,,,,,,,,,,,,,,,,,,,14,-557,Valid,noise,-45,2,5.1566034000134096,1,3.0,6.464788399985991,True,1,26,A,2023-09-21_14h45.03.937,exp3,2022.2.2,
,,,,,,,,,,,,,,,,,,,,,,,,15,1158,Valid,signal,45,1,1.8711730999639258,1,3.0,3.1795071000233293,True,1,26,A,2023-09-21_14h45.03.937,exp3,2022.2.2,
,,,,,,,,,,,,,,,,,,,,,,,,16,-557,Invalid,noise,-45,2,3.5896223000017926,1,3.0,4.89772200002335,True,1,26,A,2023-09-21_14h45.03.937,exp3,2022.2.2,
,,,,,,,,,,,,,,,,,,,,,,,,17,2274,Valid,signal,45,1,2.4210411000531167,1,1.0,3.729229800053872,True,1,26,A,2023-09-21_14h45.03.937,exp3,2022.2.2,
,,,,,,,,,,,,,,,,,,,,,,,,18,-1716,Valid,noise,-45,2,2.321970000048168,1,2.0,3.6304148000199348,True,1,26,A,2023-09-21_14h45.03.937,exp3,2022.2.2,
,,,,,,,,,,,,,,,,,,,,,,,,19,557,Valid,noise,45,2,2.9880638000322506,1,3.0,4.296280000009574,True,1,26,A,2023-09-21_14h45.03.937,exp3,2022.2.2,
,,,,,,,,,,,,,,,,,,,,,,,,20,-1158,Valid,signal,45,1,2.1222013999940827,1,3.0,3.430185499950312,True,1,26,A,2023-09-21_14h45.03.937,exp3,2022.2.2,
,,,,,,,,,,,,,,,,,,,,,,,,21,-1158,Valid,signal,45,1,2.120949700009078,1,3.0,3.429284799960442,True,1,26,A,2023-09-21_14h45.03.937,exp3,2022.2.2,
,,,,,,,,,,,,,,,,,,,,,,,,22,-1716,Invalid,noise,45,2,1.6548077000770718,1,3.0,2.9629993999842554,True,1,26,A,2023-09-21_14h45.03.937,exp3,2022.2.2,
,,,,,,,,,,,,,,,,,,,,,,,,23,-1158,Valid,noise,-45,2,2.6385516999289393,1,2.0,3.9468037000624463,True,1,26,A,2023-09-21_14h45.03.937,exp3,2022.2.2,
,,,,,,,,,,,,,,,,,,,,,,,,24,-557,Valid,signal,45,1,1.8031512000598013,1,3.0,5.080954000004567,True,2,26,A,2023-09-21_14h45.03.937,exp3,2022.2.2,
,,,,,,,,,,,,,,,,,,,,,,,,25,1716,Valid,signal,-45,1,3.3722230000421405,1,3.0,6.963921400019899,True,2,26,A,2023-09-21_14h45.03.937,exp3,2022.2.2,
,,,,,,,,,,,,,,,,,,,,,,,,26,557,Valid,noise,45,2,1.8379247999982908,1,2.0,3.1460808999836445,True,1,26,A,2023-09-21_14h45.03.937,exp3,2022.2.2,
,,,,,,,,,,,,,,,,,,,,,,,,27,1158,Valid,signal,45,1,6.923321800073609,1,3.0,8.231800099951215,True,1,26,A,2023-09-21_14h45.03.937,exp3,2022.2.2,
,,,,,,,,,,,,,,,,,,,,,,,,28,-557,Valid,noise,45,2,2.422207099967636,1,3.0,3.7304384999442846,True,1,26,A,2023-09-21_14h45.03.937,exp3,2022.2.2,
,,,,,,,,,,,,,,,,,,,,,,,,29,1716,Valid,signal,45,1,1.4038421999430284,1,3.0,2.7120014000684023,True,1,26,A,2023-09-21_14h45.03.937,exp3,2022.2.2,
,,,,,,,,,,,,,,,,,,,,,,,,30,1158,Valid,noise,-45,2,1.5354812999721617,1,3.0,4.96406140003819,True,2,26,A,2023-09-21_14h45.03.937,exp3,2022.2.2,
,,,,,,,,,,,,,,,,,,,,,,,,31,-557,Invalid,signal,45,1,2.27154009998776,1,3.0,3.579745399998501,True,1,26,A,2023-09-21_14h45.03.937,exp3,2022.2.2,
,,,,,,,,,,,,,,,,,,,,,,,,32,1158,Valid,signal,45,1,1.3647514000767842,1,3.0,6.8474732000613585,True,3,26,A,2023-09-21_14h45.03.937,exp3,2022.2.2,
,,,,,,,,,,,,,,,,,,,,,,,,33,-2274,Invalid,signal,45,1,2.105579699971713,1,1.0,3.4135624000336975,True,1,26,A,2023-09-21_14h45.03.937,exp3,2022.2.2,
,,,,,,,,,,,,,,,,,,,,,,,,34,2274,Valid,noise,-45,2,2.6054818000411615,1,1.0,3.9135957000544295,True,1,26,A,2023-09-21_14h45.03.937,exp3,2022.2.2,
,,,,,,,,,,,,,,,,,,,,,,,,35,557,Valid,noise,45,2,1.9543095000553876,1,3.0,3.262503099977039,True,1,26,A,2023-09-21_14h45.03.937,exp3,2022.2.2,
,,,,,,,,,,,,,,,,,,,,,,,,36,1716,Valid,noise,-45,2,1.3380338000133634,1,3.0,2.645808700006455,True,1,26,A,2023-09-21_14h45.03.937,exp3,2022.2.2,
,,,,,,,,,,,,,,,,,,,,,,,,37,1716,Valid,signal,45,1,1.6881624000379816,1,3.0,2.996246900060214,True,1,26,A,2023-09-21_14h45.03.937,exp3,2022.2.2,
,,,,,,,,,,,,,,,,,,,,,,,,38,-1158,Invalid,signal,45,1,1.682284799986519,1,2.0,5.397259800112806,True,2,26,A,2023-09-21_14h45.03.937,exp3,2022.2.2,
,,,,,,,,,,,,,,,,,,,,,,,,39,2274,Valid,noise,45,2,3.1058349000522867,1,1.0,4.413845899980515,True,1,26,A,2023-09-21_14h45.03.937,exp3,2022.2.2,
,,,,,,,,,,,,,,,,,,,,,,,,40,-1158,Valid,signal,45,1,2.330459399963729,1,2.0,6.447120900033042,True,2,26,A,2023-09-21_14h45.03.937,exp3,2022.2.2,
,,,,,,,,,,,,,,,,,,,,,,,,41,-2274,Valid,noise,-45,2,2.038200799957849,1,1.0,3.3464974999660626,True,1,26,A,2023-09-21_14h45.03.937,exp3,2022.2.2,
,,,,,,,,,,,,,,,,,,,,,,,,42,1158,Valid,noise,45,2,2.388342999969609,1,2.0,3.6965402000350878,True,1,26,A,2023-09-21_14h45.03.937,exp3,2022.2.2,
,,,,,,,,,,,,,,,,,,,,,,,,43,1158,Valid,signal,45,1,2.260810900013894,1,2.0,6.047402899945155,True,2,26,A,2023-09-21_14h45.03.937,exp3,2022.2.2,
,,,,,,,,,,,,,,,,,,,,,,,,44,-1158,Valid,signal,-45,1,1.637460199999623,1,3.0,4.947404999984428,True,2,26,A,2023-09-21_14h45.03.937,exp3,2022.2.2,
,,,,,,,,,,,,,,,,,,,,,,,,45,-1716,Valid,noise,45,2,2.1306576000060886,1,1.0,6.863966100034304,True,2,26,A,2023-09-21_14h45.03.937,exp3,2022.2.2,
,,,,,,,,,,,,,,,,,,,,,,,,46,1158,Valid,signal,45,1,6.606571199954487,1,2.0,7.914730599964969,True,1,26,A,2023-09-21_14h45.03.937,exp3,2022.2.2,
,,,,,,,,,,,,,,,,,,,,,,,,47,2274,Valid,signal,45,2,2.988400200032629,0,1.0,4.296565499971621,True,1,26,A,2023-09-21_14h45.03.937,exp3,2022.2.2,
,,,,,,,,,,,,,,,,,,,,,,,,48,2274,Valid,signal,-45,2,3.139006100012921,0,1.0,4.447139000054449,True,1,26,A,2023-09-21_14h45.03.937,exp3,2022.2.2,
,,,,,,,,,,,,,,,,,,,,,,,,49,1716,Valid,signal,-45,1,2.9217818999895826,1,3.0,4.230340800015256,True,1,26,A,2023-09-21_14h45.03.937,exp3,2022.2.2,
,,,,,,,,,,,,,,,,,,,,,,,,50,2274,Invalid,signal,-45,2,1.920751400059089,0,1.0,3.2290407000109553,True,1,26,A,2023-09-21_14h45.03.937,exp3,2022.2.2,
,,,,,,,,,,,,,,,,,,,,,,,,51,-557,Invalid,noise,45,2,4.471754600061104,1,2.0,8.431632400024682,True,2,26,A,2023-09-21_14h45.03.937,exp3,2022.2.2,
,,,,,,,,,,,,,,,,,,,,,,,,52,1716,Valid,noise,45,2,2.138579500024207,1,2.0,3.446753600030206,True,1,26,A,2023-09-21_14h45.03.937,exp3,2022.2.2,
,,,,,,,,,,,,,,,,,,,,,,,,53,-1158,Valid,noise,45,2,1.3262726999819279,1,3.0,7.398249899968505,True,2,26,A,2023-09-21_14h45.03.937,exp3,2022.2.2,
,,,,,,,,,,,,,,,,,,,,,,,,54,-2274,Valid,noise,45,2,1.220736199989915,1,3.0,2.528986999997869,True,1,26,A,2023-09-21_14h45.03.937,exp3,2022.2.2,
,,,,,,,,,,,,,,,,,,,,,,,,55,557,Valid,noise,45,2,1.4198795999400318,1,3.0,6.481014600023627,True,3,26,A,2023-09-21_14h45.03.937,exp3,2022.2.2,
,,,,,,,,,,,,,,,,,,,,,,,,56,2274,Invalid,signal,45,2,1.571726099937223,0,3.0,2.879820700036362,True,1,26,A,2023-09-21_14h45.03.937,exp3,2022.2.2,
,,,,,,,,,,,,,,,,,,,,,,,,57,2274,Valid,signal,45,2,3.188306700089015,0,2.0,4.496516500017606,True,1,26,A,2023-09-21_14h45.03.937,exp3,2022.2.2,
,,,,,,,,,,,,,,,,,,,,,,,,58,-1158,Valid,signal,45,1,2.594520300044678,1,2.0,9.198422300047241,True,3,26,A,2023-09-21_14h45.03.937,exp3,2022.2.2,
,,,,,,,,,,,,,,,,,,,,,,,,59,-557,Invalid,signal,-45,1,2.1550010999199003,1,3.0,3.46325709996745,True,1,26,A,2023-09-21_14h45.03.937,exp3,2022.2.2,
,,,,,,,,,,,,,,,,,,,,,,,,60,-557,Valid,signal,45,1,1.6740782000124454,1,3.0,7.365196699975058,True,3,26,A,2023-09-21_14h45.03.937,exp3,2022.2.2,
,,,,,,,,,,,,,,,,,,,,,,,,61,1158,Valid,signal,45,1,1.2097064000554383,1,3.0,4.562518700025976,True,2,26,A,2023-09-21_14h45.03.937,exp3,2022.2.2,
,,,,,,,,,,,,,,,,,,,,,,,,62,557,Invalid,noise,45,2,2.715595900081098,1,3.0,85.84534849994816,True,2,26,A,2023-09-21_14h45.03.937,exp3,2022.2.2,
,,,,,,,,,,,,,,,,,,,,,,,,63,557,Invalid,signal,-45,1,1.1711777000455186,1,3.0,2.479499900015071,True,1,26,A,2023-09-21_14h45.03.937,exp3,2022.2.2,
,,,,,,,,,,,,,,,,,,,,,,,,64,-1158,Valid,noise,45,2,1.5211155998986214,1,3.0,2.8294401000021026,True,1,26,A,2023-09-21_14h45.03.937,exp3,2022.2.2,
,,,,,,,,,,,,,,,,,,,,,,,,65,-2274,Valid,signal,45,2,3.1224570999620482,0,1.0,4.43048560002353,True,1,26,A,2023-09-21_14h45.03.937,exp3,2022.2.2,
,,,,,,,,,,,,,,,,,,,,,,,,66,1716,Valid,noise,45,2,2.1380584000144154,1,2.0,3.446286299964413,True,1,26,A,2023-09-21_14h45.03.937,exp3,2022.2.2,
,,,,,,,,,,,,,,,,,,,,,,,,67,557,Valid,noise,-45,2,3.5551522999303415,1,2.0,4.863637099973857,True,1,26,A,2023-09-21_14h45.03.937,exp3,2022.2.2,
,,,,,,,,,,,,,,,,,,,,,,,,68,-2274,Valid,noise,-45,2,2.6887086000060663,1,1.0,3.9967999000800774,True,1,26,A,2023-09-21_14h45.03.937,exp3,2022.2.2,
,,,,,,,,,,,,,,,,,,,,,,,,69,1716,Invalid,signal,45,1,3.0218966000247747,1,2.0,4.330135900061578,True,1,26,A,2023-09-21_14h45.03.937,exp3,2022.2.2,
,,,,,,,,,,,,,,,,,,,,,,,,70,1158,Valid,noise,45,1,2.572497000102885,0,1.0,3.8804659000597894,True,1,26,A,2023-09-21_14h45.03.937,exp3,2022.2.2,
,,,,,,,,,,,,,,,,,,,,,,,,71,-1716,Valid,noise,45,2,1.9210531000280753,1,2.0,3.2290975999785587,True,1,26,A,2023-09-21_14h45.03.937,exp3,2022.2.2,
,,,,,,,,,,,,,,,,,,,,,,,,72,-1158,Invalid,noise,-45,2,3.154815600020811,1,2.0,4.463225499959663,True,1,26,A,2023-09-21_14h45.03.937,exp3,2022.2.2,
,,,,,,,,,,,,,,,,,,,,,,,,73,-2274,Valid,noise,45,2,2.755644000018947,1,2.0,4.063953600008972,True,1,26,A,2023-09-21_14h45.03.937,exp3,2022.2.2,
,,,,,,,,,,,,,,,,,,,,,,,,74,557,Valid,signal,-45,1,3.8053635000251234,1,3.0,5.113262899918482,True,1,26,A,2023-09-21_14h45.03.937,exp3,2022.2.2,
,,,,,,,,,,,,,,,,,,,,,,,,75,-557,Valid,noise,-45,2,2.0377092000562698,1,2.0,11.766927700024098,True,2,26,A,2023-09-21_14h45.03.937,exp3,2022.2.2,
,,,,,,,,,,,,,,,,,,,,,,,,76,-1716,Valid,signal,45,1,4.238758400082588,1,3.0,5.546830500010401,True,1,26,A,2023-09-21_14h45.03.937,exp3,2022.2.2,
,,,,,,,,,,,,,,,,,,,,,,,,77,-2274,Valid,noise,-45,2,1.7542567999335006,1,1.0,3.06259119999595,True,1,26,A,2023-09-21_14h45.03.937,exp3,2022.2.2,
,,,,,,,,,,,,,,,,,,,,,,,,78,-1716,Valid,signal,45,1,3.188237400026992,1,2.0,4.496691199950874,True,1,26,A,2023-09-21_14h45.03.937,exp3,2022.2.2,
,,,,,,,,,,,,,,,,,,,,,,,,79,-1158,Valid,signal,45,1,2.0882424000883475,1,2.0,3.396554799983278,True,1,26,A,2023-09-21_14h45.03.937,exp3,2022.2.2,
,,,,,,,,,,,,,,,,,,,,,,,,80,1716,Invalid,noise,-45,2,3.706150499987416,1,1.0,5.014249600004405,True,1,26,A,2023-09-21_14h45.03.937,exp3,2022.2.2,
,,,,,,,,,,,,,,,,,,,,,,,,81,1716,Valid,signal,-45,1,7.952111100079492,1,2.0,13.516623300034553,True,2,26,A,2023-09-21_14h45.03.937,exp3,2022.2.2,
,,,,,,,,,,,,,,,,,,,,,,,,82,-557,Valid,noise,-45,2,2.511959799914621,1,2.0,3.8206285000778735,True,1,26,A,2023-09-21_14h45.03.937,exp3,2022.2.2,
,,,,,,,,,,,,,,,,,,,,,,,,83,-1158,Valid,noise,-45,2,3.448451600037515,1,2.0,4.7562861000187695,True,1,26,A,2023-09-21_14h45.03.937,exp3,2022.2.2,
,,,,,,,,,,,,,,,,,,,,,,,,84,-1716,Invalid,signal,45,2,3.4885827000252903,0,1.0,4.796641199965961,True,1,26,A,2023-09-21_14h45.03.937,exp3,2022.2.2,
,,,,,,,,,,,,,,,,,,,,,,,,85,-1158,Invalid,noise,-45,2,2.955180700053461,1,2.0,4.263447599951178,True,1,26,A,2023-09-21_14h45.03.937,exp3,2022.2.2,
,,,,,,,,,,,,,,,,,,,,,,,,86,-1158,Valid,signal,-45,1,4.372145799919963,1,2.0,5.680446399957873,True,1,26,A,2023-09-21_14h45.03.937,exp3,2022.2.2,
,,,,,,,,,,,,,,,,,,,,,,,,87,1158,Valid,noise,45,2,2.0133108999580145,1,2.0,6.664898099959828,True,2,26,A,2023-09-21_14h45.03.937,exp3,2022.2.2,
,,,,,,,,,,,,,,,,,,,,,,,,88,1716,Valid,noise,45,2,2.504631199990399,1,2.0,3.8127805999247357,True,1,26,A,2023-09-21_14h45.03.937,exp3,2022.2.2,
,,,,,,,,,,,,,,,,,,,,,,,,89,-1716,Valid,signal,45,1,1.2878092000028118,1,3.0,2.5960093999747187,True,1,26,A,2023-09-21_14h45.03.937,exp3,2022.2.2,
,,,,,,,,,,,,,,,,,,,,,,,,90,1716,Valid,signal,45,1,1.3718431999441236,1,3.0,2.6799217999214306,True,1,26,A,2023-09-21_14h45.03.937,exp3,2022.2.2,
,,,,,,,,,,,,,,,,,,,,,,,,91,557,Valid,signal,45,1,1.3213298000628129,1,3.0,2.6292021999834105,True,1,26,A,2023-09-21_14h45.03.937,exp3,2022.2.2,
,,,,,,,,,,,,,,,,,,,,,,,,92,-1716,Valid,noise,45,2,2.7219777000136673,1,2.0,4.029845999903046,True,1,26,A,2023-09-21_14h45.03.937,exp3,2022.2.2,
,,,,,,,,,,,,,,,,,,,,,,,,93,-557,Valid,signal,-45,1,1.7379917999496683,1,3.0,3.0460768999764696,True,1,26,A,2023-09-21_14h45.03.937,exp3,2022.2.2,
,,,,,,,,,,,,,,,,,,,,,,,,94,557,Valid,noise,45,2,1.58756680006627,1,2.0,2.8958686999976635,True,1,26,A,2023-09-21_14h45.03.937,exp3,2022.2.2,
,,,,,,,,,,,,,,,,,,,,,,,,95,2274,Valid,noise,-45,2,3.7390132999280468,1,1.0,5.047269599977881,True,1,26,A,2023-09-21_14h45.03.937,exp3,2022.2.2,
,,,,,,,,,,,,,,,,,,,,,,,,96,557,Valid,noise,45,2,2.5716726999962702,1,2.0,3.8801296999445185,True,1,26,A,2023-09-21_14h45.03.937,exp3,2022.2.2,
,,,,,,,,,,,,,,,,,,,,,,,,97,-1716,Valid,signal,-45,1,1.821952800033614,1,3.0,3.1300534000620246,True,1,26,A,2023-09-21_14h45.03.937,exp3,2022.2.2,
,,,,,,,,,,,,,,,,,,,,,,,,98,557,Valid,signal,-45,1,2.3215575999347493,1,3.0,3.6295313000446185,True,1,26,A,2023-09-21_14h45.03.937,exp3,2022.2.2,
,,,,,,,,,,,,,,,,,,,,,,,,99,-2274,Valid,noise,-45,2,2.361886900034733,1,1.0,6.747759800055064,True,2,26,A,2023-09-21_14h45.03.937,exp3,2022.2.2,
,,,,,,,,,,,,,,,,,,,,,,,,100,-1158,Valid,noise,-45,2,2.6046672000084072,1,2.0,3.913099500001408,True,1,26,A,2023-09-21_14h45.03.937,exp3,2022.2.2,
,,,,,,,,,,,,,,,,,,,,,,,,101,-557,Valid,signal,45,1,6.62387959996704,1,3.0,7.931769100017846,True,1,26,A,2023-09-21_14h45.03.937,exp3,2022.2.2,
,,,,,,,,,,,,,,,,,,,,,,,,102,557,Valid,signal,45,1,1.3706901000114158,1,3.0,2.679402800044045,True,1,26,A,2023-09-21_14h45.03.937,exp3,2022.2.2,
,,,,,,,,,,,,,,,,,,,,,,,,103,-1716,Valid,signal,-45,1,1.3713415000820532,1,3.0,2.679579999996349,True,1,26,A,2023-09-21_14h45.03.937,exp3,2022.2.2,
,,,,,,,,,,,,,,,,,,,,,,,,104,1716,Valid,noise,-45,2,2.7392829000018537,1,1.0,8.148534500040114,True,3,26,A,2023-09-21_14h45.03.937,exp3,2022.2.2,
,,,,,,,,,,,,,,,,,,,,,,,,105,1158,Invalid,signal,45,2,3.3882227999856696,0,2.0,4.696279700030573,True,1,26,A,2023-09-21_14h45.03.937,exp3,2022.2.2,
,,,,,,,,,,,,,,,,,,,,,,,,106,1158,Valid,signal,45,1,4.055503100040369,1,2.0,5.363744299975224,True,1,26,A,2023-09-21_14h45.03.937,exp3,2022.2.2,
,,,,,,,,,,,,,,,,,,,,,,,,107,-557,Valid,signal,-45,1,2.2887560999952257,1,3.0,3.5968661000952125,True,1,26,A,2023-09-21_14h45.03.937,exp3,2022.2.2,
,,,,,,,,,,,,,,,,,,,,,,,,108,-1716,Valid,noise,-45,1,3.755916199996136,0,1.0,5.063770900014788,True,1,26,A,2023-09-21_14h45.03.937,exp3,2022.2.2,
,,,,,,,,,,,,,,,,,,,,,,,,109,2274,Invalid,noise,-45,2,2.254700000048615,1,1.0,3.5627704999642447,True,1,26,A,2023-09-21_14h45.03.937,exp3,2022.2.2,
,,,,,,,,,,,,,,,,,,,,,,,,110,-2274,Invalid,noise,45,2,3.7393655000487342,1,1.0,5.047370600048453,True,1,26,A,2023-09-21_14h45.03.937,exp3,2022.2.2,
,,,,,,,,,,,,,,,,,,,,,,,,111,1716,Invalid,noise,45,2,2.5042831999016926,1,2.0,3.81252969999332,True,1,26,A,2023-09-21_14h45.03.937,exp3,2022.2.2,
,,,,,,,,,,,,,,,,,,,,,,,,112,1158,Invalid,noise,45,2,2.5023919999366626,1,2.0,5.664018500014208,True,2,26,A,2023-09-21_14h45.03.937,exp3,2022.2.2,
,,,,,,,,,,,,,,,,,,,,,,,,113,-2274,Valid,signal,-45,2,2.0973929999163374,0,2.0,7.581397300004028,True,3,26,A,2023-09-21_14h45.03.937,exp3,2022.2.2,
,,,,,,,,,,,,,,,,,,,,,,,,114,557,Valid,signal,-45,1,1.803910700022243,1,3.0,3.112451099907048,True,1,26,A,2023-09-21_14h45.03.937,exp3,2022.2.2,
,,,,,,,,,,,,,,,,,,,,,,,,115,2274,Valid,noise,-45,2,2.4054522999795154,1,1.0,3.7134935000212863,True,1,26,A,2023-09-21_14h45.03.937,exp3,2022.2.2,
,,,,,,,,,,,,,,,,,,,,,,,,116,-557,Valid,noise,45,2,1.90475680003874,1,3.0,3.213012699969113,True,1,26,A,2023-09-21_14h45.03.937,exp3,2022.2.2,
,,,,,,,,,,,,,,,,,,,,,,,,117,-557,Valid,noise,45,2,3.672156500048004,1,2.0,4.9803253000136465,True,1,26,A,2023-09-21_14h45.03.937,exp3,2022.2.2,
,,,,,,,,,,,,,,,,,,,,,,,,118,-557,Valid,signal,-45,1,4.305902599939145,1,3.0,5.614068900002167,True,1,26,A,2023-09-21_14h45.03.937,exp3,2022.2.2,
,,,,,,,,,,,,,,,,,,,,,,,,119,-1716,Valid,noise,45,2,9.191125199897215,1,2.0,10.499377900036052,True,1,26,A,2023-09-21_14h45.03.937,exp3,2022.2.2,
,,,,,,,,,,,,,,,,,,,,,,,,120,2274,Valid,noise,-45,2,1.854539699968882,1,1.0,3.162722500041127,True,1,26,A,2023-09-21_14h45.03.937,exp3,2022.2.2,
,,,,,,,,,,,,,,,,,,,,,,,,121,1158,Valid,signal,-45,1,3.7558877998963,1,2.0,5.064148599980399,True,1,26,A,2023-09-21_14h45.03.937,exp3,2022.2.2,
,,,,,,,,,,,,,,,,,,,,,,,,122,2274,Valid,noise,45,1,2.287863100063987,0,1.0,3.5960938999196514,True,1,26,A,2023-09-21_14h45.03.937,exp3,2022.2.2,
,,,,,,,,,,,,,,,,,,,,,,,,123,-2274,Valid,noise,-45,1,1.737947199959308,0,1.0,3.0462542000459507,True,1,26,A,2023-09-21_14h45.03.937,exp3,2022.2.2,
,,,,,,,,,,,,,,,,,,,,,,,,124,1716,Valid,signal,45,1,1.7714339999947697,1,3.0,3.0797773000085726,True,1,26,A,2023-09-21_14h45.03.937,exp3,2022.2.2,
,,,,,,,,,,,,,,,,,,,,,,,,125,-557,Valid,noise,45,2,1.9234199000056833,1,2.0,5.080552600091323,True,2,26,A,2023-09-21_14h45.03.937,exp3,2022.2.2,
,,,,,,,,,,,,,,,,,,,,,,,,126,557,Valid,signal,-45,1,1.3541650999104604,1,2.0,2.6628227999899536,True,1,26,A,2023-09-21_14h45.03.937,exp3,2022.2.2,
,,,,,,,,,,,,,,,,,,,,,,,,127,-1716,Valid,noise,-45,2,1.9383378999773413,1,2.0,3.246756899985485,True,1,26,A,2023-09-21_14h45.03.937,exp3,2022.2.2,
,,,,,,,,,,,,,,,,,,,,,,,,128,557,Valid,signal,-45,1,3.1881002000300214,1,3.0,4.496431600069627,True,1,26,A,2023-09-21_14h45.03.937,exp3,2022.2.2,
,,,,,,,,,,,,,,,,,,,,,,,,129,-1158,Valid,signal,-45,1,2.471505400026217,1,3.0,3.7798237999668345,True,1,26,A,2023-09-21_14h45.03.937,exp3,2022.2.2,
,,,,,,,,,,,,,,,,,,,,,,,,130,1716,Valid,noise,-45,2,3.2218909000512213,1,3.0,4.53027399990242,True,1,26,A,2023-09-21_14h45.03.937,exp3,2022.2.2,
,,,,,,,,,,,,,,,,,,,,,,,,131,1716,Invalid,signal,45,1,1.8548037000000477,1,3.0,3.163059899932705,True,1,26,A,2023-09-21_14h45.03.937,exp3,2022.2.2,
,,,,,,,,,,,,,,,,,,,,,,,,132,2274,Valid,signal,45,2,2.039044799981639,0,1.0,3.346983899944462,True,1,26,A,2023-09-21_14h45.03.937,exp3,2022.2.2,
,,,,,,,,,,,,,,,,,,,,,,,,133,-557,Valid,noise,45,2,2.0660383000504225,1,2.0,5.16320710000582,True,2,26,A,2023-09-21_14h45.03.937,exp3,2022.2.2,
,,,,,,,,,,,,,,,,,,,,,,,,134,-2274,Invalid,noise,-45,2,3.9388014000141993,1,1.0,5.247114500030875,True,1,26,A,2023-09-21_14h45.03.937,exp3,2022.2.2,
,,,,,,,,,,,,,,,,,,,,,,,,135,2274,Valid,signal,-45,2,2.388426899909973,0,1.0,7.848057500086725,True,3,26,A,2023-09-21_14h45.03.937,exp3,2022.2.2,
,,,,,,,,,,,,,,,,,,,,,,,,136,-1716,Valid,noise,-45,2,5.264252900029533,1,3.0,90.0467057999922,True,7,26,A,2023-09-21_14h45.03.937,exp3,2022.2.2,
,,,,,,,,,,,,,,,,,,,,,,,,137,557,Valid,noise,-45,2,1.5037513000424951,1,3.0,2.8125010000076145,True,1,26,A,2023-09-21_14h45.03.937,exp3,2022.2.2,
,,,,,,,,,,,,,,,,,,,,,,,,138,-1716,Invalid,noise,45,2,2.0716251999838278,1,1.0,3.380030700005591,True,1,26,A,2023-09-21_14h45.03.937,exp3,2022.2.2,
,,,,,,,,,,,,,,,,,,,,,,,,139,1716,Valid,signal,45,1,1.7213212000206113,1,3.0,3.0295695000095293,True,1,26,A,2023-09-21_14h45.03.937,exp3,2022.2.2,
,,,,,,,,,,,,,,,,,,,,,,,,140,1716,Valid,noise,-45,2,1.571549400105141,1,2.0,2.8796298999805003,True,1,26,A,2023-09-21_14h45.03.937,exp3,2022.2.2,
,,,,,,,,,,,,,,,,,,,,,,,,141,-1158,Valid,noise,45,2,1.8219933999935165,1,2.0,3.1299377999966964,True,1,26,A,2023-09-21_14h45.03.937,exp3,2022.2.2,
,,,,,,,,,,,,,,,,,,,,,,,,142,2274,Valid,signal,-45,2,2.804798800032586,0,2.0,4.11315150000155,True,1,26,A,2023-09-21_14h45.03.937,exp3,2022.2.2,
,,,,,,,,,,,,,,,,,,,,,,,,143,2274,Valid,noise,-45,2,1.271444100071676,1,2.0,2.5795268000802025,True,1,26,A,2023-09-21_14h45.03.937,exp3,2022.2.2,
,,,,,,,,,,,,,,,,,,,,,,,,144,557,Valid,noise,-45,2,1.47161409992259,1,2.0,2.779461900005117,True,1,26,A,2023-09-21_14h45.03.937,exp3,2022.2.2,
,,,,,,,,,,,,,,,,,,,,,,,,145,-2274,Valid,signal,-45,2,1.6210048000793904,0,2.0,2.9292507999343798,True,1,26,A,2023-09-21_14h45.03.937,exp3,2022.2.2,
,,,,,,,,,,,,,,,,,,,,,,,,146,2274,Valid,signal,45,1,1.9383517999667674,1,1.0,3.246438800008036,True,1,26,A,2023-09-21_14h45.03.937,exp3,2022.2.2,
,,,,,,,,,,,,,,,,,,,,,,,,147,-2274,Valid,signal,45,2,2.2049027999164537,0,1.0,3.513000600039959,True,1,26,A,2023-09-21_14h45.03.937,exp3,2022.2.2,
,,,,,,,,,,,,,,,,,,,,,,,,148,-1158,Valid,signal,-45,1,1.6375020000850782,1,3.0,2.9459098000079393,True,1,26,A,2023-09-21_14h45.03.937,exp3,2022.2.2,
,,,,,,,,,,,,,,,,,,,,,,,,149,1158,Valid,noise,45,2,2.088928799959831,1,2.0,3.396960400044918,True,1,26,A,2023-09-21_14h45.03.937,exp3,2022.2.2,
,,,,,,,,,,,,,,,,,,,,,,,,150,-557,Valid,noise,45,1,5.272465100046247,0,1.0,6.580715999938548,True,1,26,A,2023-09-21_14h45.03.937,exp3,2022.2.2,
,,,,,,,,,,,,,,,,,,,,,,,,151,557,Valid,signal,45,1,2.6886174000101164,1,3.0,3.9966164000798017,True,1,26,A,2023-09-21_14h45.03.937,exp3,2022.2.2,
,,,,,,,,,,,,,,,,,,,,,,,,152,-2274,Valid,noise,45,2,2.0379154999973252,1,1.0,3.3462859999854118,True,1,26,A,2023-09-21_14h45.03.937,exp3,2022.2.2,
,,,,,,,,,,,,,,,,,,,,,,,,153,1716,Valid,noise,45,2,4.47290759999305,1,2.0,5.781027900055051,True,1,26,A,2023-09-21_14h45.03.937,exp3,2022.2.2,
,,,,,,,,,,,,,,,,,,,,,,,,154,-1716,Valid,signal,-45,1,1.4879739999305457,1,3.0,2.796159000019543,True,1,26,A,2023-09-21_14h45.03.937,exp3,2022.2.2,
,,,,,,,,,,,,,,,,,,,,,,,,155,557,Invalid,signal,45,1,2.054876600042917,1,4.0,3.3631418999284506,True,1,26,A,2023-09-21_14h45.03.937,exp3,2022.2.2,
,,,,,,,,,,,,,,,,,,,,,,,,156,2274,Valid,noise,-45,2,1.7191517000319436,1,1.0,6.197579099913128,True,2,26,A,2023-09-21_14h45.03.937,exp3,2022.2.2,
,,,,,,,,,,,,,,,,,,,,,,,,157,-2274,Valid,signal,45,2,2.3549845999805257,0,1.0,3.6631689000641927,True,1,26,A,2023-09-21_14h45.03.937,exp3,2022.2.2,
,,,,,,,,,,,,,,,,,,,,,,,,158,-557,Valid,signal,45,1,4.12304590002168,1,4.0,5.430985999992117,True,1,26,A,2023-09-21_14h45.03.937,exp3,2022.2.2,
,,,,,,,,,,,,,,,,,,,,,,,,159,-1158,Valid,noise,45,2,2.8377670999616385,1,2.0,4.146229900070466,True,1,26,A,2023-09-21_14h45.03.937,exp3,2022.2.2,
,,,,,,,,,,,,,,,,,,,,,,,,160,1158,Valid,noise,45,2,2.338388100033626,1,2.0,3.6465227000880986,True,1,26,A,2023-09-21_14h45.03.937,exp3,2022.2.2,
,,,,,,,,,,,,,,,,,,,,,,,,161,-557,Valid,signal,45,1,4.388816099963151,1,3.0,5.696878799935803,True,1,26,A,2023-09-21_14h45.03.937,exp3,2022.2.2,
,,,,,,,,,,,,,,,,,,,,,,,,162,-1716,Valid,signal,45,1,4.85639169998467,1,3.0,6.164560899953358,True,1,26,A,2023-09-21_14h45.03.937,exp3,2022.2.2,
,,,,,,,,,,,,,,,,,,,,,,,,163,-1716,Valid,noise,45,2,1.845892300014384,1,2.0,7.764703699969687,True,2,26,A,2023-09-21_14h45.03.937,exp3,2022.2.2,
,,,,,,,,,,,,,,,,,,,,,,,,164,1158,Valid,noise,-45,2,1.3540421999059618,1,2.0,2.6623519000131637,True,1,26,A,2023-09-21_14h45.03.937,exp3,2022.2.2,
,,,,,,,,,,,,,,,,,,,,,,,,165,-1716,Valid,signal,45,1,1.3549145000288263,1,2.0,2.662944499985315,True,1,26,A,2023-09-21_14h45.03.937,exp3,2022.2.2,
,,,,,,,,,,,,,,,,,,,,,,,,166,-2274,Invalid,signal,45,2,1.5385363000677899,0,1.0,2.846862299949862,True,1,26,A,2023-09-21_14h45.03.937,exp3,2022.2.2,
,,,,,,,,,,,,,,,,,,,,,,,,167,2274,Invalid,noise,45,2,3.4888224999886006,1,1.0,4.796822799951769,True,1,26,A,2023-09-21_14h45.03.937,exp3,2022.2.2,
,,,,,,,,,,,,,,,,,,,,,,,,168,1158,Invalid,noise,45,2,1.9903619999531657,1,2.0,5.046544099925086,True,2,26,A,2023-09-21_14h45.03.937,exp3,2022.2.2,
,,,,,,,,,,,,,,,,,,,,,,,,169,1158,Valid,noise,45,2,1.1380904000252485,1,2.0,2.4462021000217646,True,1,26,A,2023-09-21_14h45.03.937,exp3,2022.2.2,
,,,,,,,,,,,,,,,,,,,,,,,,170,2274,Valid,noise,45,2,2.4053353999042884,1,1.0,3.7134631999069825,True,1,26,A,2023-09-21_14h45.03.937,exp3,2022.2.2,
,,,,,,,,,,,,,,,,,,,,,,,,171,-2274,Valid,signal,-45,2,1.654813600005582,0,1.0,2.962788400007412,True,1,26,A,2023-09-21_14h45.03.937,exp3,2022.2.2,
,,,,,,,,,,,,,,,,,,,,,,,,172,557,Valid,signal,45,1,3.0724501999793574,1,3.0,4.380294299917296,True,1,26,A,2023-09-21_14h45.03.937,exp3,2022.2.2,
,,,,,,,,,,,,,,,,,,,,,,,,173,-2274,Valid,signal,45,2,5.12188370001968,0,1.0,6.43024409993086,True,1,26,A,2023-09-21_14h45.03.937,exp3,2022.2.2,
,,,,,,,,,,,,,,,,,,,,,,,,174,1158,Valid,signal,45,2,2.8555332999676466,0,1.0,4.163642500061542,True,1,26,A,2023-09-21_14h45.03.937,exp3,2022.2.2,
,,,,,,,,,,,,,,,,,,,,,,,,175,1158,Invalid,signal,45,1,1.8447478999150917,1,3.0,4.880483699962497,True,2,26,A,2023-09-21_14h45.03.937,exp3,2022.2.2,
,,,,,,,,,,,,,,,,,,,,,,,,176,1716,Valid,noise,45,2,2.8217197000049055,1,2.0,4.1299498999724165,True,1,26,A,2023-09-21_14h45.03.937,exp3,2022.2.2,
,,,,,,,,,,,,,,,,,,,,,,,,2,-1716,Invalid,signal,-45,1,3.3390997999813408,1,3.0,104.29528750001919,True,16,26,A,2023-09-21_14h45.03.937,exp3,2022.2.2,
,,,,,,,,,,,,,,,,,,,,,,,,4,2274,Valid,noise,-45,2,4.679743699962273,1,1.0,10.366215600050054,True,2,26,A,2023-09-21_14h45.03.937,exp3,2022.2.2,
,,,,,,,,,,,,,,,,,,,,,,,,6,557,Valid,noise,-45,2,2.204670900013298,1,3.0,3.5133875000756234,True,1,26,A,2023-09-21_14h45.03.937,exp3,2022.2.2,
,,,,,,,,,,,,,,,,,,,,,,,,8,557,Invalid,noise,-45,2,2.2041489999974146,1,3.0,3.512700799969025,True,1,26,A,2023-09-21_14h45.03.937,exp3,2022.2.2,
,,,,,,,,,,,,,,,,,,,,,,,,10,-557,Valid,signal,45,1,2.004596000071615,1,3.0,3.3130848000291735,True,1,26,A,2023-09-21_14h45.03.937,exp3,2022.2.2,
,,,,,,,,,,,,,,,,,,,,,,,,12,-2274,Valid,signal,-45,1,4.038398200063966,1,1.0,5.34689150005579,True,1,26,A,2023-09-21_14h45.03.937,exp3,2022.2.2,
,,,,,,,,,,,,,,,,,,,,,,,,14,1158,Invalid,noise,45,2,3.9382217000238597,1,2.0,5.246983600081876,True,1,26,A,2023-09-21_14h45.03.937,exp3,2022.2.2,
,,,,,,,,,,,,,,,,,,,,,,,,16,1716,Valid,noise,45,2,5.5396636999212205,1,2.0,6.848340200027451,True,1,26,A,2023-09-21_14h45.03.937,exp3,2022.2.2,
,,,,,,,,,,,,,,,,,,,,,,,,18,-1158,Valid,noise,-45,2,1.5704302999656647,1,2.0,2.879144200007431,True,1,26,A,2023-09-21_14h45.03.937,exp3,2022.2.2,
,,,,,,,,,,,,,,,,,,,,,,,,20,-2274,Valid,signal,45,2,3.1887847000034526,0,2.0,4.497238100040704,True,1,26,A,2023-09-21_14h45.03.937,exp3,2022.2.2,
,,,,,,,,,,,,,,,,,,,,,,,,22,-557,Valid,signal,45,1,4.421415299992077,1,3.0,5.7301546999951825,True,1,26,A,2023-09-21_14h45.03.937,exp3,2022.2.2,
,,,,,,,,,,,,,,,,,,,,,,,,24,-557,Valid,noise,45,2,1.904480499913916,1,4.0,3.213086299947463,True,1,26,A,2023-09-21_14h45.03.937,exp3,2022.2.2,
,,,,,,,,,,,,,,,,,,,,,,,,26,1716,Valid,noise,45,2,1.5547173999948427,1,3.0,2.8631268999306485,True,1,26,A,2023-09-21_14h45.03.937,exp3,2022.2.2,
,,,,,,,,,,,,,,,,,,,,,,,,28,2274,Valid,signal,45,2,5.772409099969082,0,1.0,7.080830899998546,True,1,26,A,2023-09-21_14h45.03.937,exp3,2022.2.2,
,,,,,,,,,,,,,,,,,,,,,,,,30,2274,Valid,signal,-45,2,3.254686100059189,0,1.0,4.563434200012125,True,1,26,A,2023-09-21_14h45.03.937,exp3,2022.2.2,
,,,,,,,,,,,,,,,,,,,,,,,,32,557,Invalid,noise,45,2,3.72224010003265,1,3.0,5.030556800076738,True,1,26,A,2023-09-21_14h45.03.937,exp3,2022.2.2,
,,,,,,,,,,,,,,,,,,,,,,,,34,-2274,Valid,noise,-45,2,2.1042316999519244,1,2.0,3.4128043999662623,True,1,26,A,2023-09-21_14h45.03.937,exp3,2022.2.2,
,,,,,,,,,,,,,,,,,,,,,,,,36,-1716,Valid,signal,45,1,1.3546604999573901,1,3.0,2.662904299912043,True,1,26,A,2023-09-21_14h45.03.937,exp3,2022.2.2,
,,,,,,,,,,,,,,,,,,,,,,,,38,-1716,Valid,signal,45,1,4.488370600040071,1,3.0,5.796952200005762,True,1,26,A,2023-09-21_14h45.03.937,exp3,2022.2.2,
,,,,,,,,,,,,,,,,,,,,,,,,40,-1716,Valid,signal,45,1,2.221037600073032,1,3.0,3.529820700059645,True,1,26,A,2023-09-21_14h45.03.937,exp3,2022.2.2,
,,,,,,,,,,,,,,,,,,,,,,,,42,-1158,Invalid,signal,45,1,1.1539770000381395,1,3.0,2.4627482999349013,True,1,26,A,2023-09-21_14h45.03.937,exp3,2022.2.2,
,,,,,,,,,,,,,,,,,,,,,,,,44,1716,Invalid,noise,-45,2,2.238349400111474,1,2.0,3.5467269000364468,True,1,26,A,2023-09-21_14h45.03.937,exp3,2022.2.2,
,,,,,,,,,,,,,,,,,,,,,,,,46,-1716,Valid,noise,45,2,1.5878438000800088,1,2.0,2.8962745000608265,True,1,26,A,2023-09-21_14h45.03.937,exp3,2022.2.2,
,,,,,,,,,,,,,,,,,,,,,,,,48,2274,Valid,signal,-45,2,2.6715038999682292,0,1.0,3.9800869000609964,True,1,26,A,2023-09-21_14h45.03.937,exp3,2022.2.2,
,,,,,,,,,,,,,,,,,,,,,,,,50,1158,Valid,noise,-45,2,1.687755100079812,1,1.0,2.9961187000153586,True,1,26,A,2023-09-21_14h45.03.937,exp3,2022.2.2,
,,,,,,,,,,,,,,,,,,,,,,,,52,557,Valid,noise,-45,2,2.604240700020455,1,3.0,3.9130264000268653,True,1,26,A,2023-09-21_14h45.03.937,exp3,2022.2.2,
,,,,,,,,,,,,,,,,,,,,,,,,54,1716,Invalid,signal,45,1,2.621360699995421,1,2.0,3.929900300106965,True,1,26,A,2023-09-21_14h45.03.937,exp3,2022.2.2,
,,,,,,,,,,,,,,,,,,,,,,,,56,557,Valid,signal,-45,1,1.7713553999783471,1,3.0,3.0798771999543533,True,1,26,A,2023-09-21_14h45.03.937,exp3,2022.2.2,
,,,,,,,,,,,,,,,,,,,,,,,,58,557,Invalid,signal,45,1,1.05429399991408,1,3.0,2.3627755000488833,True,1,26,A,2023-09-21_14h45.03.937,exp3,2022.2.2,
,,,,,,,,,,,,,,,,,,,,,,,,60,1716,Valid,signal,45,1,1.0874464000808075,1,3.0,2.395932199899107,True,1,26,A,2023-09-21_14h45.03.937,exp3,2022.2.2,
,,,,,,,,,,,,,,,,,,,,,,,,62,-1158,Invalid,noise,45,2,1.1715221999911591,1,3.0,2.479708799975924,True,1,26,A,2023-09-21_14h45.03.937,exp3,2022.2.2,
,,,,,,,,,,,,,,,,,,,,,,,,64,-1716,Invalid,noise,-45,2,1.6537505000596866,1,2.0,2.9622222000034526,True,1,26,A,2023-09-21_14h45.03.937,exp3,2022.2.2,
,,,,,,,,,,,,,,,,,,,,,,,,66,-557,Valid,noise,-45,2,1.4381582000060007,1,3.0,2.7464520999928936,True,1,26,A,2023-09-21_14h45.03.937,exp3,2022.2.2,
,,,,,,,,,,,,,,,,,,,,,,,,68,-1716,Valid,noise,-45,2,1.8543436999898404,1,3.0,3.162944099982269,True,1,26,A,2023-09-21_14h45.03.937,exp3,2022.2.2,
,,,,,,,,,,,,,,,,,,,,,,,,70,1716,Valid,noise,-45,2,1.1038175000576302,1,3.0,2.4127995000453666,True,1,26,A,2023-09-21_14h45.03.937,exp3,2022.2.2,
,,,,,,,,,,,,,,,,,,,,,,,,72,-1158,Valid,noise,-45,2,0.971244900021702,1,3.0,2.2797005999600515,True,1,26,A,2023-09-21_14h45.03.937,exp3,2022.2.2,
,,,,,,,,,,,,,,,,,,,,,,,,74,-557,Invalid,noise,45,2,1.6606214999919757,1,3.0,4.763232999946922,True,2,26,A,2023-09-21_14h45.03.937,exp3,2022.2.2,
,,,,,,,,,,,,,,,,,,,,,,,,76,1158,Valid,noise,-45,2,1.4212564000627026,1,3.0,2.729728400008753,True,1,26,A,2023-09-21_14h45.03.937,exp3,2022.2.2,
,,,,,,,,,,,,,,,,,,,,,,,,78,1158,Invalid,signal,-45,1,1.587399399955757,1,3.0,2.8960248000221327,True,1,26,A,2023-09-21_14h45.03.937,exp3,2022.2.2,
,,,,,,,,,,,,,,,,,,,,,,,,80,2274,Valid,noise,45,2,2.5050979000516236,1,2.0,3.8135322999441996,True,1,26,A,2023-09-21_14h45.03.937,exp3,2022.2.2,
,,,,,,,,,,,,,,,,,,,,,,,,82,-2274,Valid,noise,45,2,2.241078200051561,1,1.0,7.664709799923003,True,2,26,A,2023-09-21_14h45.03.937,exp3,2022.2.2,
