trials.label,trials.startVal,trials.maxVal,trials.minVal,trials.startValSd,trials.pthreshold,trials.beta,trials.delta,trials.gamma,trials.grain,trials.stepSize,trials.range,trials.cue,trials.thisIndex,trials.thisRepN,trials.thisN,trials.direction,trials.stepType,trials.intensity,signalOpacity,level,trials.response,stair_eye_ok,nTrial,position,validity,Stimulus,orientation,response_key,response_rt,response_correct,confidence,confidence_rt,eye_ok,participant,session,date,expName,psychopyVersion,
low_opac_i,0.4,1,0.01,3,0.82,3.5,0.01,0,0.01,4,5,Invalid,2,1,0,start,lin,0.4,0,0.4,1,True,,,,,,,,,,,,2,A,2023-08-28_09h25.29.277,exp3,2022.2.2,
high_opac_v,0.01,1,0.01,3,0.82,3.5,0.01,0,0.01,4,5,Valid,1,1,1,start,lin,0.01,0.01,0.01,0,True,,,,,,,,,,,,2,A,2023-08-28_09h25.29.277,exp3,2022.2.2,
low_opac_v,0.4,1,0.01,3,0.82,3.5,0.01,0,0.01,4,5,Valid,0,1,2,start,lin,0.4,0.4,0.4,1,True,,,,,,,,,,,,2,A,2023-08-28_09h25.29.277,exp3,2022.2.2,
high_opac_v,0.01,1,0.01,3,0.82,3.5,0.01,0,0.01,4,5,Valid,1,2,3,start,lin,1,1,1,1,True,,,,,,,,,,,,2,A,2023-08-28_09h25.29.277,exp3,2022.2.2,
low_opac_v,0.4,1,0.01,3,0.82,3.5,0.01,0,0.01,4,5,Valid,0,2,4,start,lin,0.01,0.01,0.01,0,True,,,,,,,,,,,,2,A,2023-08-28_09h25.29.277,exp3,2022.2.2,
low_opac_i,0.4,1,0.01,3,0.82,3.5,0.01,0,0.01,4,5,Invalid,2,2,5,start,lin,0.01,0,0.01,1,True,,,,,,,,,,,,2,A,2023-08-28_09h25.29.277,exp3,2022.2.2,
low_opac_i,0.4,1,0.01,3,0.82,3.5,0.01,0,0.01,4,5,Invalid,2,3,6,start,lin,0.01,0,0.01,1,True,,,,,,,,,,,,2,A,2023-08-28_09h25.29.277,exp3,2022.2.2,
high_opac_v,0.01,1,0.01,3,0.82,3.5,0.01,0,0.01,4,5,Valid,1,3,7,start,lin,0.6092784667527542,0,0.6092784667527542,1,True,,,,,,,,,,,,2,A,2023-08-28_09h25.29.277,exp3,2022.2.2,
low_opac_v,0.4,1,0.01,3,0.82,3.5,0.01,0,0.01,4,5,Valid,0,3,8,start,lin,0.3144098688205103,0.3144098688205103,0.3144098688205103,1,True,,,,,,,,,,,,2,A,2023-08-28_09h25.29.277,exp3,2022.2.2,
low_opac_i,0.4,1,0.01,3,0.82,3.5,0.01,0,0.01,4,5,Invalid,2,4,9,start,lin,0.01,0,0.01,1,True,,,,,,,,,,,,2,A,2023-08-28_09h25.29.277,exp3,2022.2.2,
low_opac_v,0.4,1,0.01,3,0.82,3.5,0.01,0,0.01,4,5,Valid,0,4,10,start,lin,0.23561159539411833,0.23561159539411833,0.23561159539411833,1,True,,,,,,,,,,,,2,A,2023-08-28_09h25.29.277,exp3,2022.2.2,
high_opac_v,0.01,1,0.01,3,0.82,3.5,0.01,0,0.01,4,5,Valid,1,4,11,start,lin,0.41662067589367746,0.41662067589367746,0.41662067589367746,1,True,,,,,,,,,,,,2,A,2023-08-28_09h25.29.277,exp3,2022.2.2,
low_opac_v,0.4,1,0.01,3,0.82,3.5,0.01,0,0.01,4,5,Valid,0,5,12,start,lin,0.1841780991895161,0,0.1841780991895161,1,True,,,,,,,,,,,,2,A,2023-08-28_09h25.29.277,exp3,2022.2.2,
high_opac_v,0.01,1,0.01,3,0.82,3.5,0.01,0,0.01,4,5,Valid,1,5,13,start,lin,0.3073330120243674,0,0.3073330120243674,1,True,,,,,,,,,,,,2,A,2023-08-28_09h25.29.277,exp3,2022.2.2,
low_opac_i,0.4,1,0.01,3,0.82,3.5,0.01,0,0.01,4,5,Invalid,2,5,14,start,lin,0.01,0,0.01,1,True,,,,,,,,,,,,2,A,2023-08-28_09h25.29.277,exp3,2022.2.2,
high_opac_v,0.01,1,0.01,3,0.82,3.5,0.01,0,0.01,4,5,Valid,1,6,15,start,lin,0.2346279982429363,0,0.2346279982429363,1,True,,,,,,,,,,,,2,A,2023-08-28_09h25.29.277,exp3,2022.2.2,
low_opac_i,0.4,1,0.01,3,0.82,3.5,0.01,0,0.01,4,5,Invalid,2,6,16,start,lin,0.01,0.01,0.01,0,True,,,,,,,,,,,,2,A,2023-08-28_09h25.29.277,exp3,2022.2.2,
low_opac_v,0.4,1,0.01,3,0.82,3.5,0.01,0,0.01,4,5,Valid,0,6,17,start,lin,0.14081453445857006,0.14081453445857006,0.14081453445857006,1,True,,,,,,,,,,,,2,A,2023-08-28_09h25.29.277,exp3,2022.2.2,
low_opac_i,0.4,1,0.01,3,0.82,3.5,0.01,0,0.01,4,5,Invalid,2,7,18,start,lin,0.01,0,0.01,1,True,,,,,,,,,,,,2,A,2023-08-28_09h25.29.277,exp3,2022.2.2,
low_opac_v,0.4,1,0.01,3,0.82,3.5,0.01,0,0.01,4,5,Valid,0,7,19,start,lin,0.10410764613410528,0,0.10410764613410528,1,True,,,,,,,,,,,,2,A,2023-08-28_09h25.29.277,exp3,2022.2.2,
high_opac_v,0.01,1,0.01,3,0.82,3.5,0.01,0,0.01,4,5,Valid,1,7,20,start,lin,0.1783883928663719,0.1783883928663719,0.1783883928663719,1,True,,,,,,,,,,,,2,A,2023-08-28_09h25.29.277,exp3,2022.2.2,
low_opac_v,0.4,1,0.01,3,0.82,3.5,0.01,0,0.01,4,5,Valid,0,8,21,start,lin,0.06939770050553568,0,0.06939770050553568,1,True,,,,,,,,,,,,2,A,2023-08-28_09h25.29.277,exp3,2022.2.2,
high_opac_v,0.01,1,0.01,3,0.82,3.5,0.01,0,0.01,4,5,Valid,1,8,22,start,lin,0.13459290957572173,0.13459290957572173,0.13459290957572173,1,True,,,,,,,,,,,,2,A,2023-08-28_09h25.29.277,exp3,2022.2.2,
low_opac_i,0.4,1,0.01,3,0.82,3.5,0.01,0,0.01,4,5,Invalid,2,8,23,start,lin,0.01,0,0.01,1,True,,,,,,,,,,,,2,A,2023-08-28_09h25.29.277,exp3,2022.2.2,
high_opac_v,0.01,1,0.01,3,0.82,3.5,0.01,0,0.01,4,5,Valid,1,9,24,start,lin,0.09461515961891341,0.09461515961891341,0.09461515961891341,0,True,,,,,,,,,,,,2,A,2023-08-28_09h25.29.277,exp3,2022.2.2,
low_opac_v,0.4,1,0.01,3,0.82,3.5,0.01,0,0.01,4,5,Valid,0,9,25,start,lin,0.03562832594001342,0,0.03562832594001342,1,True,,,,,,,,,,,,2,A,2023-08-28_09h25.29.277,exp3,2022.2.2,
low_opac_i,0.4,1,0.01,3,0.82,3.5,0.01,0,0.01,4,5,Invalid,2,9,26,start,lin,0.01,0,0.01,1,True,,,,,,,,,,,,2,A,2023-08-28_09h25.29.277,exp3,2022.2.2,
low_opac_i,0.4,1,0.01,3,0.82,3.5,0.01,0,0.01,4,5,Invalid,2,10,27,start,lin,0.01,0.01,0.01,0,True,,,,,,,,,,,,2,A,2023-08-28_09h25.29.277,exp3,2022.2.2,
low_opac_v,0.4,1,0.01,3,0.82,3.5,0.01,0,0.01,4,5,Valid,0,10,28,start,lin,0.01,0.01,0.01,0,True,,,,,,,,,,,,2,A,2023-08-28_09h25.29.277,exp3,2022.2.2,
high_opac_v,0.01,1,0.01,3,0.82,3.5,0.01,0,0.01,4,5,Valid,1,10,29,start,lin,0.18464869852036603,0.18464869852036603,0.18464869852036603,1,True,,,,,,,,,,,,2,A,2023-08-28_09h25.29.277,exp3,2022.2.2,
low_opac_v,0.4,1,0.01,3,0.82,3.5,0.01,0,0.01,4,5,Valid,0,11,30,start,lin,0.09193913297155182,0,0.09193913297155182,1,True,,,,,,,,,,,,2,A,2023-08-28_09h25.29.277,exp3,2022.2.2,
low_opac_i,0.4,1,0.01,3,0.82,3.5,0.01,0,0.01,4,5,Invalid,2,11,31,start,lin,0.013900250477006826,0,0.013900250477006826,1,True,,,,,,,,,,,,2,A,2023-08-28_09h25.29.277,exp3,2022.2.2,
high_opac_v,0.01,1,0.01,3,0.82,3.5,0.01,0,0.01,4,5,Valid,1,11,32,start,lin,0.16676008312784868,0,0.16676008312784868,1,True,,,,,,,,,,,,2,A,2023-08-28_09h25.29.277,exp3,2022.2.2,
high_opac_v,0.01,1,0.01,3,0.82,3.5,0.01,0,0.01,4,5,Valid,1,12,33,start,lin,0.15232797370509968,0,0.15232797370509968,1,True,,,,,,,,,,,,2,A,2023-08-28_09h25.29.277,exp3,2022.2.2,
low_opac_i,0.4,1,0.01,3,0.82,3.5,0.01,0,0.01,4,5,Invalid,2,12,34,start,lin,0.01,0.01,0.01,1,True,,,,,,,,,,,,2,A,2023-08-28_09h25.29.277,exp3,2022.2.2,
low_opac_v,0.4,1,0.01,3,0.82,3.5,0.01,0,0.01,4,5,Valid,0,12,35,start,lin,0.07921801582587351,0,0.07921801582587351,1,True,,,,,,,,,,,,2,A,2023-08-28_09h25.29.277,exp3,2022.2.2,
low_opac_v,0.4,1,0.01,3,0.82,3.5,0.01,0,0.01,4,5,Valid,0,13,36,start,lin,0.0679946021839894,0,0.0679946021839894,1,True,,,,,,,,,,,,2,A,2023-08-28_09h25.29.277,exp3,2022.2.2,
high_opac_v,0.01,1,0.01,3,0.82,3.5,0.01,0,0.01,4,5,Valid,1,13,37,start,lin,0.1390613634821869,0,0.1390613634821869,0,True,,,,,,,,,,,,2,A,2023-08-28_09h25.29.277,exp3,2022.2.2,
low_opac_i,0.4,1,0.01,3,0.82,3.5,0.01,0,0.01,4,5,Invalid,2,13,38,start,lin,0.01,0.01,0.01,0,True,,,,,,,,,,,,2,A,2023-08-28_09h25.29.277,exp3,2022.2.2,
high_opac_v,0.01,1,0.01,3,0.82,3.5,0.01,0,0.01,4,5,Valid,1,14,39,start,lin,0.18081581138666095,0.18081581138666095,0.18081581138666095,1,True,,,,,,,,,,,,2,A,2023-08-28_09h25.29.277,exp3,2022.2.2,
low_opac_v,0.4,1,0.01,3,0.82,3.5,0.01,0,0.01,4,5,Valid,0,14,40,start,lin,0.05781213263565482,0.05781213263565482,0.05781213263565482,0,True,,,,,,,,,,,,2,A,2023-08-28_09h25.29.277,exp3,2022.2.2,
low_opac_i,0.4,1,0.01,3,0.82,3.5,0.01,0,0.01,4,5,Invalid,2,14,41,start,lin,0.03332260689918631,0.03332260689918631,0.03332260689918631,0,True,,,,,,,,,,,,2,A,2023-08-28_09h25.29.277,exp3,2022.2.2,
low_opac_i,0.4,1,0.01,3,0.82,3.5,0.01,0,0.01,4,5,Invalid,2,15,42,start,lin,0.0581196692701631,0,0.0581196692701631,1,True,,,,,,,,,,,,2,A,2023-08-28_09h25.29.277,exp3,2022.2.2,
low_opac_v,0.4,1,0.01,3,0.82,3.5,0.01,0,0.01,4,5,Valid,0,15,43,start,lin,0.09300629665278393,0.09300629665278393,0.09300629665278393,1,True,,,,,,,,,,,,2,A,2023-08-28_09h25.29.277,exp3,2022.2.2,
high_opac_v,0.01,1,0.01,3,0.82,3.5,0.01,0,0.01,4,5,Valid,1,15,44,start,lin,0.17135583465232468,0,0.17135583465232468,1,True,,,,,,,,,,,,2,A,2023-08-28_09h25.29.277,exp3,2022.2.2,
low_opac_v,0.4,1,0.01,3,0.82,3.5,0.01,0,0.01,4,5,Valid,0,16,45,start,lin,0.08518034425495224,0,0.08518034425495224,1,True,,,,,,,,,,,,2,A,2023-08-28_09h25.29.277,exp3,2022.2.2,
high_opac_v,0.01,1,0.01,3,0.82,3.5,0.01,0,0.01,4,5,Valid,1,16,46,start,lin,0.1627604307436884,0,0.1627604307436884,0,True,,,,,,,,,,,,2,A,2023-08-28_09h25.29.277,exp3,2022.2.2,
low_opac_i,0.4,1,0.01,3,0.82,3.5,0.01,0,0.01,4,5,Invalid,2,16,47,start,lin,0.052178152543073286,0.052178152543073286,0.052178152543073286,0,True,,,,,,,,,,,,2,A,2023-08-28_09h25.29.277,exp3,2022.2.2,
low_opac_v,0.4,1,0.01,3,0.82,3.5,0.01,0,0.01,4,5,Valid,0,17,48,start,lin,0.0783911243304879,0,0.0783911243304879,0,True,,,,,,,,,,,,2,A,2023-08-28_09h25.29.277,exp3,2022.2.2,
high_opac_v,0.01,1,0.01,3,0.82,3.5,0.01,0,0.01,4,5,Valid,1,17,49,start,lin,0.19157627934387594,0.19157627934387594,0.19157627934387594,1,True,,,,,,,,,,,,2,A,2023-08-28_09h25.29.277,exp3,2022.2.2,
low_opac_i,0.4,1,0.01,3,0.82,3.5,0.01,0,0.01,4,5,Invalid,2,17,50,start,lin,0.07371882002275704,0,0.07371882002275704,1,True,,,,,,,,,,,,2,A,2023-08-28_09h25.29.277,exp3,2022.2.2,
high_opac_v,0.01,1,0.01,3,0.82,3.5,0.01,0,0.01,4,5,Valid,1,18,51,start,lin,0.18456890289675987,0.18456890289675987,0.18456890289675987,1,True,,,,,,,,,,,,2,A,2023-08-28_09h25.29.277,exp3,2022.2.2,
low_opac_v,0.4,1,0.01,3,0.82,3.5,0.01,0,0.01,4,5,Valid,0,18,52,start,lin,0.1037288999909497,0.1037288999909497,0.1037288999909497,0,True,,,,,,,,,,,,2,A,2023-08-28_09h25.29.277,exp3,2022.2.2,
low_opac_i,0.4,1,0.01,3,0.82,3.5,0.01,0,0.01,4,5,Invalid,2,18,53,start,lin,0.06818866914965754,0.06818866914965754,0.06818866914965754,1,True,,,,,,,,,,,,2,A,2023-08-28_09h25.29.277,exp3,2022.2.2,
low_opac_v,0.4,1,0.01,3,0.82,3.5,0.01,0,0.01,4,5,Valid,0,19,54,start,lin,0.12589223517359932,0.12589223517359932,0.12589223517359932,1,True,,,,,,,,,,,,2,A,2023-08-28_09h25.29.277,exp3,2022.2.2,
low_opac_i,0.4,1,0.01,3,0.82,3.5,0.01,0,0.01,4,5,Invalid,2,19,55,start,lin,0.06331358172765877,0.06331358172765877,0.06331358172765877,1,True,,,,,,,,,,,,2,A,2023-08-28_09h25.29.277,exp3,2022.2.2,
high_opac_v,0.01,1,0.01,3,0.82,3.5,0.01,0,0.01,4,5,Valid,1,19,56,start,lin,0.17793622970441922,0,0.17793622970441922,1,True,,,,,,,,,,,,2,A,2023-08-28_09h25.29.277,exp3,2022.2.2,
high_opac_v,0.01,1,0.01,3,0.82,3.5,0.01,0,0.01,4,5,Valid,1,20,57,start,lin,0.17211224112954454,0,0.17211224112954454,1,True,,,,,,,,,,,,2,A,2023-08-28_09h25.29.277,exp3,2022.2.2,
low_opac_i,0.4,1,0.01,3,0.82,3.5,0.01,0,0.01,4,5,Invalid,2,20,58,start,lin,0.05851506901790554,0.05851506901790554,0.05851506901790554,1,True,,,,,,,,,,,,2,A,2023-08-28_09h25.29.277,exp3,2022.2.2,
low_opac_v,0.4,1,0.01,3,0.82,3.5,0.01,0,0.01,4,5,Valid,0,20,59,start,lin,0.12063322369203888,0,0.12063322369203888,1,True,,,,,,,,,,,,2,A,2023-08-28_09h25.29.277,exp3,2022.2.2,
low_opac_i,0.4,1,0.01,3,0.82,3.5,0.01,0,0.01,4,5,Invalid,2,21,60,start,lin,0.05421367790944742,0,0.05421367790944742,0,True,,,,,,,,,,,,2,A,2023-08-28_09h25.29.277,exp3,2022.2.2,
low_opac_v,0.4,1,0.01,3,0.82,3.5,0.01,0,0.01,4,5,Valid,0,21,61,start,lin,0.1155096184760045,0,0.1155096184760045,1,True,,,,,,,,,,,,2,A,2023-08-28_09h25.29.277,exp3,2022.2.2,
high_opac_v,0.01,1,0.01,3,0.82,3.5,0.01,0,0.01,4,5,Valid,1,21,62,start,lin,0.16643712120677612,0.16643712120677612,0.16643712120677612,1,True,,,,,,,,,,,,2,A,2023-08-28_09h25.29.277,exp3,2022.2.2,
low_opac_v,0.4,1,0.01,3,0.82,3.5,0.01,0,0.01,4,5,Valid,0,22,63,start,lin,0.11089432326770016,0.11089432326770016,0.11089432326770016,1,True,,,,,,,,,,,,2,A,2023-08-28_09h25.29.277,exp3,2022.2.2,
high_opac_v,0.01,1,0.01,3,0.82,3.5,0.01,0,0.01,4,5,Valid,1,22,64,start,lin,0.16136067155994996,0.16136067155994996,0.16136067155994996,1,True,,,,,,,,,,,,2,A,2023-08-28_09h25.29.277,exp3,2022.2.2,
low_opac_i,0.4,1,0.01,3,0.82,3.5,0.01,0,0.01,4,5,Invalid,2,22,65,start,lin,0.07015577053538685,0.07015577053538685,0.07015577053538685,1,True,,,,,,,,,,,,2,A,2023-08-28_09h25.29.277,exp3,2022.2.2,
high_opac_v,0.01,1,0.01,3,0.82,3.5,0.01,0,0.01,4,5,Valid,1,23,66,start,lin,0.15632339804544046,0,0.15632339804544046,1,True,,,,,,,,,,,,2,A,2023-08-28_09h25.29.277,exp3,2022.2.2,
low_opac_v,0.4,1,0.01,3,0.82,3.5,0.01,0,0.01,4,5,Valid,0,23,67,start,lin,0.10631373732731025,0,0.10631373732731025,1,True,,,,,,,,,,,,2,A,2023-08-28_09h25.29.277,exp3,2022.2.2,
low_opac_i,0.4,1,0.01,3,0.82,3.5,0.01,0,0.01,4,5,Invalid,2,23,68,start,lin,0.06618351278603946,0.06618351278603946,0.06618351278603946,1,True,,,,,,,,,,,,2,A,2023-08-28_09h25.29.277,exp3,2022.2.2,
high_opac_v,0.01,1,0.01,3,0.82,3.5,0.01,0,0.01,4,5,Valid,1,24,69,start,lin,0.15176016145844504,0.15176016145844504,0.15176016145844504,1,True,,,,,,,,,,,,2,A,2023-08-28_09h25.29.277,exp3,2022.2.2,
low_opac_v,0.4,1,0.01,3,0.82,3.5,0.01,0,0.01,4,5,Valid,0,24,70,start,lin,0.10215555723905795,0,0.10215555723905795,1,True,,,,,,,,,,,,2,A,2023-08-28_09h25.29.277,exp3,2022.2.2,
low_opac_i,0.4,1,0.01,3,0.82,3.5,0.01,0,0.01,4,5,Invalid,2,24,71,start,lin,0.0625545011847321,0,0.0625545011847321,1,True,,,,,,,,,,,,2,A,2023-08-28_09h25.29.277,exp3,2022.2.2,
low_opac_i,0.4,1,0.01,3,0.82,3.5,0.01,0,0.01,4,5,Invalid,2,25,72,start,lin,0.058864283601886,0.058864283601886,0.058864283601886,1,True,,,,,,,,,,,,2,A,2023-08-28_09h25.29.277,exp3,2022.2.2,
low_opac_v,0.4,1,0.01,3,0.82,3.5,0.01,0,0.01,4,5,Valid,0,25,73,start,lin,0.097954501750105,0,0.097954501750105,0,True,,,,,,,,,,,,2,A,2023-08-28_09h25.29.277,exp3,2022.2.2,
high_opac_v,0.01,1,0.01,3,0.82,3.5,0.01,0,0.01,4,5,Valid,1,25,74,start,lin,0.14716045907456435,0,0.14716045907456435,1,True,,,,,,,,,,,,2,A,2023-08-28_09h25.29.277,exp3,2022.2.2,
low_opac_v,0.4,1,0.01,3,0.82,3.5,0.01,0,0.01,4,5,Valid,0,26,75,start,lin,0.1137128455142572,0,0.1137128455142572,1,True,,,,,,,,,,,,2,A,2023-08-28_09h25.29.277,exp3,2022.2.2,
low_opac_i,0.4,1,0.01,3,0.82,3.5,0.01,0,0.01,4,5,Invalid,2,26,76,start,lin,0.05548375818136847,0,0.05548375818136847,1,True,,,,,,,,,,,,2,A,2023-08-28_09h25.29.277,exp3,2022.2.2,
high_opac_v,0.01,1,0.01,3,0.82,3.5,0.01,0,0.01,4,5,Valid,1,26,77,start,lin,0.1429587033500136,0.1429587033500136,0.1429587033500136,1,True,,,,,,,,,,,,2,A,2023-08-28_09h25.29.277,exp3,2022.2.2,
high_opac_v,0.01,1,0.01,3,0.82,3.5,0.01,0,0.01,4,5,Valid,1,27,78,start,lin,0.13867886759792486,0.13867886759792486,0.13867886759792486,1,True,,,,,,,,,,,,2,A,2023-08-28_09h25.29.277,exp3,2022.2.2,
low_opac_v,0.4,1,0.01,3,0.82,3.5,0.01,0,0.01,4,5,Valid,0,27,79,start,lin,0.10990925260920925,0,0.10990925260920925,1,True,,,,,,,,,,,,2,A,2023-08-28_09h25.29.277,exp3,2022.2.2,
low_opac_i,0.4,1,0.01,3,0.82,3.5,0.01,0,0.01,4,5,Invalid,2,27,80,start,lin,0.05234172469692194,0.05234172469692194,0.05234172469692194,0,True,,,,,,,,,,,,2,A,2023-08-28_09h25.29.277,exp3,2022.2.2,
low_opac_v,0.4,1,0.01,3,0.82,3.5,0.01,0,0.01,4,5,Valid,0,28,81,start,lin,0.10638766814891126,0.10638766814891126,0.10638766814891126,1,True,,,,,,,,,,,,2,A,2023-08-28_09h25.29.277,exp3,2022.2.2,
high_opac_v,0.01,1,0.01,3,0.82,3.5,0.01,0,0.01,4,5,Valid,1,28,82,start,lin,0.1347211173254316,0.1347211173254316,0.1347211173254316,1,True,,,,,,,,,,,,2,A,2023-08-28_09h25.29.277,exp3,2022.2.2,
low_opac_i,0.4,1,0.01,3,0.82,3.5,0.01,0,0.01,4,5,Invalid,2,28,83,start,lin,0.06477940747164523,0.06477940747164523,0.06477940747164523,1,True,,,,,,,,,,,,2,A,2023-08-28_09h25.29.277,exp3,2022.2.2,
low_opac_v,0.4,1,0.01,3,0.82,3.5,0.01,0,0.01,4,5,Valid,0,29,84,start,lin,0.10313083619202179,0.10313083619202179,0.10313083619202179,1,True,,,,,,,,,,,,2,A,2023-08-28_09h25.29.277,exp3,2022.2.2,
high_opac_v,0.01,1,0.01,3,0.82,3.5,0.01,0,0.01,4,5,Valid,1,29,85,start,lin,0.13070193837016314,0,0.13070193837016314,1,True,,,,,,,,,,,,2,A,2023-08-28_09h25.29.277,exp3,2022.2.2,
low_opac_i,0.4,1,0.01,3,0.82,3.5,0.01,0,0.01,4,5,Invalid,2,29,86,start,lin,0.0616382696553886,0.0616382696553886,0.0616382696553886,0,True,,,,,,,,,,,,2,A,2023-08-28_09h25.29.277,exp3,2022.2.2,
low_opac_v,0.4,1,0.01,3,0.82,3.5,0.01,0,0.01,4,5,Valid,0,30,87,start,lin,0.09977459534077632,0.09977459534077632,0.09977459534077632,1,True,,,,,,,,,,,,2,A,2023-08-28_09h25.29.277,exp3,2022.2.2,
low_opac_i,0.4,1,0.01,3,0.82,3.5,0.01,0,0.01,4,5,Invalid,2,30,88,start,lin,0.07325050663650551,0.07325050663650551,0.07325050663650551,1,True,,,,,,,,,,,,2,A,2023-08-28_09h25.29.277,exp3,2022.2.2,
high_opac_v,0.01,1,0.01,3,0.82,3.5,0.01,0,0.01,4,5,Valid,1,30,89,start,lin,0.12689292848289885,0,0.12689292848289885,0,True,,,,,,,,,,,,2,A,2023-08-28_09h25.29.277,exp3,2022.2.2,
high_opac_v,0.01,1,0.01,3,0.82,3.5,0.01,0,0.01,4,5,Valid,1,31,90,start,lin,0.1415975269550797,0,0.1415975269550797,0,True,,,,,,,,,,,,2,A,2023-08-28_09h25.29.277,exp3,2022.2.2,
low_opac_i,0.4,1,0.01,3,0.82,3.5,0.01,0,0.01,4,5,Invalid,2,31,91,start,lin,0.07033506264635903,0,0.07033506264635903,0,True,,,,,,,,,,,,2,A,2023-08-28_09h25.29.277,exp3,2022.2.2,
low_opac_v,0.4,1,0.01,3,0.82,3.5,0.01,0,0.01,4,5,Valid,0,31,92,start,lin,0.09663541944650345,0.09663541944650345,0.09663541944650345,1,True,,,,,,,,,,,,2,A,2023-08-28_09h25.29.277,exp3,2022.2.2,
low_opac_i,0.4,1,0.01,3,0.82,3.5,0.01,0,0.01,4,5,Invalid,2,32,93,start,lin,0.08131619976432419,0.08131619976432419,0.08131619976432419,1,True,,,,,,,,,,,,2,A,2023-08-28_09h25.29.277,exp3,2022.2.2,
low_opac_v,0.4,1,0.01,3,0.82,3.5,0.01,0,0.01,4,5,Valid,0,32,94,start,lin,0.09371175061530657,0.09371175061530657,0.09371175061530657,1,True,,,,,,,,,,,,2,A,2023-08-28_09h25.29.277,exp3,2022.2.2,
high_opac_v,0.01,1,0.01,3,0.82,3.5,0.01,0,0.01,4,5,Valid,1,32,95,start,lin,0.1545050490136743,0,0.1545050490136743,0,True,,,,,,,,,,,,2,A,2023-08-28_09h25.29.277,exp3,2022.2.2,
high_opac_v,0.01,1,0.01,3,0.82,3.5,0.01,0,0.01,4,5,Valid,1,33,96,start,lin,0.16635554083234003,0,0.16635554083234003,1,True,,,,,,,,,,,,2,A,2023-08-28_09h25.29.277,exp3,2022.2.2,
low_opac_i,0.4,1,0.01,3,0.82,3.5,0.01,0,0.01,4,5,Invalid,2,33,97,start,lin,0.07860547471933571,0,0.07860547471933571,0,True,,,,,,,,,,,,2,A,2023-08-28_09h25.29.277,exp3,2022.2.2,
low_opac_v,0.4,1,0.01,3,0.82,3.5,0.01,0,0.01,4,5,Valid,0,33,98,start,lin,0.09068550865302272,0.09068550865302272,0.09068550865302272,1,True,,,,,,,,,,,,2,A,2023-08-28_09h25.29.277,exp3,2022.2.2,
low_opac_v,0.4,1,0.01,3,0.82,3.5,0.01,0,0.01,4,5,Valid,0,34,99,start,lin,0.08779583005145408,0.08779583005145408,0.08779583005145408,1,True,,,,,,,,,,,,2,A,2023-08-28_09h25.29.277,exp3,2022.2.2,
low_opac_i,0.4,1,0.01,3,0.82,3.5,0.01,0,0.01,4,5,Invalid,2,34,100,start,lin,0.08906510234452886,0.08906510234452886,0.08906510234452886,0,True,,,,,,,,,,,,2,A,2023-08-28_09h25.29.277,exp3,2022.2.2,
high_opac_v,0.01,1,0.01,3,0.82,3.5,0.01,0,0.01,4,5,Valid,1,34,101,start,lin,0.16356702383811145,0.16356702383811145,0.16356702383811145,1,True,,,,,,,,,,,,2,A,2023-08-28_09h25.29.277,exp3,2022.2.2,
high_opac_v,0.01,1,0.01,3,0.82,3.5,0.01,0,0.01,4,5,Valid,1,35,102,start,lin,0.16067558194401527,0,0.16067558194401527,0,True,,,,,,,,,,,,2,A,2023-08-28_09h25.29.277,exp3,2022.2.2,
low_opac_i,0.4,1,0.01,3,0.82,3.5,0.01,0,0.01,4,5,Invalid,2,35,103,start,lin,0.09927407527569138,0,0.09927407527569138,1,True,,,,,,,,,,,,2,A,2023-08-28_09h25.29.277,exp3,2022.2.2,
low_opac_v,0.4,1,0.01,3,0.82,3.5,0.01,0,0.01,4,5,Valid,0,35,104,start,lin,0.0851000007750094,0,0.0851000007750094,1,True,,,,,,,,,,,,2,A,2023-08-28_09h25.29.277,exp3,2022.2.2,
low_opac_i,0.4,1,0.01,3,0.82,3.5,0.01,0,0.01,4,5,Invalid,2,36,105,start,lin,0.09683805803836665,0.09683805803836665,0.09683805803836665,1,True,,,,,,,,,,,,2,A,2023-08-28_09h25.29.277,exp3,2022.2.2,
high_opac_v,0.01,1,0.01,3,0.82,3.5,0.01,0,0.01,4,5,Valid,1,36,106,start,lin,0.17156766108867363,0,0.17156766108867363,1,True,,,,,,,,,,,,2,A,2023-08-28_09h25.29.277,exp3,2022.2.2,
low_opac_v,0.4,1,0.01,3,0.82,3.5,0.01,0,0.01,4,5,Valid,0,36,107,start,lin,0.08254449208896364,0.08254449208896364,0.08254449208896364,0,True,,,,,,,,,,,,2,A,2023-08-28_09h25.29.277,exp3,2022.2.2,
low_opac_v,0.4,1,0.01,3,0.82,3.5,0.01,0,0.01,4,5,Valid,0,37,108,start,lin,0.0928794414059862,0.0928794414059862,0.0928794414059862,0,True,,,,,,,,,,,,2,A,2023-08-28_09h25.29.277,exp3,2022.2.2,
high_opac_v,0.01,1,0.01,3,0.82,3.5,0.01,0,0.01,4,5,Valid,1,37,109,start,lin,0.16890076562780912,0,0.16890076562780912,1,True,,,,,,,,,,,,2,A,2023-08-28_09h25.29.277,exp3,2022.2.2,
low_opac_i,0.4,1,0.01,3,0.82,3.5,0.01,0,0.01,4,5,Invalid,2,37,110,start,lin,0.0945535677017098,0,0.0945535677017098,1,True,,,,,,,,,,,,2,A,2023-08-28_09h25.29.277,exp3,2022.2.2,
high_opac_v,0.01,1,0.01,3,0.82,3.5,0.01,0,0.01,4,5,Valid,1,38,111,start,lin,0.16640799431697617,0.16640799431697617,0.16640799431697617,1,True,,,,,,,,,,,,2,A,2023-08-28_09h25.29.277,exp3,2022.2.2,
low_opac_i,0.4,1,0.01,3,0.82,3.5,0.01,0,0.01,4,5,Invalid,2,38,112,start,lin,0.09218515885644513,0.09218515885644513,0.09218515885644513,0,True,,,,,,,,,,,,2,A,2023-08-28_09h25.29.277,exp3,2022.2.2,
low_opac_v,0.4,1,0.01,3,0.82,3.5,0.01,0,0.01,4,5,Valid,0,38,113,start,lin,0.10266438878488776,0,0.10266438878488776,1,True,,,,,,,,,,,,2,A,2023-08-28_09h25.29.277,exp3,2022.2.2,
low_opac_v,0.4,1,0.01,3,0.82,3.5,0.01,0,0.01,4,5,Valid,0,39,114,start,lin,0.10023098285584175,0.10023098285584175,0.10023098285584175,1,True,,,,,,,,,,,,2,A,2023-08-28_09h25.29.277,exp3,2022.2.2,
low_opac_i,0.4,1,0.01,3,0.82,3.5,0.01,0,0.01,4,5,Invalid,2,39,115,start,lin,0.10109062241557948,0,0.10109062241557948,0,True,,,,,,,,,,,,2,A,2023-08-28_09h25.29.277,exp3,2022.2.2,
high_opac_v,0.01,1,0.01,3,0.82,3.5,0.01,0,0.01,4,5,Valid,1,39,116,start,lin,0.16405912896738065,0.16405912896738065,0.16405912896738065,1,True,,,,,,,,,,,,2,A,2023-08-28_09h25.29.277,exp3,2022.2.2,
high_opac_v,0.01,1,0.01,3,0.82,3.5,0.01,0,0.01,4,5,Valid,1,40,117,start,lin,0.161609766896122,0.161609766896122,0.161609766896122,1,True,,,,,,,,,,,,2,A,2023-08-28_09h25.29.277,exp3,2022.2.2,
low_opac_v,0.4,1,0.01,3,0.82,3.5,0.01,0,0.01,4,5,Valid,0,40,118,start,lin,0.0979001292149827,0.0979001292149827,0.0979001292149827,1,True,,,,,,,,,,,,2,A,2023-08-28_09h25.29.277,exp3,2022.2.2,
low_opac_i,0.4,1,0.01,3,0.82,3.5,0.01,0,0.01,4,5,Invalid,2,40,119,start,lin,0.10989495095433804,0.10989495095433804,0.10989495095433804,1,True,,,,,,,,,,,,2,A,2023-08-28_09h25.29.277,exp3,2022.2.2,
low_opac_v,0.4,1,0.01,3,0.82,3.5,0.01,0,0.01,4,5,Valid,0,41,120,start,lin,0.09571211024241927,0.09571211024241927,0.09571211024241927,0,True,,,,,,,,,,,,2,A,2023-08-28_09h25.29.277,exp3,2022.2.2,
low_opac_i,0.4,1,0.01,3,0.82,3.5,0.01,0,0.01,4,5,Invalid,2,41,121,start,lin,0.10773426875902492,0.10773426875902492,0.10773426875902492,0,True,,,,,,,,,,,,2,A,2023-08-28_09h25.29.277,exp3,2022.2.2,
high_opac_v,0.01,1,0.01,3,0.82,3.5,0.01,0,0.01,4,5,Valid,1,41,122,start,lin,0.15923111297669235,0,0.15923111297669235,1,True,,,,,,,,,,,,2,A,2023-08-28_09h25.29.277,exp3,2022.2.2,
high_opac_v,0.01,1,0.01,3,0.82,3.5,0.01,0,0.01,4,5,Valid,1,42,123,start,lin,0.15698601237055376,0,0.15698601237055376,1,True,,,,,,,,,,,,2,A,2023-08-28_09h25.29.277,exp3,2022.2.2,
low_opac_v,0.4,1,0.01,3,0.82,3.5,0.01,0,0.01,4,5,Valid,0,42,124,start,lin,0.10485505883678231,0,0.10485505883678231,1,True,,,,,,,,,,,,2,A,2023-08-28_09h25.29.277,exp3,2022.2.2,
low_opac_i,0.4,1,0.01,3,0.82,3.5,0.01,0,0.01,4,5,Invalid,2,42,125,start,lin,0.11639221317922616,0,0.11639221317922616,1,True,,,,,,,,,,,,2,A,2023-08-28_09h25.29.277,exp3,2022.2.2,
low_opac_i,0.4,1,0.01,3,0.82,3.5,0.01,0,0.01,4,5,Invalid,2,43,126,start,lin,0.11442176789032205,0,0.11442176789032205,1,True,,,,,,,,,,,,2,A,2023-08-28_09h25.29.277,exp3,2022.2.2,
low_opac_v,0.4,1,0.01,3,0.82,3.5,0.01,0,0.01,4,5,Valid,0,43,127,start,lin,0.10268718327726278,0,0.10268718327726278,1,True,,,,,,,,,,,,2,A,2023-08-28_09h25.29.277,exp3,2022.2.2,
high_opac_v,0.01,1,0.01,3,0.82,3.5,0.01,0,0.01,4,5,Valid,1,43,128,start,lin,0.15486493499560794,0.15486493499560794,0.15486493499560794,0,True,,,,,,,,,,,,2,A,2023-08-28_09h25.29.277,exp3,2022.2.2,
high_opac_v,0.01,1,0.01,3,0.82,3.5,0.01,0,0.01,4,5,Valid,1,44,129,start,lin,0.1632935425692564,0,0.1632935425692564,1,True,,,,,,,,,,,,2,A,2023-08-28_09h25.29.277,exp3,2022.2.2,
low_opac_i,0.4,1,0.01,3,0.82,3.5,0.01,0,0.01,4,5,Invalid,2,44,130,start,lin,0.11236410268782177,0,0.11236410268782177,1,True,,,,,,,,,,,,2,A,2023-08-28_09h25.29.277,exp3,2022.2.2,
low_opac_v,0.4,1,0.01,3,0.82,3.5,0.01,0,0.01,4,5,Valid,0,44,131,start,lin,0.1005784288090944,0,0.1005784288090944,1,True,,,,,,,,,,,,2,A,2023-08-28_09h25.29.277,exp3,2022.2.2,
low_opac_i,0.4,1,0.01,3,0.82,3.5,0.01,0,0.01,4,5,Invalid,2,45,132,start,lin,0.11036063686216452,0,0.11036063686216452,1,True,,,,,,,,,,,,2,A,2023-08-28_09h25.29.277,exp3,2022.2.2,
low_opac_v,0.4,1,0.01,3,0.82,3.5,0.01,0,0.01,4,5,Valid,0,45,133,start,lin,0.09853075165852221,0,0.09853075165852221,1,True,,,,,,,,,,,,2,A,2023-08-28_09h25.29.277,exp3,2022.2.2,
high_opac_v,0.01,1,0.01,3,0.82,3.5,0.01,0,0.01,4,5,Valid,1,45,134,start,lin,0.16117280601811013,0.16117280601811013,0.16117280601811013,1,True,,,,,,,,,,,,2,A,2023-08-28_09h25.29.277,exp3,2022.2.2,
low_opac_i,0.4,1,0.01,3,0.82,3.5,0.01,0,0.01,4,5,Invalid,2,46,135,start,lin,0.10843511502904618,0.10843511502904618,0.10843511502904618,1,True,,,,,,,,,,,,2,A,2023-08-28_09h25.29.277,exp3,2022.2.2,
low_opac_v,0.4,1,0.01,3,0.82,3.5,0.01,0,0.01,4,5,Valid,0,46,136,start,lin,0.09660076566623083,0,0.09660076566623083,1,True,,,,,,,,,,,,2,A,2023-08-28_09h25.29.277,exp3,2022.2.2,
high_opac_v,0.01,1,0.01,3,0.82,3.5,0.01,0,0.01,4,5,Valid,1,46,137,start,lin,0.1591002106445755,0,0.1591002106445755,1,True,,,,,,,,,,,,2,A,2023-08-28_09h25.29.277,exp3,2022.2.2,
low_opac_v,0.4,1,0.01,3,0.82,3.5,0.01,0,0.01,4,5,Valid,0,47,138,start,lin,0.09476309012711365,0,0.09476309012711365,1,True,,,,,,,,,,,,2,A,2023-08-28_09h25.29.277,exp3,2022.2.2,
low_opac_i,0.4,1,0.01,3,0.82,3.5,0.01,0,0.01,4,5,Invalid,2,47,139,start,lin,0.10662562020097816,0,0.10662562020097816,1,True,,,,,,,,,,,,2,A,2023-08-28_09h25.29.277,exp3,2022.2.2,
high_opac_v,0.01,1,0.01,3,0.82,3.5,0.01,0,0.01,4,5,Valid,1,47,140,start,lin,0.15713912642958347,0.15713912642958347,0.15713912642958347,1,True,,,,,,,,,,,,2,A,2023-08-28_09h25.29.277,exp3,2022.2.2,
low_opac_i,0.4,1,0.01,3,0.82,3.5,0.01,0,0.01,4,5,Invalid,2,48,141,start,lin,0.10490400688768015,0,0.10490400688768015,1,True,,,,,,,,,,,,2,A,2023-08-28_09h25.29.277,exp3,2022.2.2,
low_opac_v,0.4,1,0.01,3,0.82,3.5,0.01,0,0.01,4,5,Valid,0,48,142,start,lin,0.09283434720216827,0.09283434720216827,0.09283434720216827,1,True,,,,,,,,,,,,2,A,2023-08-28_09h25.29.277,exp3,2022.2.2,
high_opac_v,0.01,1,0.01,3,0.82,3.5,0.01,0,0.01,4,5,Valid,1,48,143,start,lin,0.1552781980740614,0,0.1552781980740614,1,True,,,,,,,,,,,,2,A,2023-08-28_09h25.29.277,exp3,2022.2.2,
low_opac_i,0.4,1,0.01,3,0.82,3.5,0.01,0,0.01,4,5,Invalid,2,49,144,start,lin,0.10310041912878148,0,0.10310041912878148,1,True,,,,,,,,,,,,2,A,2023-08-28_09h25.29.277,exp3,2022.2.2,
low_opac_v,0.4,1,0.01,3,0.82,3.5,0.01,0,0.01,4,5,Valid,0,49,145,start,lin,0.09094994630585534,0,0.09094994630585534,1,True,,,,,,,,,,,,2,A,2023-08-28_09h25.29.277,exp3,2022.2.2,
high_opac_v,0.01,1,0.01,3,0.82,3.5,0.01,0,0.01,4,5,Valid,1,49,146,start,lin,0.15349064929117048,0,0.15349064929117048,1,True,,,,,,,,,,,,2,A,2023-08-28_09h25.29.277,exp3,2022.2.2,
low_opac_v,0.4,1,0.01,3,0.82,3.5,0.01,0,0.01,4,5,Valid,0,50,147,start,lin,0.08909634030596525,0.08909634030596525,0.08909634030596525,0,True,,,,,,,,,,,,2,A,2023-08-28_09h25.29.277,exp3,2022.2.2,
low_opac_i,0.4,1,0.01,3,0.82,3.5,0.01,0,0.01,4,5,Invalid,2,50,148,start,lin,0.10134227113362909,0.10134227113362909,0.10134227113362909,0,True,,,,,,,,,,,,2,A,2023-08-28_09h25.29.277,exp3,2022.2.2,
high_opac_v,0.01,1,0.01,3,0.82,3.5,0.01,0,0.01,4,5,Valid,1,50,149,start,lin,0.1515958509327241,0.1515958509327241,0.1515958509327241,1,True,,,,,,,,,,,,2,A,2023-08-28_09h25.29.277,exp3,2022.2.2,
low_opac_v,0.4,1,0.01,3,0.82,3.5,0.01,0,0.01,4,5,Valid,0,51,150,start,lin,0.0963402599902119,0.0963402599902119,0.0963402599902119,1,True,,,,,,,,,,,,2,A,2023-08-28_09h25.29.277,exp3,2022.2.2,
high_opac_v,0.01,1,0.01,3,0.82,3.5,0.01,0,0.01,4,5,Valid,1,51,151,start,lin,0.14972885733246705,0.14972885733246705,0.14972885733246705,1,True,,,,,,,,,,,,2,A,2023-08-28_09h25.29.277,exp3,2022.2.2,
low_opac_i,0.4,1,0.01,3,0.82,3.5,0.01,0,0.01,4,5,Invalid,2,51,152,start,lin,0.10807876348488049,0.10807876348488049,0.10807876348488049,1,True,,,,,,,,,,,,2,A,2023-08-28_09h25.29.277,exp3,2022.2.2,
low_opac_v,0.4,1,0.01,3,0.82,3.5,0.01,0,0.01,4,5,Valid,0,52,153,start,lin,0.09471165595151887,0,0.09471165595151887,1,True,,,,,,,,,,,,2,A,2023-08-28_09h25.29.277,exp3,2022.2.2,
high_opac_v,0.01,1,0.01,3,0.82,3.5,0.01,0,0.01,4,5,Valid,1,52,154,start,lin,0.14793304649075975,0.14793304649075975,0.14793304649075975,1,True,,,,,,,,,,,,2,A,2023-08-28_09h25.29.277,exp3,2022.2.2,
low_opac_i,0.4,1,0.01,3,0.82,3.5,0.01,0,0.01,4,5,Invalid,2,52,155,start,lin,0.10647053631978487,0.10647053631978487,0.10647053631978487,1,True,,,,,,,,,,,,2,A,2023-08-28_09h25.29.277,exp3,2022.2.2,
high_opac_v,0.01,1,0.01,3,0.82,3.5,0.01,0,0.01,4,5,Valid,1,53,156,start,lin,0.14622927407657588,0,0.14622927407657588,1,True,,,,,,,,,,,,2,A,2023-08-28_09h25.29.277,exp3,2022.2.2,
low_opac_i,0.4,1,0.01,3,0.82,3.5,0.01,0,0.01,4,5,Invalid,2,53,157,start,lin,0.10493243597596363,0.10493243597596363,0.10493243597596363,1,True,,,,,,,,,,,,2,A,2023-08-28_09h25.29.277,exp3,2022.2.2,
low_opac_v,0.4,1,0.01,3,0.82,3.5,0.01,0,0.01,4,5,Valid,0,53,158,start,lin,0.09299468898380608,0.09299468898380608,0.09299468898380608,1,True,,,,,,,,,,,,2,A,2023-08-28_09h25.29.277,exp3,2022.2.2,
low_opac_i,0.4,1,0.01,3,0.82,3.5,0.01,0,0.01,4,5,Invalid,2,54,159,start,lin,0.10331453978540656,0,0.10331453978540656,1,True,,,,,,,,,,,,2,A,2023-08-28_09h25.29.277,exp3,2022.2.2,
low_opac_v,0.4,1,0.01,3,0.82,3.5,0.01,0,0.01,4,5,Valid,0,54,160,start,lin,0.09131255742860844,0.09131255742860844,0.09131255742860844,1,True,,,,,,,,,,,,2,A,2023-08-28_09h25.29.277,exp3,2022.2.2,
high_opac_v,0.01,1,0.01,3,0.82,3.5,0.01,0,0.01,4,5,Valid,1,54,161,start,lin,0.14459509704169574,0.14459509704169574,0.14459509704169574,1,True,,,,,,,,,,,,2,A,2023-08-28_09h25.29.277,exp3,2022.2.2,
low_opac_i,0.4,1,0.01,3,0.82,3.5,0.01,0,0.01,4,5,Invalid,2,55,162,start,lin,0.10173346182028475,0.10173346182028475,0.10173346182028475,1,True,,,,,,,,,,,,2,A,2023-08-28_09h25.29.277,exp3,2022.2.2,
low_opac_v,0.4,1,0.01,3,0.82,3.5,0.01,0,0.01,4,5,Valid,0,55,163,start,lin,0.08964668911295681,0,0.08964668911295681,1,True,,,,,,,,,,,,2,A,2023-08-28_09h25.29.277,exp3,2022.2.2,
high_opac_v,0.01,1,0.01,3,0.82,3.5,0.01,0,0.01,4,5,Valid,1,55,164,start,lin,0.14286900051686147,0.14286900051686147,0.14286900051686147,1,True,,,,,,,,,,,,2,A,2023-08-28_09h25.29.277,exp3,2022.2.2,
low_opac_i,0.4,1,0.01,3,0.82,3.5,0.01,0,0.01,4,5,Invalid,2,56,165,start,lin,0.10017110768297499,0.10017110768297499,0.10017110768297499,1,True,,,,,,,,,,,,2,A,2023-08-28_09h25.29.277,exp3,2022.2.2,
low_opac_v,0.4,1,0.01,3,0.82,3.5,0.01,0,0.01,4,5,Valid,0,56,166,start,lin,0.08804347122622114,0,0.08804347122622114,1,True,,,,,,,,,,,,2,A,2023-08-28_09h25.29.277,exp3,2022.2.2,
high_opac_v,0.01,1,0.01,3,0.82,3.5,0.01,0,0.01,4,5,Valid,1,56,167,start,lin,0.14117501758406698,0,0.14117501758406698,1,True,,,,,,,,,,,,2,A,2023-08-28_09h25.29.277,exp3,2022.2.2,
low_opac_i,0.4,1,0.01,3,0.82,3.5,0.01,0,0.01,4,5,Invalid,2,57,168,start,lin,0.09865357023147081,0,0.09865357023147081,1,True,,,,,,,,,,,,2,A,2023-08-28_09h25.29.277,exp3,2022.2.2,
high_opac_v,0.01,1,0.01,3,0.82,3.5,0.01,0,0.01,4,5,Valid,1,57,169,start,lin,0.13949488189181114,0.13949488189181114,0.13949488189181114,1,True,,,,,,,,,,,,2,A,2023-08-28_09h25.29.277,exp3,2022.2.2,
low_opac_v,0.4,1,0.01,3,0.82,3.5,0.01,0,0.01,4,5,Valid,0,57,170,start,lin,0.08651820687226808,0.08651820687226808,0.08651820687226808,0,True,,,,,,,,,,,,2,A,2023-08-28_09h25.29.277,exp3,2022.2.2,
low_opac_v,0.4,1,0.01,3,0.82,3.5,0.01,0,0.01,4,5,Valid,0,58,171,start,lin,0.09299607314233932,0,0.09299607314233932,1,True,,,,,,,,,,,,2,A,2023-08-28_09h25.29.277,exp3,2022.2.2,
low_opac_i,0.4,1,0.01,3,0.82,3.5,0.01,0,0.01,4,5,Invalid,2,58,172,start,lin,0.09721529004968238,0.09721529004968238,0.09721529004968238,1,True,,,,,,,,,,,,2,A,2023-08-28_09h25.29.277,exp3,2022.2.2,
high_opac_v,0.01,1,0.01,3,0.82,3.5,0.01,0,0.01,4,5,Valid,1,58,173,start,lin,0.1378786086211001,0.1378786086211001,0.1378786086211001,0,True,,,,,,,,,,,,2,A,2023-08-28_09h25.29.277,exp3,2022.2.2,
low_opac_i,0.4,1,0.01,3,0.82,3.5,0.01,0,0.01,4,5,Invalid,2,59,174,start,lin,0.09583959621588661,0,0.09583959621588661,1,True,,,,,,,,,,,,2,A,2023-08-28_09h25.29.277,exp3,2022.2.2,
low_opac_v,0.4,1,0.01,3,0.82,3.5,0.01,0,0.01,4,5,Valid,0,59,175,start,lin,0.09147727056626892,0,0.09147727056626892,1,True,,,,,,,,,,,,2,A,2023-08-28_09h25.29.277,exp3,2022.2.2,
high_opac_v,0.01,1,0.01,3,0.82,3.5,0.01,0,0.01,4,5,Valid,1,59,176,start,lin,0.14445185632724822,0,0.14445185632724822,1,True,,,,,,,,,,,,2,A,2023-08-28_09h25.29.277,exp3,2022.2.2,
low_opac_v,0.4,1,0.01,3,0.82,3.5,0.01,0,0.01,4,5,Valid,0,60,177,start,lin,0.08996894493922236,0,0.08996894493922236,1,True,,,,,,,,,,,,2,A,2023-08-28_09h25.29.277,exp3,2022.2.2,
high_opac_v,0.01,1,0.01,3,0.82,3.5,0.01,0,0.01,4,5,Valid,1,60,178,start,lin,0.14289894127079503,0,0.14289894127079503,1,True,,,,,,,,,,,,2,A,2023-08-28_09h25.29.277,exp3,2022.2.2,
low_opac_i,0.4,1,0.01,3,0.82,3.5,0.01,0,0.01,4,5,Invalid,2,60,179,start,lin,0.09451193365837407,0.09451193365837407,0.09451193365837407,1,True,,,,,,,,,,,,2,A,2023-08-28_09h25.29.277,exp3,2022.2.2,
low_opac_v,0.4,1,0.01,3,0.82,3.5,0.01,0,0.01,4,5,Valid,0,61,180,start,lin,0.08849941120681953,0.08849941120681953,0.08849941120681953,1,True,,,,,,,,,,,,2,A,2023-08-28_09h25.29.277,exp3,2022.2.2,
low_opac_i,0.4,1,0.01,3,0.82,3.5,0.01,0,0.01,4,5,Invalid,2,61,181,start,lin,0.09310368909678046,0,0.09310368909678046,1,True,,,,,,,,,,,,2,A,2023-08-28_09h25.29.277,exp3,2022.2.2,
high_opac_v,0.01,1,0.01,3,0.82,3.5,0.01,0,0.01,4,5,Valid,1,61,182,start,lin,0.14137073444510137,0,0.14137073444510137,1,True,,,,,,,,,,,,2,A,2023-08-28_09h25.29.277,exp3,2022.2.2,
low_opac_i,0.4,1,0.01,3,0.82,3.5,0.01,0,0.01,4,5,Invalid,2,62,183,start,lin,0.09171885384898293,0.09171885384898293,0.09171885384898293,0,True,,,,,,,,,,,,2,A,2023-08-28_09h25.29.277,exp3,2022.2.2,
high_opac_v,0.01,1,0.01,3,0.82,3.5,0.01,0,0.01,4,5,Valid,1,62,184,start,lin,0.13985064932948799,0.13985064932948799,0.13985064932948799,1,True,,,,,,,,,,,,2,A,2023-08-28_09h25.29.277,exp3,2022.2.2,
low_opac_v,0.4,1,0.01,3,0.82,3.5,0.01,0,0.01,4,5,Valid,0,62,185,start,lin,0.08710128253672778,0,0.08710128253672778,1,True,,,,,,,,,,,,2,A,2023-08-28_09h25.29.277,exp3,2022.2.2,
low_opac_v,0.4,1,0.01,3,0.82,3.5,0.01,0,0.01,4,5,Valid,0,63,186,start,lin,0.08575943700078176,0.08575943700078176,0.08575943700078176,1,True,,,,,,,,,,,,2,A,2023-08-28_09h25.29.277,exp3,2022.2.2,
low_opac_i,0.4,1,0.01,3,0.82,3.5,0.01,0,0.01,4,5,Invalid,2,63,187,start,lin,0.09705665378028111,0,0.09705665378028111,1,True,,,,,,,,,,,,2,A,2023-08-28_09h25.29.277,exp3,2022.2.2,
high_opac_v,0.01,1,0.01,3,0.82,3.5,0.01,0,0.01,4,5,Valid,1,63,188,start,lin,0.13837089563718802,0.13837089563718802,0.13837089563718802,1,True,,,,,,,,,,,,2,A,2023-08-28_09h25.29.277,exp3,2022.2.2,
low_opac_v,0.4,1,0.01,3,0.82,3.5,0.01,0,0.01,4,5,Valid,0,64,189,start,lin,0.08446047993166145,0.08446047993166145,0.08446047993166145,0,True,,,,,,,,,,,,2,A,2023-08-28_09h25.29.277,exp3,2022.2.2,
low_opac_i,0.4,1,0.01,3,0.82,3.5,0.01,0,0.01,4,5,Invalid,2,64,190,start,lin,0.0958009602150377,0,0.0958009602150377,1,True,,,,,,,,,,,,2,A,2023-08-28_09h25.29.277,exp3,2022.2.2,
high_opac_v,0.01,1,0.01,3,0.82,3.5,0.01,0,0.01,4,5,Valid,1,64,191,start,lin,0.13696114244383062,0,0.13696114244383062,1,True,,,,,,,,,,,,2,A,2023-08-28_09h25.29.277,exp3,2022.2.2,
high_opac_v,0.01,1,0.01,3,0.82,3.5,0.01,0,0.01,4,5,Valid,1,65,192,start,lin,0.13560623140605682,0.13560623140605682,0.13560623140605682,1,True,,,,,,,,,,,,2,A,2023-08-28_09h25.29.277,exp3,2022.2.2,
low_opac_v,0.4,1,0.01,3,0.82,3.5,0.01,0,0.01,4,5,Valid,0,65,193,start,lin,0.08982623198103845,0,0.08982623198103845,1,True,,,,,,,,,,,,2,A,2023-08-28_09h25.29.277,exp3,2022.2.2,
low_opac_i,0.4,1,0.01,3,0.82,3.5,0.01,0,0.01,4,5,Invalid,2,65,194,start,lin,0.09458580116826365,0.09458580116826365,0.09458580116826365,1,True,,,,,,,,,,,,2,A,2023-08-28_09h25.29.277,exp3,2022.2.2,
low_opac_v,0.4,1,0.01,3,0.82,3.5,0.01,0,0.01,4,5,Valid,0,66,195,start,lin,0.0884813827955726,0.0884813827955726,0.0884813827955726,0,True,,,,,,,,,,,,2,A,2023-08-28_09h25.29.277,exp3,2022.2.2,
high_opac_v,0.01,1,0.01,3,0.82,3.5,0.01,0,0.01,4,5,Valid,1,66,196,start,lin,0.1342926971556292,0,0.1342926971556292,1,True,,,,,,,,,,,,2,A,2023-08-28_09h25.29.277,exp3,2022.2.2,
low_opac_i,0.4,1,0.01,3,0.82,3.5,0.01,0,0.01,4,5,Invalid,2,66,197,start,lin,0.09329431943880812,0.09329431943880812,0.09329431943880812,1,True,,,,,,,,,,,,2,A,2023-08-28_09h25.29.277,exp3,2022.2.2,
high_opac_v,0.01,1,0.01,3,0.82,3.5,0.01,0,0.01,4,5,Valid,1,67,198,start,lin,0.1328924565379665,0,0.1328924565379665,1,True,,,,,,,,,,,,2,A,2023-08-28_09h25.29.277,exp3,2022.2.2,
low_opac_v,0.4,1,0.01,3,0.82,3.5,0.01,0,0.01,4,5,Valid,0,67,199,start,lin,0.0939208831601655,0.0939208831601655,0.0939208831601655,1,True,,,,,,,,,,,,2,A,2023-08-28_09h25.29.277,exp3,2022.2.2,
low_opac_i,0.4,1,0.01,3,0.82,3.5,0.01,0,0.01,4,5,Invalid,2,67,200,start,lin,0.09202291342777741,0,0.09202291342777741,1,True,,,,,,,,,,,,2,A,2023-08-28_09h25.29.277,exp3,2022.2.2,
low_opac_i,0.4,1,0.01,3,0.82,3.5,0.01,0,0.01,4,5,Invalid,2,68,201,start,lin,0.09076018858370788,0,0.09076018858370788,1,True,,,,,,,,,,,,2,A,2023-08-28_09h25.29.277,exp3,2022.2.2,
low_opac_v,0.4,1,0.01,3,0.82,3.5,0.01,0,0.01,4,5,Valid,0,68,202,start,lin,0.09263250046231597,0,0.09263250046231597,1,True,,,,,,,,,,,,2,A,2023-08-28_09h25.29.277,exp3,2022.2.2,
high_opac_v,0.01,1,0.01,3,0.82,3.5,0.01,0,0.01,4,5,Valid,1,68,203,start,lin,0.1315094684407901,0.1315094684407901,0.1315094684407901,1,True,,,,,,,,,,,,2,A,2023-08-28_09h25.29.277,exp3,2022.2.2,
low_opac_v,0.4,1,0.01,3,0.82,3.5,0.01,0,0.01,4,5,Valid,0,69,204,start,lin,0.0913573010824581,0.0913573010824581,0.0913573010824581,1,True,,,,,,,,,,,,2,A,2023-08-28_09h25.29.277,exp3,2022.2.2,
low_opac_i,0.4,1,0.01,3,0.82,3.5,0.01,0,0.01,4,5,Invalid,2,69,205,start,lin,0.08950150496355175,0.08950150496355175,0.08950150496355175,1,True,,,,,,,,,,,,2,A,2023-08-28_09h25.29.277,exp3,2022.2.2,
high_opac_v,0.01,1,0.01,3,0.82,3.5,0.01,0,0.01,4,5,Valid,1,69,206,start,lin,0.13013066251713842,0.13013066251713842,0.13013066251713842,1,True,,,,,,,,,,,,2,A,2023-08-28_09h25.29.277,exp3,2022.2.2,
low_opac_v,0.4,1,0.01,3,0.82,3.5,0.01,0,0.01,4,5,Valid,0,70,207,start,lin,0.09008419901932124,0.09008419901932124,0.09008419901932124,1,True,,,,,,,,,,,,2,A,2023-08-28_09h25.29.277,exp3,2022.2.2,
low_opac_i,0.4,1,0.01,3,0.82,3.5,0.01,0,0.01,4,5,Invalid,2,70,208,start,lin,0.08829319531235225,0.08829319531235225,0.08829319531235225,1,True,,,,,,,,,,,,2,A,2023-08-28_09h25.29.277,exp3,2022.2.2,
high_opac_v,0.01,1,0.01,3,0.82,3.5,0.01,0,0.01,4,5,Valid,1,70,209,start,lin,0.1287665434487074,0,0.1287665434487074,1,True,,,,,,,,,,,,2,A,2023-08-28_09h25.29.277,exp3,2022.2.2,
high_opac_v,0.01,1,0.01,3,0.82,3.5,0.01,0,0.01,4,5,Valid,1,71,210,start,lin,0.12746426786206747,0.12746426786206747,0.12746426786206747,1,True,,,,,,,,,,,,2,A,2023-08-28_09h25.29.277,exp3,2022.2.2,
low_opac_i,0.4,1,0.01,3,0.82,3.5,0.01,0,0.01,4,5,Invalid,2,71,211,start,lin,0.08713798526890393,0,0.08713798526890393,1,True,,,,,,,,,,,,2,A,2023-08-28_09h25.29.277,exp3,2022.2.2,
low_opac_v,0.4,1,0.01,3,0.82,3.5,0.01,0,0.01,4,5,Valid,0,71,212,start,lin,0.08883230977975864,0,0.08883230977975864,1,True,,,,,,,,,,,,2,A,2023-08-28_09h25.29.277,exp3,2022.2.2,
high_opac_v,0.01,1,0.01,3,0.82,3.5,0.01,0,0.01,4,5,Valid,1,72,213,start,lin,0.12621262292399424,0.12621262292399424,0.12621262292399424,1,True,,,,,,,,,,,,2,A,2023-08-28_09h25.29.277,exp3,2022.2.2,
low_opac_v,0.4,1,0.01,3,0.82,3.5,0.01,0,0.01,4,5,Valid,0,72,214,start,lin,0.08763815113107126,0,0.08763815113107126,1,True,,,,,,,,,,,,2,A,2023-08-28_09h25.29.277,exp3,2022.2.2,
low_opac_i,0.4,1,0.01,3,0.82,3.5,0.01,0,0.01,4,5,Invalid,2,72,215,start,lin,0.08602555945939944,0,0.08602555945939944,1,True,,,,,,,,,,,,2,A,2023-08-28_09h25.29.277,exp3,2022.2.2,
low_opac_i,0.4,1,0.01,3,0.82,3.5,0.01,0,0.01,4,5,Invalid,2,73,216,start,lin,0.08494666589647715,0.08494666589647715,0.08494666589647715,1,True,,,,,,,,,,,,2,A,2023-08-28_09h25.29.277,exp3,2022.2.2,
low_opac_v,0.4,1,0.01,3,0.82,3.5,0.01,0,0.01,4,5,Valid,0,73,217,start,lin,0.08649118259038469,0,0.08649118259038469,1,True,,,,,,,,,,,,2,A,2023-08-28_09h25.29.277,exp3,2022.2.2,
high_opac_v,0.01,1,0.01,3,0.82,3.5,0.01,0,0.01,4,5,Valid,1,73,218,start,lin,0.1250001299979983,0,0.1250001299979983,0,True,,,,,,,,,,,,2,A,2023-08-28_09h25.29.277,exp3,2022.2.2,
low_opac_v,0.4,1,0.01,3,0.82,3.5,0.01,0,0.01,4,5,Valid,0,74,219,start,lin,0.08538154653529473,0.08538154653529473,0.08538154653529473,1,True,,,,,,,,,,,,2,A,2023-08-28_09h25.29.277,exp3,2022.2.2,
low_opac_i,0.4,1,0.01,3,0.82,3.5,0.01,0,0.01,4,5,Invalid,2,74,220,start,lin,0.0837987723286836,0.0837987723286836,0.0837987723286836,0,True,,,,,,,,,,,,2,A,2023-08-28_09h25.29.277,exp3,2022.2.2,
high_opac_v,0.01,1,0.01,3,0.82,3.5,0.01,0,0.01,4,5,Valid,1,74,221,start,lin,0.13038617843671382,0.13038617843671382,0.13038617843671382,1,True,,,,,,,,,,,,2,A,2023-08-28_09h25.29.277,exp3,2022.2.2,
high_opac_v,0.01,1,0.01,3,0.82,3.5,0.01,0,0.01,4,5,Valid,1,75,222,start,lin,0.12912197587027574,0,0.12912197587027574,1,True,,,,,,,,,,,,2,A,2023-08-28_09h25.29.277,exp3,2022.2.2,
low_opac_v,0.4,1,0.01,3,0.82,3.5,0.01,0,0.01,4,5,Valid,0,75,223,start,lin,0.08430033207317716,0,0.08430033207317716,1,True,,,,,,,,,,,,2,A,2023-08-28_09h25.29.277,exp3,2022.2.2,
low_opac_i,0.4,1,0.01,3,0.82,3.5,0.01,0,0.01,4,5,Invalid,2,75,224,start,lin,0.08818622192594316,0.08818622192594316,0.08818622192594316,1,True,,,,,,,,,,,,2,A,2023-08-28_09h25.29.277,exp3,2022.2.2,
,,,,,,,,,,,,,,,,,,,,,,,0,2274,Valid,signal,0,2,902.354364400031,0,2.0,9.044109900016338,True,2,A,2023-08-28_09h25.29.277,exp3,2022.2.2,
,,,,,,,,,,,,,,,,,,,,,,,0,2274,Invalid,noise,0,2,912.7713473000331,1,2.0,4.397288199979812,True,2,A,2023-08-28_09h25.29.277,exp3,2022.2.2,
,,,,,,,,,,,,,,,,,,,,,,,0,557,Valid,signal,0,2,916.4026695999783,0,4.0,3.5283529000589624,True,2,A,2023-08-28_09h25.29.277,exp3,2022.2.2,
,,,,,,,,,,,,,,,,,,,,,,,0,2274,Invalid,signal,0,2,921.9870722000487,0,3.0,3.696269900072366,True,2,A,2023-08-28_09h25.29.277,exp3,2022.2.2,
,,,,,,,,,,,,,,,,,,,,,,,0,-2274,Valid,signal,0,2,926.00280570006,0,3.0,3.0298103999812156,True,2,A,2023-08-28_09h25.29.277,exp3,2022.2.2,
,,,,,,,,,,,,,,,,,,,,,,,0,-1716,Valid,noise,0,2,929.8268414000049,1,4.0,3.162424600101076,True,2,A,2023-08-28_09h25.29.277,exp3,2022.2.2,
,,,,,,,,,,,,,,,,,,,,,,,0,557,Invalid,signal,0,2,934.7233780999668,0,4.0,3.680101400008425,True,2,A,2023-08-28_09h25.29.277,exp3,2022.2.2,
,,,,,,,,,,,,,,,,,,,,,,,0,-2274,Invalid,signal,0,2,938.8830954000587,0,4.0,3.063391799922101,True,2,A,2023-08-28_09h25.29.277,exp3,2022.2.2,
,,,,,,,,,,,,,,,,,,,,,,,0,557,Invalid,noise,0,2,942.7231800999725,1,4.0,2.678758499911055,True,2,A,2023-08-28_09h25.29.277,exp3,2022.2.2,
,,,,,,,,,,,,,,,,,,,,,,,0,-2274,Valid,signal,0,2,946.4035563999787,0,4.0,2.412785999942571,True,2,A,2023-08-28_09h25.29.277,exp3,2022.2.2,
,,,,,,,,,,,,,,,,,,,,,,,0,-1716,Valid,noise,0,2,949.699189899955,1,4.0,2.2459344000089914,True,2,A,2023-08-28_09h25.29.277,exp3,2022.2.2,
,,,,,,,,,,,,,,,,,,,,,,,0,-1158,Invalid,noise,0,2,953.0907956999727,1,4.0,3.080020900000818,True,2,A,2023-08-28_09h25.29.277,exp3,2022.2.2,
,,,,,,,,,,,,,,,,,,,,,,,0,-1158,Valid,signal,0,1,958.0674728000304,1,2.0,4.1127518999855965,True,2,A,2023-08-28_09h25.29.277,exp3,2022.2.2,
,,,,,,,,,,,,,,,,,,,,,,,0,-557,Valid,noise,0,2,962.2433729999466,1,2.0,3.0131534000393003,True,2,A,2023-08-28_09h25.29.277,exp3,2022.2.2,
,,,,,,,,,,,,,,,,,,,,,,,0,-1158,Valid,noise,0,2,966.1304129000055,1,3.0,3.412705299910158,True,2,A,2023-08-28_09h25.29.277,exp3,2022.2.2,
,,,,,,,,,,,,,,,,,,,,,,,0,-1158,Valid,signal,0,1,970.7227493999526,1,3.0,3.1294936999911442,True,2,A,2023-08-28_09h25.29.277,exp3,2022.2.2,
,,,,,,,,,,,,,,,,,,,,,,,0,-557,Invalid,signal,0,2,975.5382990000071,0,3.0,3.4132050999905914,True,2,A,2023-08-28_09h25.29.277,exp3,2022.2.2,
,,,,,,,,,,,,,,,,,,,,,,,0,-2274,Valid,noise,0,2,979.1544785000151,1,4.0,3.0629488000413403,True,2,A,2023-08-28_09h25.29.277,exp3,2022.2.2,
,,,,,,,,,,,,,,,,,,,,,,,0,1716,Valid,signal,0,1,983.2991695000092,1,4.0,2.662843900034204,True,2,A,2023-08-28_09h25.29.277,exp3,2022.2.2,
,,,,,,,,,,,,,,,,,,,,,,,0,1158,Valid,signal,0,1,986.9470680999802,1,4.0,2.3126410000259057,True,2,A,2023-08-28_09h25.29.277,exp3,2022.2.2,
,,,,,,,,,,,,,,,,,,,,,,,0,-1158,Valid,signal,0,1,990.1467966999626,1,4.0,2.562430700054392,True,2,A,2023-08-28_09h25.29.277,exp3,2022.2.2,
,,,,,,,,,,,,,,,,,,,,,,,0,-2274,Invalid,noise,0,2,994.8664260000223,1,4.0,3.7800663000671193,True,2,A,2023-08-28_09h25.29.277,exp3,2022.2.2,
,,,,,,,,,,,,,,,,,,,,,,,0,1716,Invalid,noise,0,2,999.0747286999831,1,2.0,3.8965255999937654,True,2,A,2023-08-28_09h25.29.277,exp3,2022.2.2,
,,,,,,,,,,,,,,,,,,,,,,,0,-557,Invalid,noise,0,2,1003.8906173000578,1,4.0,3.179848299943842,True,2,A,2023-08-28_09h25.29.277,exp3,2022.2.2,
,,,,,,,,,,,,,,,,,,,,,,,0,-2274,Invalid,signal,0,2,1008.0030838999664,0,4.0,2.945980899967253,True,2,A,2023-08-28_09h25.29.277,exp3,2022.2.2,
,,,,,,,,,,,,,,,,,,,,,,,0,2274,Valid,noise,0,2,1011.61820789997,1,2.0,3.0966481999494135,True,2,A,2023-08-28_09h25.29.277,exp3,2022.2.2,
,,,,,,,,,,,,,,,,,,,,,,,0,2274,Invalid,signal,0,2,1016.0984219999518,0,2.0,2.962929300032556,True,2,A,2023-08-28_09h25.29.277,exp3,2022.2.2,
,,,,,,,,,,,,,,,,,,,,,,,0,1716,Valid,signal,0,1,1019.8266086999793,1,4.0,2.7296077999053523,True,2,A,2023-08-28_09h25.29.277,exp3,2022.2.2,
,,,,,,,,,,,,,,,,,,,,,,,0,-1158,Invalid,noise,0,1,1026.2590530000161,0,2.0,5.680240799905732,True,2,A,2023-08-28_09h25.29.277,exp3,2022.2.2,
,,,,,,,,,,,,,,,,,,,,,,,0,-2274,Invalid,noise,0,2,1030.3866140999598,1,4.0,2.5629560999805108,True,2,A,2023-08-28_09h25.29.277,exp3,2022.2.2,
,,,,,,,,,,,,,,,,,,,,,,,0,557,Valid,signal,0,2,1033.6032896999968,0,4.0,2.229275899939239,True,2,A,2023-08-28_09h25.29.277,exp3,2022.2.2,
,,,,,,,,,,,,,,,,,,,,,,,0,-1716,Valid,noise,0,2,1036.9474416000303,1,4.0,2.4292557999724522,True,2,A,2023-08-28_09h25.29.277,exp3,2022.2.2,
,,,,,,,,,,,,,,,,,,,,,,,0,-1158,Valid,signal,0,1,1040.371563600027,1,4.0,2.5134104000171646,True,2,A,2023-08-28_09h25.29.277,exp3,2022.2.2,
,,,,,,,,,,,,,,,,,,,,,,,0,-1716,Valid,noise,0,2,1044.4348084999947,1,2.0,3.4626396000385284,True,2,A,2023-08-28_09h25.29.277,exp3,2022.2.2,
,,,,,,,,,,,,,,,,,,,,,,,0,-1716,Valid,signal,0,1,1048.7072017999599,1,2.0,3.529747699969448,True,2,A,2023-08-28_09h25.29.277,exp3,2022.2.2,
,,,,,,,,,,,,,,,,,,,,,,,0,1716,Valid,signal,0,1,1053.2191797000123,1,3.0,2.812518500024453,True,2,A,2023-08-28_09h25.29.277,exp3,2022.2.2,
,,,,,,,,,,,,,,,,,,,,,,,0,-1716,Valid,signal,0,1,1056.7546981000341,1,4.0,3.179938399931416,True,2,A,2023-08-28_09h25.29.277,exp3,2022.2.2,
,,,,,,,,,,,,,,,,,,,,,,,0,2274,Valid,signal,0,2,1061.2351589000318,0,3.0,3.0465300999348983,True,2,A,2023-08-28_09h25.29.277,exp3,2022.2.2,
,,,,,,,,,,,,,,,,,,,,,,,0,1158,Valid,signal,0,1,1064.8992254999466,1,4.0,2.762597699998878,True,2,A,2023-08-28_09h25.29.277,exp3,2022.2.2,
,,,,,,,,,,,,,,,,,,,,,,,0,-557,Valid,noise,0,2,1068.7221329000313,1,4.0,2.6295064999721944,True,2,A,2023-08-28_09h25.29.277,exp3,2022.2.2,
,,,,,,,,,,,,,,,,,,,,,,,0,-1716,Invalid,noise,0,2,1072.8981287999777,1,1.0,3.1126279999734834,True,2,A,2023-08-28_09h25.29.277,exp3,2022.2.2,
,,,,,,,,,,,,,,,,,,,,,,,0,-1158,Invalid,signal,0,1,1077.6662315999856,1,1.0,3.8968967999098822,True,2,A,2023-08-28_09h25.29.277,exp3,2022.2.2,
,,,,,,,,,,,,,,,,,,,,,,,0,-2274,Valid,noise,0,2,1085.5231360000325,1,2.0,7.614954399992712,True,2,A,2023-08-28_09h25.29.277,exp3,2022.2.2,
,,,,,,,,,,,,,,,,,,,,,,,0,1158,Invalid,noise,0,2,1090.0983030999778,1,3.0,3.1789153000572696,True,2,A,2023-08-28_09h25.29.277,exp3,2022.2.2,
,,,,,,,,,,,,,,,,,,,,,,,0,1158,Valid,noise,0,2,1095.7141590999672,1,2.0,5.614066799986176,True,2,A,2023-08-28_09h25.29.277,exp3,2022.2.2,
,,,,,,,,,,,,,,,,,,,,,,,0,-557,Valid,signal,0,2,1101.4112147999695,0,3.0,3.613596300012432,True,2,A,2023-08-28_09h25.29.277,exp3,2022.2.2,
,,,,,,,,,,,,,,,,,,,,,,,0,557,Valid,noise,0,2,1105.4272316000424,1,3.0,2.6796169000444934,True,2,A,2023-08-28_09h25.29.277,exp3,2022.2.2,
,,,,,,,,,,,,,,,,,,,,,,,0,1158,Invalid,signal,0,2,1109.1872473000549,0,3.0,2.3463779999874532,True,2,A,2023-08-28_09h25.29.277,exp3,2022.2.2,
,,,,,,,,,,,,,,,,,,,,,,,0,-557,Valid,noise,0,1,1112.94752279995,0,2.0,4.4295997999142855,True,2,A,2023-08-28_09h25.29.277,exp3,2022.2.2,
,,,,,,,,,,,,,,,,,,,,,,,0,-1158,Valid,noise,0,2,1119.2188673999626,1,2.0,4.130699999979697,True,2,A,2023-08-28_09h25.29.277,exp3,2022.2.2,
,,,,,,,,,,,,,,,,,,,,,,,0,557,Valid,noise,0,2,1123.6347350999713,1,2.0,3.3460798000451177,True,2,A,2023-08-28_09h25.29.277,exp3,2022.2.2,
,,,,,,,,,,,,,,,,,,,,,,,0,557,Valid,noise,0,2,1127.3463890999556,1,2.0,2.346069800085388,True,2,A,2023-08-28_09h25.29.277,exp3,2022.2.2,
,,,,,,,,,,,,,,,,,,,,,,,0,1158,Valid,signal,0,2,1130.7235270000529,0,3.0,2.3798259999603033,True,2,A,2023-08-28_09h25.29.277,exp3,2022.2.2,
,,,,,,,,,,,,,,,,,,,,,,,0,1716,Invalid,noise,0,2,1134.386503900052,1,4.0,2.7293363000499085,True,2,A,2023-08-28_09h25.29.277,exp3,2022.2.2,
,,,,,,,,,,,,,,,,,,,,,,,0,-2274,Valid,noise,0,2,1137.922773999977,1,4.0,2.312439000001177,True,2,A,2023-08-28_09h25.29.277,exp3,2022.2.2,
,,,,,,,,,,,,,,,,,,,,,,,0,-1158,Valid,signal,0,1,1141.1715271000285,1,4.0,3.179547299980186,True,2,A,2023-08-28_09h25.29.277,exp3,2022.2.2,
,,,,,,,,,,,,,,,,,,,,,,,0,-557,Valid,signal,0,2,1147.3470697000157,0,3.0,4.99761820002459,True,2,A,2023-08-28_09h25.29.277,exp3,2022.2.2,
,,,,,,,,,,,,,,,,,,,,,,,0,-1158,Valid,noise,0,2,1151.266682400019,1,3.0,3.1126108000753447,True,2,A,2023-08-28_09h25.29.277,exp3,2022.2.2,
,,,,,,,,,,,,,,,,,,,,,,,0,1158,Valid,signal,0,2,1155.6664501000196,0,2.0,3.229771599988453,True,2,A,2023-08-28_09h25.29.277,exp3,2022.2.2,
,,,,,,,,,,,,,,,,,,,,,,,0,557,Valid,noise,0,2,1159.6184224999743,1,2.0,2.6292131000664085,True,2,A,2023-08-28_09h25.29.277,exp3,2022.2.2,
,,,,,,,,,,,,,,,,,,,,,,,0,-1716,Valid,noise,0,2,1163.4912592000328,1,2.0,2.6126696000574157,True,2,A,2023-08-28_09h25.29.277,exp3,2022.2.2,
,,,,,,,,,,,,,,,,,,,,,,,0,-557,Valid,noise,0,1,1167.3629073000047,0,2.0,2.812916199909523,True,2,A,2023-08-28_09h25.29.277,exp3,2022.2.2,
,,,,,,,,,,,,,,,,,,,,,,,0,1158,Valid,noise,0,2,1170.6271455000388,1,4.0,2.5295603000558913,True,2,A,2023-08-28_09h25.29.277,exp3,2022.2.2,
,,,,,,,,,,,,,,,,,,,,,,,0,-557,Valid,signal,0,1,1174.3868970000185,1,2.0,3.346949000027962,True,2,A,2023-08-28_09h25.29.277,exp3,2022.2.2,
,,,,,,,,,,,,,,,,,,,,,,,0,-2274,Valid,signal,0,2,1179.3789766000118,0,1.0,3.5460889999521896,True,2,A,2023-08-28_09h25.29.277,exp3,2022.2.2,
,,,,,,,,,,,,,,,,,,,,,,,0,1716,Invalid,signal,0,1,1183.6185225000372,1,2.0,3.0462843999266624,True,2,A,2023-08-28_09h25.29.277,exp3,2022.2.2,
,,,,,,,,,,,,,,,,,,,,,,,0,557,Invalid,signal,0,1,1187.811183599988,1,3.0,3.1457215000409633,True,2,A,2023-08-28_09h25.29.277,exp3,2022.2.2,
,,,,,,,,,,,,,,,,,,,,,,,0,-1716,Valid,signal,0,1,1191.6662789999973,1,3.0,3.679750100011006,True,2,A,2023-08-28_09h25.29.277,exp3,2022.2.2,
,,,,,,,,,,,,,,,,,,,,,,,0,-2274,Valid,signal,0,1,1196.8350740000606,1,1.0,3.6967673000181094,True,2,A,2023-08-28_09h25.29.277,exp3,2022.2.2,
,,,,,,,,,,,,,,,,,,,,,,,0,557,Valid,signal,0,2,1200.979302200023,0,4.0,3.896366599947214,True,2,A,2023-08-28_09h25.29.277,exp3,2022.2.2,
,,,,,,,,,,,,,,,,,,,,,,,0,2274,Valid,signal,0,2,1205.8911684999475,0,4.0,3.1461989999515936,True,2,A,2023-08-28_09h25.29.277,exp3,2022.2.2,
,,,,,,,,,,,,,,,,,,,,,,,0,1158,Valid,signal,0,1,1209.9862293000333,1,2.0,3.0295847000088543,True,2,A,2023-08-28_09h25.29.277,exp3,2022.2.2,
,,,,,,,,,,,,,,,,,,,,,,,0,-1716,Valid,signal,0,1,1214.03443530004,1,3.0,2.7464563000248745,True,2,A,2023-08-28_09h25.29.277,exp3,2022.2.2,
,,,,,,,,,,,,,,,,,,,,,,,0,-557,Valid,signal,0,1,1219.5384216000093,1,4.0,4.914171099895611,True,2,A,2023-08-28_09h25.29.277,exp3,2022.2.2,
,,,,,,,,,,,,,,,,,,,,,,,0,-2274,Valid,signal,0,2,1223.8741517000599,0,1.0,3.129176100017503,True,2,A,2023-08-28_09h25.29.277,exp3,2022.2.2,
,,,,,,,,,,,,,,,,,,,,,,,0,-1158,Valid,noise,0,2,1227.9067332999548,1,1.0,2.862755300011486,True,2,A,2023-08-28_09h25.29.277,exp3,2022.2.2,
,,,,,,,,,,,,,,,,,,,,,,,0,-557,Valid,noise,0,2,1231.5862890999997,1,2.0,3.195825800066814,True,2,A,2023-08-28_09h25.29.277,exp3,2022.2.2,
,,,,,,,,,,,,,,,,,,,,,,,0,-1716,Invalid,signal,0,2,1235.9713358000154,0,2.0,2.5458624000893906,True,2,A,2023-08-28_09h25.29.277,exp3,2022.2.2,
,,,,,,,,,,,,,,,,,,,,,,,0,-2274,Valid,signal,0,2,1241.0113470000215,0,3.0,4.347046399954706,True,2,A,2023-08-28_09h25.29.277,exp3,2022.2.2,
,,,,,,,,,,,,,,,,,,,,,,,0,2274,Valid,noise,0,2,1244.8189805999864,1,3.0,2.613239200087264,True,2,A,2023-08-28_09h25.29.277,exp3,2022.2.2,
,,,,,,,,,,,,,,,,,,,,,,,0,-557,Valid,signal,0,1,1248.3866941999877,1,4.0,2.9629367999732494,True,2,A,2023-08-28_09h25.29.277,exp3,2022.2.2,
,,,,,,,,,,,,,,,,,,,,,,,0,1158,Valid,signal,0,1,1252.2111478999723,1,3.0,2.5454852000111714,True,2,A,2023-08-28_09h25.29.277,exp3,2022.2.2,
,,,,,,,,,,,,,,,,,,,,,,,0,-2274,Valid,signal,0,2,1255.9229194000363,0,4.0,2.796172700007446,True,2,A,2023-08-28_09h25.29.277,exp3,2022.2.2,
,,,,,,,,,,,,,,,,,,,,,,,0,-2274,Valid,noise,0,2,1259.8271066000452,1,3.0,2.796064699999988,True,2,A,2023-08-28_09h25.29.277,exp3,2022.2.2,
,,,,,,,,,,,,,,,,,,,,,,,0,1158,Valid,signal,0,1,1263.3784839999862,1,4.0,2.4629254000028595,True,2,A,2023-08-28_09h25.29.277,exp3,2022.2.2,
,,,,,,,,,,,,,,,,,,,,,,,0,-1158,Valid,signal,0,1,1266.9146898000035,1,4.0,2.5464904999826103,True,2,A,2023-08-28_09h25.29.277,exp3,2022.2.2,
,,,,,,,,,,,,,,,,,,,,,,,0,2274,Valid,signal,0,2,1270.3548240000382,0,3.0,2.7121418999740854,True,2,A,2023-08-28_09h25.29.277,exp3,2022.2.2,
,,,,,,,,,,,,,,,,,,,,,,,0,-2274,Valid,noise,0,2,1274.3384930000175,1,3.0,2.4629162999335676,True,2,A,2023-08-28_09h25.29.277,exp3,2022.2.2,
,,,,,,,,,,,,,,,,,,,,,,,0,1716,Valid,signal,0,1,1277.5061858999543,1,4.0,2.4957828000187874,True,2,A,2023-08-28_09h25.29.277,exp3,2022.2.2,
,,,,,,,,,,,,,,,,,,,,,,,0,2274,Valid,noise,0,2,1281.0428832999896,1,4.0,2.3297160000074655,True,2,A,2023-08-28_09h25.29.277,exp3,2022.2.2,
,,,,,,,,,,,,,,,,,,,,,,,0,1716,Valid,signal,0,2,1284.8503050999716,0,3.0,2.996019799960777,True,2,A,2023-08-28_09h25.29.277,exp3,2022.2.2,
,,,,,,,,,,,,,,,,,,,,,,,0,2274,Valid,signal,0,2,1288.4670790999662,0,4.0,2.5461689999792725,True,2,A,2023-08-28_09h25.29.277,exp3,2022.2.2,
,,,,,,,,,,,,,,,,,,,,,,,0,-2274,Valid,noise,0,2,1292.2274309999775,1,3.0,2.7629498000023887,True,2,A,2023-08-28_09h25.29.277,exp3,2022.2.2,
,,,,,,,,,,,,,,,,,,,,,,,0,-2274,Valid,signal,0,2,1295.906869700062,0,4.0,2.612965299980715,True,2,A,2023-08-28_09h25.29.277,exp3,2022.2.2,
,,,,,,,,,,,,,,,,,,,,,,,0,557,Valid,noise,0,2,1299.2832235000096,1,3.0,2.3623505000723526,True,2,A,2023-08-28_09h25.29.277,exp3,2022.2.2,
,,,,,,,,,,,,,,,,,,,,,,,0,1158,Valid,noise,0,2,1304.5462258000625,1,3.0,4.213304699980654,True,2,A,2023-08-28_09h25.29.277,exp3,2022.2.2,
,,,,,,,,,,,,,,,,,,,,,,,0,1716,Valid,signal,0,2,1309.6346485000104,0,3.0,4.24674450000748,True,2,A,2023-08-28_09h25.29.277,exp3,2022.2.2,
,,,,,,,,,,,,,,,,,,,,,,,0,1158,Valid,signal,0,2,1313.217996399966,0,3.0,2.362779699964449,True,2,A,2023-08-28_09h25.29.277,exp3,2022.2.2,
,,,,,,,,,,,,,,,,,,,,,,,0,1716,Valid,noise,0,2,1316.578536099987,1,3.0,2.4458993000444025,True,2,A,2023-08-28_09h25.29.277,exp3,2022.2.2,
,,,,,,,,,,,,,,,,,,,,,,,0,-1158,Valid,noise,0,2,1321.5393594000489,1,3.0,3.996778200031258,True,2,A,2023-08-28_09h25.29.277,exp3,2022.2.2,
,,,,,,,,,,,,,,,,,,,,,,,0,-557,Valid,signal,0,1,1326.4832803000463,1,1.0,4.530318000004627,True,2,A,2023-08-28_09h25.29.277,exp3,2022.2.2,
,,,,,,,,,,,,,,,,,,,,,,,0,2274,Valid,noise,0,2,1330.4353239999618,1,4.0,2.462571099982597,True,2,A,2023-08-28_09h25.29.277,exp3,2022.2.2,
,,,,,,,,,,,,,,,,,,,,,,,0,1158,Invalid,signal,0,1,1334.322405599989,1,4.0,2.780119900009595,True,2,A,2023-08-28_09h25.29.277,exp3,2022.2.2,
,,,,,,,,,,,,,,,,,,,,,,,0,-1158,Valid,noise,0,1,1338.6425784999738,0,4.0,3.429155300022103,True,2,A,2023-08-28_09h25.29.277,exp3,2022.2.2,
,,,,,,,,,,,,,,,,,,,,,,,0,2274,Valid,signal,0,2,1342.2099714999786,0,4.0,3.1967033999972045,True,2,A,2023-08-28_09h25.29.277,exp3,2022.2.2,
,,,,,,,,,,,,,,,,,,,,,,,0,557,Valid,noise,0,2,1346.4183206000598,1,4.0,2.629270200035535,True,2,A,2023-08-28_09h25.29.277,exp3,2022.2.2,
,,,,,,,,,,,,,,,,,,,,,,,0,557,Valid,signal,0,2,1350.034005500027,0,4.0,2.5625568999676034,True,2,A,2023-08-28_09h25.29.277,exp3,2022.2.2,
,,,,,,,,,,,,,,,,,,,,,,,0,1158,Valid,noise,0,2,1353.6191301000072,1,4.0,2.2290738000301644,True,2,A,2023-08-28_09h25.29.277,exp3,2022.2.2,
,,,,,,,,,,,,,,,,,,,,,,,0,1716,Valid,noise,0,2,1356.8984141000547,1,4.0,2.262768100015819,True,2,A,2023-08-28_09h25.29.277,exp3,2022.2.2,
,,,,,,,,,,,,,,,,,,,,,,,0,-1158,Invalid,signal,0,2,1361.0113890999928,0,4.0,3.079867499996908,True,2,A,2023-08-28_09h25.29.277,exp3,2022.2.2,
,,,,,,,,,,,,,,,,,,,,,,,0,557,Valid,signal,0,2,1365.6982105999487,0,4.0,3.8968104999512434,True,2,A,2023-08-28_09h25.29.277,exp3,2022.2.2,
,,,,,,,,,,,,,,,,,,,,,,,0,-1716,Invalid,noise,0,2,1369.474750900059,1,1.0,3.7616372000193223,True,2,A,2023-08-28_09h25.29.277,exp3,2022.2.2,
,,,,,,,,,,,,,,,,,,,,,,,0,-557,Valid,noise,0,2,1373.874041400035,1,1.0,2.5126087999669835,True,2,A,2023-08-28_09h25.29.277,exp3,2022.2.2,
,,,,,,,,,,,,,,,,,,,,,,,0,1716,Valid,noise,0,2,1377.6031452000607,1,3.0,2.8629645000910386,True,2,A,2023-08-28_09h25.29.277,exp3,2022.2.2,
,,,,,,,,,,,,,,,,,,,,,,,0,1716,Valid,noise,0,2,1381.2183233000105,1,2.0,2.3794874999439344,True,2,A,2023-08-28_09h25.29.277,exp3,2022.2.2,
,,,,,,,,,,,,,,,,,,,,,,,0,-1158,Valid,signal,0,1,1384.8825594000518,1,4.0,2.9962644000770524,True,2,A,2023-08-28_09h25.29.277,exp3,2022.2.2,
,,,,,,,,,,,,,,,,,,,,,,,0,557,Valid,noise,0,2,1390.339209400001,1,4.0,4.1632411000318825,True,2,A,2023-08-28_09h25.29.277,exp3,2022.2.2,
,,,,,,,,,,,,,,,,,,,,,,,0,-1716,Valid,noise,0,2,1395.2512355999788,1,1.0,4.479810500051826,True,2,A,2023-08-28_09h25.29.277,exp3,2022.2.2,
,,,,,,,,,,,,,,,,,,,,,,,0,1716,Valid,signal,0,2,1399.4431978999637,0,2.0,2.8464191999519244,True,2,A,2023-08-28_09h25.29.277,exp3,2022.2.2,
,,,,,,,,,,,,,,,,,,,,,,,0,-557,Valid,signal,0,1,1405.7627765999641,1,3.0,7.747880900045857,True,2,A,2023-08-28_09h25.29.277,exp3,2022.2.2,
,,,,,,,,,,,,,,,,,,,,,,,0,557,Valid,noise,0,2,1411.9543747999705,1,2.0,2.495872600004077,True,2,A,2023-08-28_09h25.29.277,exp3,2022.2.2,
,,,,,,,,,,,,,,,,,,,,,,,0,-1158,Valid,noise,0,2,1417.3462049999507,1,2.0,4.380777799990028,True,2,A,2023-08-28_09h25.29.277,exp3,2022.2.2,
,,,,,,,,,,,,,,,,,,,,,,,0,-557,Invalid,signal,0,2,1421.1059502999997,0,3.0,2.8627069999929518,True,2,A,2023-08-28_09h25.29.277,exp3,2022.2.2,
,,,,,,,,,,,,,,,,,,,,,,,0,1716,Invalid,signal,0,2,1425.5709320000606,0,3.0,3.3132583000697196,True,2,A,2023-08-28_09h25.29.277,exp3,2022.2.2,
,,,,,,,,,,,,,,,,,,,,,,,0,1158,Valid,noise,0,2,1428.9148155000294,1,2.0,2.329310499946587,True,2,A,2023-08-28_09h25.29.277,exp3,2022.2.2,
,,,,,,,,,,,,,,,,,,,,,,,0,2274,Valid,noise,0,2,1432.8021747999592,1,1.0,3.479789500008337,True,2,A,2023-08-28_09h25.29.277,exp3,2022.2.2,
,,,,,,,,,,,,,,,,,,,,,,,0,1158,Valid,noise,0,2,1437.2032176000066,1,2.0,3.3294474000576884,True,2,A,2023-08-28_09h25.29.277,exp3,2022.2.2,
,,,,,,,,,,,,,,,,,,,,,,,0,-557,Valid,signal,0,2,1442.083322999999,0,1.0,4.246690699947067,True,2,A,2023-08-28_09h25.29.277,exp3,2022.2.2,
,,,,,,,,,,,,,,,,,,,,,,,0,2274,Valid,signal,0,2,1446.627312400029,0,4.0,2.829522200045176,True,2,A,2023-08-28_09h25.29.277,exp3,2022.2.2,
,,,,,,,,,,,,,,,,,,,,,,,0,1716,Valid,noise,0,2,1450.3860937999561,1,4.0,2.3460835999576375,True,2,A,2023-08-28_09h25.29.277,exp3,2022.2.2,
,,,,,,,,,,,,,,,,,,,,,,,0,-1716,Valid,signal,0,1,1453.5551673000446,1,4.0,2.32891650008969,True,2,A,2023-08-28_09h25.29.277,exp3,2022.2.2,
,,,,,,,,,,,,,,,,,,,,,,,0,-1716,Valid,signal,0,1,1457.0429886999773,1,4.0,2.2800364999566227,True,2,A,2023-08-28_09h25.29.277,exp3,2022.2.2,
,,,,,,,,,,,,,,,,,,,,,,,0,-1716,Valid,noise,0,2,1460.738179499982,1,2.0,3.329412700026296,True,2,A,2023-08-28_09h25.29.277,exp3,2022.2.2,
,,,,,,,,,,,,,,,,,,,,,,,0,-1716,Valid,noise,0,2,1464.5472207999555,1,3.0,2.462185100070201,True,2,A,2023-08-28_09h25.29.277,exp3,2022.2.2,
,,,,,,,,,,,,,,,,,,,,,,,0,-1158,Valid,noise,0,1,1468.0820439000381,0,3.0,2.429499699966982,True,2,A,2023-08-28_09h25.29.277,exp3,2022.2.2,
,,,,,,,,,,,,,,,,,,,,,,,0,-557,Valid,signal,0,1,1471.5708946000086,1,4.0,2.612537099979818,True,2,A,2023-08-28_09h25.29.277,exp3,2022.2.2,
,,,,,,,,,,,,,,,,,,,,,,,0,-557,Invalid,noise,0,2,1475.3459405000322,1,4.0,2.5298474999144673,True,2,A,2023-08-28_09h25.29.277,exp3,2022.2.2,
,,,,,,,,,,,,,,,,,,,,,,,0,-1716,Valid,signal,0,1,1478.6901624000166,1,4.0,2.328988300054334,True,2,A,2023-08-28_09h25.29.277,exp3,2022.2.2,
,,,,,,,,,,,,,,,,,,,,,,,0,-2274,Valid,noise,0,1,1482.131168300053,0,4.0,2.3125852000666782,True,2,A,2023-08-28_09h25.29.277,exp3,2022.2.2,
,,,,,,,,,,,,,,,,,,,,,,,0,557,Valid,signal,0,2,1485.4424881000305,0,4.0,2.513571499963291,True,2,A,2023-08-28_09h25.29.277,exp3,2022.2.2,
,,,,,,,,,,,,,,,,,,,,,,,0,557,Valid,noise,0,2,1488.6909247000003,1,4.0,2.0122970999218524,True,2,A,2023-08-28_09h25.29.277,exp3,2022.2.2,
,,,,,,,,,,,,,,,,,,,,,,,0,1716,Valid,noise,0,2,1491.6659083999693,1,4.0,2.0120797998970374,True,2,A,2023-08-28_09h25.29.277,exp3,2022.2.2,
,,,,,,,,,,,,,,,,,,,,,,,0,-2274,Valid,signal,0,1,1495.2979617000092,1,1.0,3.163194000022486,True,2,A,2023-08-28_09h25.29.277,exp3,2022.2.2,
,,,,,,,,,,,,,,,,,,,,,,,0,1716,Valid,noise,0,2,1499.5701397999655,1,2.0,3.179324899916537,True,2,A,2023-08-28_09h25.29.277,exp3,2022.2.2,
,,,,,,,,,,,,,,,,,,,,,,,0,1158,Valid,noise,0,2,1503.1219961000606,1,4.0,2.546442399965599,True,2,A,2023-08-28_09h25.29.277,exp3,2022.2.2,
,,,,,,,,,,,,,,,,,,,,,,,0,-1716,Valid,signal,0,1,1506.8191951999906,1,4.0,2.4290142999961972,True,2,A,2023-08-28_09h25.29.277,exp3,2022.2.2,
,,,,,,,,,,,,,,,,,,,,,,,0,-1158,Valid,signal,0,1,1510.1943029999966,1,4.0,2.1627957000164315,True,2,A,2023-08-28_09h25.29.277,exp3,2022.2.2,
,,,,,,,,,,,,,,,,,,,,,,,0,-557,Valid,noise,0,2,1513.4260904999683,1,2.0,3.4297970000188798,True,2,A,2023-08-28_09h25.29.277,exp3,2022.2.2,
,,,,,,,,,,,,,,,,,,,,,,,0,-2274,Valid,noise,0,2,1518.082435999997,1,1.0,3.2462392000015825,True,2,A,2023-08-28_09h25.29.277,exp3,2022.2.2,
,,,,,,,,,,,,,,,,,,,,,,,0,2274,Valid,noise,0,2,1522.0662056000438,1,4.0,2.695915099931881,True,2,A,2023-08-28_09h25.29.277,exp3,2022.2.2,
,,,,,,,,,,,,,,,,,,,,,,,0,2274,Valid,noise,0,2,1525.8432135999901,1,3.0,2.4960914000403136,True,2,A,2023-08-28_09h25.29.277,exp3,2022.2.2,
,,,,,,,,,,,,,,,,,,,,,,,0,-1716,Valid,signal,0,1,1529.3792275000596,1,3.0,2.345840399968438,True,2,A,2023-08-28_09h25.29.277,exp3,2022.2.2,
,,,,,,,,,,,,,,,,,,,,,,,0,-557,Valid,noise,0,2,1532.5144010999938,1,4.0,2.3964075000258163,True,2,A,2023-08-28_09h25.29.277,exp3,2022.2.2,
,,,,,,,,,,,,,,,,,,,,,,,0,557,Valid,signal,0,2,1535.8099363000365,0,4.0,2.3787424999754876,True,2,A,2023-08-28_09h25.29.277,exp3,2022.2.2,
,,,,,,,,,,,,,,,,,,,,,,,0,-557,Valid,noise,0,2,1539.4421201000223,1,2.0,2.729675499955192,True,2,A,2023-08-28_09h25.29.277,exp3,2022.2.2,
,,,,,,,,,,,,,,,,,,,,,,,0,557,Valid,signal,0,2,1542.9786625000415,0,4.0,2.4461253999033943,True,2,A,2023-08-28_09h25.29.277,exp3,2022.2.2,
,,,,,,,,,,,,,,,,,,,,,,,0,-1716,Invalid,signal,0,2,1546.8827895000577,0,4.0,2.8289233999093994,True,2,A,2023-08-28_09h25.29.277,exp3,2022.2.2,
,,,,,,,,,,,,,,,,,,,,,,,0,1158,Invalid,noise,0,2,1550.5140816000057,1,3.0,2.5627340999199077,True,2,A,2023-08-28_09h25.29.277,exp3,2022.2.2,
,,,,,,,,,,,,,,,,,,,,,,,0,-1716,Valid,noise,0,2,1554.0025532,1,2.0,2.4465649001067504,True,2,A,2023-08-28_09h25.29.277,exp3,2022.2.2,
,,,,,,,,,,,,,,,,,,,,,,,0,-1158,Valid,signal,0,1,1557.4273002999835,1,4.0,2.445797099964693,True,2,A,2023-08-28_09h25.29.277,exp3,2022.2.2,
,,,,,,,,,,,,,,,,,,,,,,,0,1716,Valid,noise,0,2,1560.8668911999557,1,3.0,2.212869100039825,True,2,A,2023-08-28_09h25.29.277,exp3,2022.2.2,
,,,,,,,,,,,,,,,,,,,,,,,0,2274,Valid,signal,0,2,1564.1624403999886,0,2.0,4.313683599932119,True,2,A,2023-08-28_09h25.29.277,exp3,2022.2.2,
,,,,,,,,,,,,,,,,,,,,,,,0,-1158,Valid,noise,0,2,1570.642534899991,1,2.0,3.7624194000381976,True,2,A,2023-08-28_09h25.29.277,exp3,2022.2.2,
,,,,,,,,,,,,,,,,,,,,,,,0,1716,Valid,signal,0,2,1574.5145943999523,0,2.0,2.7460806999588385,True,2,A,2023-08-28_09h25.29.277,exp3,2022.2.2,
,,,,,,,,,,,,,,,,,,,,,,,0,2274,Valid,signal,0,2,1577.8744600999635,0,3.0,2.3795364999677986,True,2,A,2023-08-28_09h25.29.277,exp3,2022.2.2,
,,,,,,,,,,,,,,,,,,,,,,,0,1716,Valid,noise,0,2,1581.2182704999577,1,3.0,2.1455344000132754,True,2,A,2023-08-28_09h25.29.277,exp3,2022.2.2,
,,,,,,,,,,,,,,,,,,,,,,,0,1158,Valid,signal,0,2,1584.0499046000186,0,2.0,2.213335799984634,True,2,A,2023-08-28_09h25.29.277,exp3,2022.2.2,
,,,,,,,,,,,,,,,,,,,,,,,0,2274,Valid,noise,0,2,1587.5224272999913,1,2.0,2.3956887000240386,True,2,A,2023-08-28_09h25.29.277,exp3,2022.2.2,
,,,,,,,,,,,,,,,,,,,,,,,0,1716,Valid,signal,0,2,1591.0270627000136,0,2.0,2.195814299979247,True,2,A,2023-08-28_09h25.29.277,exp3,2022.2.2,
,,,,,,,,,,,,,,,,,,,,,,,0,1158,Valid,noise,0,2,1594.4832959000487,1,4.0,2.629746500053443,True,2,A,2023-08-28_09h25.29.277,exp3,2022.2.2,
,,,,,,,,,,,,,,,,,,,,,,,0,2274,Valid,noise,0,2,1597.8104908999521,1,3.0,2.245685699977912,True,2,A,2023-08-28_09h25.29.277,exp3,2022.2.2,
,,,,,,,,,,,,,,,,,,,,,,,0,557,Invalid,noise,0,2,1601.0102337000426,1,3.0,2.412457099999301,True,2,A,2023-08-28_09h25.29.277,exp3,2022.2.2,
,,,,,,,,,,,,,,,,,,,,,,,0,557,Valid,signal,0,2,1604.4826060000341,0,3.0,2.1125949000706896,True,2,A,2023-08-28_09h25.29.277,exp3,2022.2.2,
,,,,,,,,,,,,,,,,,,,,,,,0,2274,Invalid,noise,0,2,1608.1622373999562,1,3.0,2.6456542999949306,True,2,A,2023-08-28_09h25.29.277,exp3,2022.2.2,
,,,,,,,,,,,,,,,,,,,,,,,0,1158,Valid,noise,0,2,1611.298189299996,1,2.0,2.4299156999913976,True,2,A,2023-08-28_09h25.29.277,exp3,2022.2.2,
,,,,,,,,,,,,,,,,,,,,,,,0,-2274,Valid,noise,0,2,1614.6750602000393,1,3.0,2.8122043000767007,True,2,A,2023-08-28_09h25.29.277,exp3,2022.2.2,
,,,,,,,,,,,,,,,,,,,,,,,1,-2274,Valid,noise,0,2,1777.9868806999875,1,1.0,7.202996599953622,True,2,A,2023-08-28_09h25.29.277,exp3,2022.2.2,
,,,,,,,,,,,,,,,,,,,,,,,2,557,Invalid,signal,0,1,1782.2903733999701,1,4.0,3.3295583000872284,True,2,A,2023-08-28_09h25.29.277,exp3,2022.2.2,
,,,,,,,,,,,,,,,,,,,,,,,3,1716,Valid,signal,0,2,1786.6746541999746,0,4.0,2.4294382000807673,True,2,A,2023-08-28_09h25.29.277,exp3,2022.2.2,
,,,,,,,,,,,,,,,,,,,,,,,4,1716,Valid,noise,0,2,1789.8904681999702,1,3.0,2.6626210999675095,True,2,A,2023-08-28_09h25.29.277,exp3,2022.2.2,
,,,,,,,,,,,,,,,,,,,,,,,5,2274,Invalid,signal,0,2,1793.4582336000167,0,3.0,2.679719200008549,True,2,A,2023-08-28_09h25.29.277,exp3,2022.2.2,
,,,,,,,,,,,,,,,,,,,,,,,6,557,Valid,signal,0,2,1797.3625277000247,0,3.0,2.2629216000204906,True,2,A,2023-08-28_09h25.29.277,exp3,2022.2.2,
,,,,,,,,,,,,,,,,,,,,,,,7,-557,Invalid,noise,0,2,1801.1062910000328,1,3.0,2.846081899944693,True,2,A,2023-08-28_09h25.29.277,exp3,2022.2.2,
,,,,,,,,,,,,,,,,,,,,,,,8,1158,Valid,signal,0,1,1804.4831516999984,1,4.0,2.462184700067155,True,2,A,2023-08-28_09h25.29.277,exp3,2022.2.2,
,,,,,,,,,,,,,,,,,,,,,,,9,2274,Valid,signal,0,2,1808.0346725999843,0,3.0,2.5296980999410152,True,2,A,2023-08-28_09h25.29.277,exp3,2022.2.2,
,,,,,,,,,,,,,,,,,,,,,,,10,-557,Valid,signal,0,1,1811.2830279000336,1,4.0,2.529666499933228,True,2,A,2023-08-28_09h25.29.277,exp3,2022.2.2,
,,,,,,,,,,,,,,,,,,,,,,,11,-1158,Valid,signal,0,1,1814.962584999972,1,4.0,3.395898999995552,True,2,A,2023-08-28_09h25.29.277,exp3,2022.2.2,
,,,,,,,,,,,,,,,,,,,,,,,12,-2274,Valid,signal,0,2,1819.938885099953,0,4.0,3.4461882999166846,True,2,A,2023-08-28_09h25.29.277,exp3,2022.2.2,
,,,,,,,,,,,,,,,,,,,,,,,13,-557,Invalid,signal,0,1,1824.034698399948,1,4.0,2.562395800021477,True,2,A,2023-08-28_09h25.29.277,exp3,2022.2.2,
,,,,,,,,,,,,,,,,,,,,,,,14,-2274,Valid,noise,0,1,1827.7145772000076,0,4.0,2.4793195000384003,True,2,A,2023-08-28_09h25.29.277,exp3,2022.2.2,
,,,,,,,,,,,,,,,,,,,,,,,15,1158,Valid,noise,0,2,1831.2030941999983,1,4.0,2.812778400024399,True,2,A,2023-08-28_09h25.29.277,exp3,2022.2.2,
,,,,,,,,,,,,,,,,,,,,,,,16,-2274,Valid,signal,0,2,1834.690043700044,0,4.0,2.1293660999508575,True,2,A,2023-08-28_09h25.29.277,exp3,2022.2.2,
,,,,,,,,,,,,,,,,,,,,,,,17,557,Valid,signal,0,2,1837.7471135000233,0,4.0,2.2131105000153184,True,2,A,2023-08-28_09h25.29.277,exp3,2022.2.2,
,,,,,,,,,,,,,,,,,,,,,,,18,-1716,Invalid,noise,0,2,1841.2498364000348,1,4.0,2.5455161000136286,True,2,A,2023-08-28_09h25.29.277,exp3,2022.2.2,
,,,,,,,,,,,,,,,,,,,,,,,19,-2274,Valid,signal,0,2,1844.7218443000456,0,4.0,2.3790714000351727,True,2,A,2023-08-28_09h25.29.277,exp3,2022.2.2,
,,,,,,,,,,,,,,,,,,,,,,,20,-1716,Valid,signal,0,1,1847.841821399983,1,4.0,2.0631994999712333,True,2,A,2023-08-28_09h25.29.277,exp3,2022.2.2,
,,,,,,,,,,,,,,,,,,,,,,,21,-1158,Valid,noise,0,2,1851.23515339999,1,4.0,2.462229499942623,True,2,A,2023-08-28_09h25.29.277,exp3,2022.2.2,
,,,,,,,,,,,,,,,,,,,,,,,22,-1716,Valid,signal,0,2,1854.7383496999973,0,4.0,2.8126472999574617,True,2,A,2023-08-28_09h25.29.277,exp3,2022.2.2,
,,,,,,,,,,,,,,,,,,,,,,,23,2274,Valid,noise,0,2,1858.3378022999968,1,4.0,2.3624917999841273,True,2,A,2023-08-28_09h25.29.277,exp3,2022.2.2,
,,,,,,,,,,,,,,,,,,,,,,,24,2274,Invalid,noise,0,2,1861.969731500023,1,4.0,2.7628980999579653,True,2,A,2023-08-28_09h25.29.277,exp3,2022.2.2,
,,,,,,,,,,,,,,,,,,,,,,,25,1716,Valid,noise,0,2,1865.618863599957,1,4.0,2.4121672000037506,True,2,A,2023-08-28_09h25.29.277,exp3,2022.2.2,
,,,,,,,,,,,,,,,,,,,,,,,26,-2274,Valid,noise,0,2,1868.8663936000085,1,4.0,2.2126946999924257,True,2,A,2023-08-28_09h25.29.277,exp3,2022.2.2,
,,,,,,,,,,,,,,,,,,,,,,,27,-557,Valid,noise,0,1,1872.3708685999736,0,4.0,2.5462107999483123,True,2,A,2023-08-28_09h25.29.277,exp3,2022.2.2,
,,,,,,,,,,,,,,,,,,,,,,,28,1158,Valid,signal,0,1,1875.6186991999857,1,4.0,2.1124341000104323,True,2,A,2023-08-28_09h25.29.277,exp3,2022.2.2,
,,,,,,,,,,,,,,,,,,,,,,,29,-1158,Valid,noise,0,2,1878.7710169999627,1,4.0,2.1619914999464527,True,2,A,2023-08-28_09h25.29.277,exp3,2022.2.2,
,,,,,,,,,,,,,,,,,,,,,,,30,-1716,Valid,signal,0,1,1881.9547246999573,1,4.0,2.1460484999697655,True,2,A,2023-08-28_09h25.29.277,exp3,2022.2.2,
,,,,,,,,,,,,,,,,,,,,,,,31,1716,Valid,noise,0,2,1885.0421438999474,1,4.0,2.1127503000898287,True,2,A,2023-08-28_09h25.29.277,exp3,2022.2.2,
,,,,,,,,,,,,,,,,,,,,,,,32,2274,Valid,noise,0,1,1888.2260916000232,0,4.0,2.279151799972169,True,2,A,2023-08-28_09h25.29.277,exp3,2022.2.2,
,,,,,,,,,,,,,,,,,,,,,,,33,-2274,Valid,noise,0,1,1891.458209699951,0,4.0,2.095945200067945,True,2,A,2023-08-28_09h25.29.277,exp3,2022.2.2,
,,,,,,,,,,,,,,,,,,,,,,,34,-2274,Valid,noise,0,2,1894.593701899983,1,4.0,2.1290498999878764,True,2,A,2023-08-28_09h25.29.277,exp3,2022.2.2,
,,,,,,,,,,,,,,,,,,,,,,,35,557,Valid,noise,0,2,1897.7462367999833,1,4.0,2.7133858000161126,True,2,A,2023-08-28_09h25.29.277,exp3,2022.2.2,
,,,,,,,,,,,,,,,,,,,,,,,36,-1716,Valid,signal,0,2,1901.5384465999668,0,4.0,2.3450518999015912,True,2,A,2023-08-28_09h25.29.277,exp3,2022.2.2,
,,,,,,,,,,,,,,,,,,,,,,,37,1716,Valid,noise,0,2,1904.8990318999859,1,4.0,2.3457271000370383,True,2,A,2023-08-28_09h25.29.277,exp3,2022.2.2,
,,,,,,,,,,,,,,,,,,,,,,,38,1158,Valid,signal,0,1,1908.1780129000545,1,4.0,2.4127999999327585,True,2,A,2023-08-28_09h25.29.277,exp3,2022.2.2,
,,,,,,,,,,,,,,,,,,,,,,,39,-1716,Invalid,noise,0,2,1911.52236860001,1,3.0,2.3796813000226393,True,2,A,2023-08-28_09h25.29.277,exp3,2022.2.2,
,,,,,,,,,,,,,,,,,,,,,,,40,-1158,Valid,signal,0,1,1914.8023667000234,1,4.0,2.3291306000901386,True,2,A,2023-08-28_09h25.29.277,exp3,2022.2.2,
,,,,,,,,,,,,,,,,,,,,,,,41,-1716,Invalid,signal,0,1,1918.3545498000458,1,4.0,2.312944399891421,True,2,A,2023-08-28_09h25.29.277,exp3,2022.2.2,
,,,,,,,,,,,,,,,,,,,,,,,42,-557,Valid,noise,0,2,1921.522313100053,1,4.0,2.2286903000203893,True,2,A,2023-08-28_09h25.29.277,exp3,2022.2.2,
,,,,,,,,,,,,,,,,,,,,,,,43,-1158,Invalid,noise,0,2,1925.0589193999767,1,4.0,2.5629768000217155,True,2,A,2023-08-28_09h25.29.277,exp3,2022.2.2,
,,,,,,,,,,,,,,,,,,,,,,,44,1158,Valid,signal,0,1,1930.1626907000318,1,4.0,4.030197600019164,True,2,A,2023-08-28_09h25.29.277,exp3,2022.2.2,
,,,,,,,,,,,,,,,,,,,,,,,45,-557,Valid,noise,0,2,1933.379039500025,1,3.0,2.428899500053376,True,2,A,2023-08-28_09h25.29.277,exp3,2022.2.2,
,,,,,,,,,,,,,,,,,,,,,,,46,557,Valid,noise,0,2,1936.8348070000065,1,3.0,2.212970499997027,True,2,A,2023-08-28_09h25.29.277,exp3,2022.2.2,
,,,,,,,,,,,,,,,,,,,,,,,47,1716,Valid,noise,0,2,1939.9549631000264,1,4.0,2.4794412000337616,True,2,A,2023-08-28_09h25.29.277,exp3,2022.2.2,
,,,,,,,,,,,,,,,,,,,,,,,48,1158,Valid,noise,0,2,1943.6345311000478,1,3.0,2.5291368999751285,True,2,A,2023-08-28_09h25.29.277,exp3,2022.2.2,
,,,,,,,,,,,,,,,,,,,,,,,49,2274,Valid,signal,0,2,1947.0270548999542,0,3.0,2.3798502000281587,True,2,A,2023-08-28_09h25.29.277,exp3,2022.2.2,
,,,,,,,,,,,,,,,,,,,,,,,50,-1158,Invalid,signal,0,2,1950.4981299999636,0,3.0,2.1785417000064626,True,2,A,2023-08-28_09h25.29.277,exp3,2022.2.2,
,,,,,,,,,,,,,,,,,,,,,,,51,-557,Valid,signal,0,2,1953.7469438000116,0,3.0,2.5632753000827506,True,2,A,2023-08-28_09h25.29.277,exp3,2022.2.2,
,,,,,,,,,,,,,,,,,,,,,,,52,557,Valid,noise,0,2,1958.7067633999977,1,4.0,4.312963599921204,True,2,A,2023-08-28_09h25.29.277,exp3,2022.2.2,
,,,,,,,,,,,,,,,,,,,,,,,53,1158,Valid,signal,0,1,1962.4343302999623,1,4.0,2.1793227999005467,True,2,A,2023-08-28_09h25.29.277,exp3,2022.2.2,
,,,,,,,,,,,,,,,,,,,,,,,54,-1716,Valid,signal,0,1,1965.6660318999784,1,4.0,2.328536199987866,True,2,A,2023-08-28_09h25.29.277,exp3,2022.2.2,
,,,,,,,,,,,,,,,,,,,,,,,55,2274,Valid,signal,0,1,1969.217862599995,1,4.0,2.279348299955018,True,2,A,2023-08-28_09h25.29.277,exp3,2022.2.2,
,,,,,,,,,,,,,,,,,,,,,,,56,-557,Valid,noise,0,2,1972.9619604999898,1,4.0,2.9124295000219718,True,2,A,2023-08-28_09h25.29.277,exp3,2022.2.2,
,,,,,,,,,,,,,,,,,,,,,,,57,1716,Invalid,noise,0,2,1976.8830620000372,1,1.0,3.263315699994564,True,2,A,2023-08-28_09h25.29.277,exp3,2022.2.2,
,,,,,,,,,,,,,,,,,,,,,,,58,-1716,Valid,signal,0,1,1981.1060007000342,1,2.0,3.229497199994512,True,2,A,2023-08-28_09h25.29.277,exp3,2022.2.2,
,,,,,,,,,,,,,,,,,,,,,,,59,1158,Invalid,noise,0,2,1985.122732799966,1,2.0,3.0459921000292525,True,2,A,2023-08-28_09h25.29.277,exp3,2022.2.2,
,,,,,,,,,,,,,,,,,,,,,,,60,1716,Valid,signal,0,1,1988.8024909000378,1,4.0,3.0627203000476584,True,2,A,2023-08-28_09h25.29.277,exp3,2022.2.2,
,,,,,,,,,,,,,,,,,,,,,,,61,-1716,Valid,noise,0,2,1993.0419818999944,1,3.0,2.612840000074357,True,2,A,2023-08-28_09h25.29.277,exp3,2022.2.2,
,,,,,,,,,,,,,,,,,,,,,,,62,-2274,Valid,signal,0,2,1996.6896837999811,0,3.0,3.14582390000578,True,2,A,2023-08-28_09h25.29.277,exp3,2022.2.2,
,,,,,,,,,,,,,,,,,,,,,,,63,-1716,Valid,signal,0,1,2000.6576652999502,1,4.0,2.379586199996993,True,2,A,2023-08-28_09h25.29.277,exp3,2022.2.2,
,,,,,,,,,,,,,,,,,,,,,,,64,557,Valid,noise,0,2,2004.194527399959,1,4.0,2.4796690000221133,True,2,A,2023-08-28_09h25.29.277,exp3,2022.2.2,
,,,,,,,,,,,,,,,,,,,,,,,65,1716,Valid,signal,0,1,2007.5546159000369,1,4.0,2.245542399934493,True,2,A,2023-08-28_09h25.29.277,exp3,2022.2.2,
,,,,,,,,,,,,,,,,,,,,,,,66,-1716,Valid,noise,0,1,2010.8508338000393,0,4.0,2.262578000081703,True,2,A,2023-08-28_09h25.29.277,exp3,2022.2.2,
,,,,,,,,,,,,,,,,,,,,,,,67,1158,Valid,signal,0,1,2014.0819574999623,1,4.0,2.2129311999306083,True,2,A,2023-08-28_09h25.29.277,exp3,2022.2.2,
,,,,,,,,,,,,,,,,,,,,,,,68,2274,Valid,signal,0,2,2019.3465597999748,0,4.0,4.329333700006828,True,2,A,2023-08-28_09h25.29.277,exp3,2022.2.2,
,,,,,,,,,,,,,,,,,,,,,,,69,-2274,Valid,noise,0,2,2022.6418587999651,1,4.0,2.245604299940169,True,2,A,2023-08-28_09h25.29.277,exp3,2022.2.2,
,,,,,,,,,,,,,,,,,,,,,,,70,2274,Valid,noise,0,1,2026.0027330999728,0,4.0,2.3793343999423087,True,2,A,2023-08-28_09h25.29.277,exp3,2022.2.2,
,,,,,,,,,,,,,,,,,,,,,,,71,-557,Invalid,noise,0,2,2029.6177464999491,1,3.0,3.6630523999920115,True,2,A,2023-08-28_09h25.29.277,exp3,2022.2.2,
,,,,,,,,,,,,,,,,,,,,,,,72,-2274,Invalid,noise,0,2,2034.1950158999534,1,4.0,3.012512299930677,True,2,A,2023-08-28_09h25.29.277,exp3,2022.2.2,
,,,,,,,,,,,,,,,,,,,,,,,73,1716,Valid,signal,0,1,2038.034106999985,1,3.0,2.712893499992788,True,2,A,2023-08-28_09h25.29.277,exp3,2022.2.2,
,,,,,,,,,,,,,,,,,,,,,,,74,-2274,Invalid,signal,0,2,2042.0989579999587,0,4.0,3.261374399997294,True,2,A,2023-08-28_09h25.29.277,exp3,2022.2.2,
,,,,,,,,,,,,,,,,,,,,,,,75,557,Valid,noise,0,2,2046.0825174000347,1,4.0,2.562829399947077,True,2,A,2023-08-28_09h25.29.277,exp3,2022.2.2,
,,,,,,,,,,,,,,,,,,,,,,,76,-2274,Invalid,signal,0,2,2049.857873799978,0,4.0,2.7794526999350637,True,2,A,2023-08-28_09h25.29.277,exp3,2022.2.2,
,,,,,,,,,,,,,,,,,,,,,,,77,1716,Valid,signal,0,1,2053.329637799994,1,4.0,2.2794224000535905,True,2,A,2023-08-28_09h25.29.277,exp3,2022.2.2,
,,,,,,,,,,,,,,,,,,,,,,,78,-1158,Invalid,signal,0,2,2056.706982600037,0,3.0,2.796662800014019,True,2,A,2023-08-28_09h25.29.277,exp3,2022.2.2,
,,,,,,,,,,,,,,,,,,,,,,,79,-1158,Valid,noise,0,2,2060.3221498000203,1,3.0,2.178055000025779,True,2,A,2023-08-28_09h25.29.277,exp3,2022.2.2,
,,,,,,,,,,,,,,,,,,,,,,,80,557,Valid,noise,0,2,2063.5060927000595,1,3.0,2.21219300001394,True,2,A,2023-08-28_09h25.29.277,exp3,2022.2.2,
,,,,,,,,,,,,,,,,,,,,,,,81,2274,Valid,signal,0,2,2068.2904612000566,0,3.0,3.8630188000388443,True,2,A,2023-08-28_09h25.29.277,exp3,2022.2.2,
,,,,,,,,,,,,,,,,,,,,,,,82,-1716,Valid,noise,0,2,2071.6658146999544,1,3.0,2.282334899995476,True,2,A,2023-08-28_09h25.29.277,exp3,2022.2.2,
,,,,,,,,,,,,,,,,,,,,,,,83,-557,Valid,signal,0,2,2075.0585484999465,0,3.0,2.5761041999794543,True,2,A,2023-08-28_09h25.29.277,exp3,2022.2.2,
,,,,,,,,,,,,,,,,,,,,,,,84,2274,Valid,noise,0,2,2079.3459417000413,1,4.0,3.1463389000855386,True,2,A,2023-08-28_09h25.29.277,exp3,2022.2.2,
,,,,,,,,,,,,,,,,,,,,,,,85,-557,Valid,signal,0,1,2082.6750418000156,1,4.0,2.4627853999845684,True,2,A,2023-08-28_09h25.29.277,exp3,2022.2.2,
,,,,,,,,,,,,,,,,,,,,,,,86,1158,Valid,noise,0,2,2086.050100099994,1,4.0,2.129040200030431,True,2,A,2023-08-28_09h25.29.277,exp3,2022.2.2,
,,,,,,,,,,,,,,,,,,,,,,,87,2274,Invalid,noise,0,2,2090.0509975999594,1,1.0,4.0130188999464735,True,2,A,2023-08-28_09h25.29.277,exp3,2022.2.2,
,,,,,,,,,,,,,,,,,,,,,,,88,2274,Valid,noise,0,2,2094.6261420999654,1,4.0,3.446018800023012,True,2,A,2023-08-28_09h25.29.277,exp3,2022.2.2,
,,,,,,,,,,,,,,,,,,,,,,,89,557,Invalid,signal,0,1,2099.314004600048,1,4.0,3.1297035000752658,True,2,A,2023-08-28_09h25.29.277,exp3,2022.2.2,
,,,,,,,,,,,,,,,,,,,,,,,90,2274,Valid,signal,0,2,2102.9300616000546,0,3.0,2.4273291999707,True,2,A,2023-08-28_09h25.29.277,exp3,2022.2.2,
,,,,,,,,,,,,,,,,,,,,,,,91,1716,Valid,noise,0,2,2106.51483,1,4.0,3.3789998000720516,True,2,A,2023-08-28_09h25.29.277,exp3,2022.2.2,
,,,,,,,,,,,,,,,,,,,,,,,92,-557,Valid,noise,0,1,2111.3615742999827,0,4.0,3.062166600022465,True,2,A,2023-08-28_09h25.29.277,exp3,2022.2.2,
,,,,,,,,,,,,,,,,,,,,,,,93,1158,Valid,noise,0,2,2114.6587240999797,1,4.0,2.1970263000112027,True,2,A,2023-08-28_09h25.29.277,exp3,2022.2.2,
,,,,,,,,,,,,,,,,,,,,,,,94,-557,Valid,signal,0,1,2117.9859319999814,1,4.0,2.4947323999367654,True,2,A,2023-08-28_09h25.29.277,exp3,2022.2.2,
,,,,,,,,,,,,,,,,,,,,,,,95,-1158,Invalid,noise,0,2,2121.842418299988,1,4.0,2.7641299000242725,True,2,A,2023-08-28_09h25.29.277,exp3,2022.2.2,
,,,,,,,,,,,,,,,,,,,,,,,96,1158,Valid,signal,0,1,2125.21832720004,1,4.0,2.2771129000466317,True,2,A,2023-08-28_09h25.29.277,exp3,2022.2.2,
,,,,,,,,,,,,,,,,,,,,,,,97,-1158,Valid,noise,0,2,2128.6263783000177,1,4.0,2.462654799921438,True,2,A,2023-08-28_09h25.29.277,exp3,2022.2.2,
,,,,,,,,,,,,,,,,,,,,,,,98,2274,Valid,signal,0,2,2132.1136307000415,0,4.0,2.5290268999524415,True,2,A,2023-08-28_09h25.29.277,exp3,2022.2.2,
,,,,,,,,,,,,,,,,,,,,,,,99,-2274,Valid,signal,0,1,2135.5536465999903,1,3.0,2.4959417999489233,True,2,A,2023-08-28_09h25.29.277,exp3,2022.2.2,
,,,,,,,,,,,,,,,,,,,,,,,100,557,Valid,noise,0,2,2139.010696699959,1,2.0,2.512244899990037,True,2,A,2023-08-28_09h25.29.277,exp3,2022.2.2,
,,,,,,,,,,,,,,,,,,,,,,,101,-557,Valid,noise,0,2,2142.6256507999497,1,3.0,2.7481471999781206,True,2,A,2023-08-28_09h25.29.277,exp3,2022.2.2,
,,,,,,,,,,,,,,,,,,,,,,,102,-557,Valid,signal,0,1,2146.1465845999774,1,3.0,2.4933878000592813,True,2,A,2023-08-28_09h25.29.277,exp3,2022.2.2,
,,,,,,,,,,,,,,,,,,,,,,,103,557,Invalid,noise,0,1,2150.194990799995,0,4.0,2.829475500038825,True,2,A,2023-08-28_09h25.29.277,exp3,2022.2.2,
,,,,,,,,,,,,,,,,,,,,,,,104,1158,Valid,signal,0,1,2153.5705477000447,1,4.0,2.2797068000072613,True,2,A,2023-08-28_09h25.29.277,exp3,2022.2.2,
,,,,,,,,,,,,,,,,,,,,,,,105,-557,Valid,signal,0,1,2156.7709238999523,1,4.0,2.0953210999723524,True,2,A,2023-08-28_09h25.29.277,exp3,2022.2.2,
,,,,,,,,,,,,,,,,,,,,,,,106,-1716,Valid,signal,0,1,2159.7775774999755,1,4.0,2.0119791999459267,True,2,A,2023-08-28_09h25.29.277,exp3,2022.2.2,
,,,,,,,,,,,,,,,,,,,,,,,107,2274,Valid,signal,0,1,2163.6977461000206,1,4.0,3.0961249999236315,True,2,A,2023-08-28_09h25.29.277,exp3,2022.2.2,
,,,,,,,,,,,,,,,,,,,,,,,108,2274,Valid,noise,0,1,2167.4420518999686,0,4.0,2.5120759999845177,True,2,A,2023-08-28_09h25.29.277,exp3,2022.2.2,
,,,,,,,,,,,,,,,,,,,,,,,109,-1158,Valid,noise,0,2,2170.689550900017,1,4.0,2.195484400028363,True,2,A,2023-08-28_09h25.29.277,exp3,2022.2.2,
,,,,,,,,,,,,,,,,,,,,,,,110,-2274,Valid,noise,0,2,2174.2415805000346,1,4.0,2.7127979999640957,True,2,A,2023-08-28_09h25.29.277,exp3,2022.2.2,
,,,,,,,,,,,,,,,,,,,,,,,111,2274,Valid,noise,0,2,2178.9936353999656,1,4.0,3.7618868000572547,True,2,A,2023-08-28_09h25.29.277,exp3,2022.2.2,
,,,,,,,,,,,,,,,,,,,,,,,112,2274,Valid,noise,0,2,2182.8978416000027,1,4.0,2.76329709996935,True,2,A,2023-08-28_09h25.29.277,exp3,2022.2.2,
,,,,,,,,,,,,,,,,,,,,,,,113,-1716,Valid,noise,0,2,2186.3058170999866,1,2.0,3.195365499937907,True,2,A,2023-08-28_09h25.29.277,exp3,2022.2.2,
,,,,,,,,,,,,,,,,,,,,,,,114,-2274,Valid,signal,0,2,2190.321778499987,0,2.0,2.312184300040826,True,2,A,2023-08-28_09h25.29.277,exp3,2022.2.2,
,,,,,,,,,,,,,,,,,,,,,,,115,1716,Valid,signal,0,2,2193.5546195999486,0,2.0,2.5626114999176934,True,2,A,2023-08-28_09h25.29.277,exp3,2022.2.2,
,,,,,,,,,,,,,,,,,,,,,,,116,557,Valid,signal,0,2,2197.1706044999883,0,2.0,2.3455574000254273,True,2,A,2023-08-28_09h25.29.277,exp3,2022.2.2,
,,,,,,,,,,,,,,,,,,,,,,,117,1158,Invalid,noise,0,2,2200.4829036999727,1,2.0,2.596118799992837,True,2,A,2023-08-28_09h25.29.277,exp3,2022.2.2,
,,,,,,,,,,,,,,,,,,,,,,,118,1158,Valid,noise,0,2,2204.114857299952,1,2.0,2.3963353999424726,True,2,A,2023-08-28_09h25.29.277,exp3,2022.2.2,
,,,,,,,,,,,,,,,,,,,,,,,119,-557,Valid,signal,0,2,2207.681848200038,0,3.0,2.679007500060834,True,2,A,2023-08-28_09h25.29.277,exp3,2022.2.2,
,,,,,,,,,,,,,,,,,,,,,,,120,-1158,Valid,signal,0,1,2211.106815999956,1,4.0,2.712561900028959,True,2,A,2023-08-28_09h25.29.277,exp3,2022.2.2,
,,,,,,,,,,,,,,,,,,,,,,,121,557,Valid,signal,0,2,2215.138292300049,0,4.0,2.4299803999019787,True,2,A,2023-08-28_09h25.29.277,exp3,2022.2.2,
,,,,,,,,,,,,,,,,,,,,,,,122,1716,Valid,signal,0,1,2218.5146704999497,1,2.0,2.7958020999794826,True,2,A,2023-08-28_09h25.29.277,exp3,2022.2.2,
,,,,,,,,,,,,,,,,,,,,,,,123,-2274,Valid,signal,0,2,2222.337921999977,0,2.0,2.579053100082092,True,2,A,2023-08-28_09h25.29.277,exp3,2022.2.2,
,,,,,,,,,,,,,,,,,,,,,,,124,557,Valid,signal,0,2,2226.082047899952,0,3.0,2.7802202000748366,True,2,A,2023-08-28_09h25.29.277,exp3,2022.2.2,
,,,,,,,,,,,,,,,,,,,,,,,125,-1158,Valid,noise,0,2,2229.490282300045,1,3.0,2.1616247999481857,True,2,A,2023-08-28_09h25.29.277,exp3,2022.2.2,
,,,,,,,,,,,,,,,,,,,,,,,126,-557,Valid,noise,0,1,2232.946069400059,0,3.0,2.546250900020823,True,2,A,2023-08-28_09h25.29.277,exp3,2022.2.2,
,,,,,,,,,,,,,,,,,,,,,,,127,-2274,Valid,signal,0,2,2236.3057471000357,0,3.0,2.162224799976684,True,2,A,2023-08-28_09h25.29.277,exp3,2022.2.2,
,,,,,,,,,,,,,,,,,,,,,,,128,557,Invalid,noise,0,2,2239.5701292000012,1,3.0,2.395648999954574,True,2,A,2023-08-28_09h25.29.277,exp3,2022.2.2,
,,,,,,,,,,,,,,,,,,,,,,,129,2274,Valid,signal,0,2,2242.7379956999794,0,3.0,2.045889899949543,True,2,A,2023-08-28_09h25.29.277,exp3,2022.2.2,
,,,,,,,,,,,,,,,,,,,,,,,130,557,Valid,noise,0,2,2247.7144531999948,1,3.0,4.196566400001757,True,2,A,2023-08-28_09h25.29.277,exp3,2022.2.2,
,,,,,,,,,,,,,,,,,,,,,,,131,-1716,Valid,noise,0,2,2250.9775753000285,1,3.0,2.162842799909413,True,2,A,2023-08-28_09h25.29.277,exp3,2022.2.2,
,,,,,,,,,,,,,,,,,,,,,,,132,-2274,Invalid,noise,0,2,2254.1296038000146,1,3.0,2.095310700009577,True,2,A,2023-08-28_09h25.29.277,exp3,2022.2.2,
,,,,,,,,,,,,,,,,,,,,,,,133,557,Valid,signal,0,2,2257.2657555000624,0,3.0,2.129739800002426,True,2,A,2023-08-28_09h25.29.277,exp3,2022.2.2,
,,,,,,,,,,,,,,,,,,,,,,,134,-1716,Valid,signal,0,2,2260.193664600025,0,3.0,1.812512999982573,True,2,A,2023-08-28_09h25.29.277,exp3,2022.2.2,
,,,,,,,,,,,,,,,,,,,,,,,135,557,Valid,signal,0,2,2263.2026812999975,0,3.0,2.579100299975835,True,2,A,2023-08-28_09h25.29.277,exp3,2022.2.2,
,,,,,,,,,,,,,,,,,,,,,,,136,-1158,Valid,noise,0,2,2266.882202900015,1,2.0,2.412494800053537,True,2,A,2023-08-28_09h25.29.277,exp3,2022.2.2,
,,,,,,,,,,,,,,,,,,,,,,,137,1716,Valid,noise,0,2,2272.4345827000216,1,2.0,4.580214699963108,True,2,A,2023-08-28_09h25.29.277,exp3,2022.2.2,
,,,,,,,,,,,,,,,,,,,,,,,138,-1158,Valid,signal,0,1,2275.9386261999607,1,3.0,2.562480500084348,True,2,A,2023-08-28_09h25.29.277,exp3,2022.2.2,
,,,,,,,,,,,,,,,,,,,,,,,139,2274,Valid,noise,0,2,2279.474847399979,1,3.0,2.1791011999594048,True,2,A,2023-08-28_09h25.29.277,exp3,2022.2.2,
,,,,,,,,,,,,,,,,,,,,,,,140,1716,Invalid,signal,0,2,2282.434809300001,0,1.0,3.012493500020355,True,2,A,2023-08-28_09h25.29.277,exp3,2022.2.2,
,,,,,,,,,,,,,,,,,,,,,,,141,1716,Valid,signal,0,1,2286.6897887999658,1,2.0,2.6125412000110373,True,2,A,2023-08-28_09h25.29.277,exp3,2022.2.2,
,,,,,,,,,,,,,,,,,,,,,,,142,-1158,Valid,signal,0,1,2290.0655573999975,1,4.0,3.0958116999827325,True,2,A,2023-08-28_09h25.29.277,exp3,2022.2.2,
,,,,,,,,,,,,,,,,,,,,,,,143,1158,Invalid,signal,0,1,2295.954092000029,1,4.0,3.91326060006395,True,2,A,2023-08-28_09h25.29.277,exp3,2022.2.2,
,,,,,,,,,,,,,,,,,,,,,,,144,-557,Invalid,signal,0,2,2300.162699299981,0,4.0,3.0961602000752464,True,2,A,2023-08-28_09h25.29.277,exp3,2022.2.2,
,,,,,,,,,,,,,,,,,,,,,,,145,1158,Valid,noise,0,2,2305.137488699984,1,4.0,4.296668100054376,True,2,A,2023-08-28_09h25.29.277,exp3,2022.2.2,
,,,,,,,,,,,,,,,,,,,,,,,146,1716,Valid,signal,0,1,2308.7540354999946,1,4.0,2.2625300000654534,True,2,A,2023-08-28_09h25.29.277,exp3,2022.2.2,
,,,,,,,,,,,,,,,,,,,,,,,147,-1158,Valid,signal,0,1,2311.84224300005,1,4.0,2.096142200054601,True,2,A,2023-08-28_09h25.29.277,exp3,2022.2.2,
,,,,,,,,,,,,,,,,,,,,,,,148,1158,Valid,signal,0,1,2315.026376200025,1,4.0,2.179183500004001,True,2,A,2023-08-28_09h25.29.277,exp3,2022.2.2,
,,,,,,,,,,,,,,,,,,,,,,,149,-1158,Valid,noise,0,2,2318.4815481000114,1,4.0,2.4283161000348628,True,2,A,2023-08-28_09h25.29.277,exp3,2022.2.2,
,,,,,,,,,,,,,,,,,,,,,,,150,-1158,Valid,signal,0,1,2321.505845000036,1,4.0,2.362776800058782,True,2,A,2023-08-28_09h25.29.277,exp3,2022.2.2,
,,,,,,,,,,,,,,,,,,,,,,,151,-1716,Valid,noise,0,2,2325.3623308000388,1,2.0,3.1295149999205023,True,2,A,2023-08-28_09h25.29.277,exp3,2022.2.2,
,,,,,,,,,,,,,,,,,,,,,,,152,-1716,Invalid,signal,0,1,2329.378600200056,1,4.0,2.412531099980697,True,2,A,2023-08-28_09h25.29.277,exp3,2022.2.2,
,,,,,,,,,,,,,,,,,,,,,,,153,1716,Invalid,noise,0,1,2332.834636899992,0,4.0,2.3800482000224292,True,2,A,2023-08-28_09h25.29.277,exp3,2022.2.2,
,,,,,,,,,,,,,,,,,,,,,,,154,1158,Invalid,signal,0,1,2336.0347082000226,1,4.0,2.3620414999313653,True,2,A,2023-08-28_09h25.29.277,exp3,2022.2.2,
,,,,,,,,,,,,,,,,,,,,,,,155,-1716,Valid,noise,0,2,2339.5218524000375,1,4.0,2.4120969000505283,True,2,A,2023-08-28_09h25.29.277,exp3,2022.2.2,
,,,,,,,,,,,,,,,,,,,,,,,156,1716,Valid,noise,0,2,2342.945519699948,1,4.0,2.4287232999922708,True,2,A,2023-08-28_09h25.29.277,exp3,2022.2.2,
,,,,,,,,,,,,,,,,,,,,,,,157,1716,Invalid,signal,0,1,2346.1294637999963,1,4.0,2.178690699976869,True,2,A,2023-08-28_09h25.29.277,exp3,2022.2.2,
,,,,,,,,,,,,,,,,,,,,,,,158,-557,Valid,noise,0,1,2351.522866299958,0,4.0,4.39628960005939,True,2,A,2023-08-28_09h25.29.277,exp3,2022.2.2,
,,,,,,,,,,,,,,,,,,,,,,,159,-2274,Valid,noise,0,2,2354.977488399949,1,1.0,2.6790150000015274,True,2,A,2023-08-28_09h25.29.277,exp3,2022.2.2,
,,,,,,,,,,,,,,,,,,,,,,,160,-2274,Valid,signal,0,1,2358.546132300049,1,2.0,2.7636244000168517,True,2,A,2023-08-28_09h25.29.277,exp3,2022.2.2,
,,,,,,,,,,,,,,,,,,,,,,,161,1158,Valid,noise,0,2,2362.3067219000077,1,4.0,3.2119274000870064,True,2,A,2023-08-28_09h25.29.277,exp3,2022.2.2,
,,,,,,,,,,,,,,,,,,,,,,,162,-557,Valid,signal,0,1,2367.79437160003,1,2.0,3.913005999987945,True,2,A,2023-08-28_09h25.29.277,exp3,2022.2.2,
,,,,,,,,,,,,,,,,,,,,,,,163,557,Valid,signal,0,2,2372.2423099000007,0,1.0,3.1952263000421226,True,2,A,2023-08-28_09h25.29.277,exp3,2022.2.2,
,,,,,,,,,,,,,,,,,,,,,,,164,-557,Valid,noise,0,2,2375.905587999965,1,1.0,2.878976500011049,True,2,A,2023-08-28_09h25.29.277,exp3,2022.2.2,
,,,,,,,,,,,,,,,,,,,,,,,165,557,Valid,signal,0,2,2379.585932399961,0,2.0,2.545629399945028,True,2,A,2023-08-28_09h25.29.277,exp3,2022.2.2,
,,,,,,,,,,,,,,,,,,,,,,,166,-2274,Valid,noise,0,2,2383.073836900061,1,3.0,2.3630233999574557,True,2,A,2023-08-28_09h25.29.277,exp3,2022.2.2,
,,,,,,,,,,,,,,,,,,,,,,,167,-1158,Valid,signal,0,1,2386.5939308999805,1,4.0,3.1465528000844643,True,2,A,2023-08-28_09h25.29.277,exp3,2022.2.2,
,,,,,,,,,,,,,,,,,,,,,,,168,1158,Valid,noise,0,2,2390.4335195999593,1,4.0,2.2964258999563754,True,2,A,2023-08-28_09h25.29.277,exp3,2022.2.2,
,,,,,,,,,,,,,,,,,,,,,,,169,1158,Valid,noise,0,2,2393.7136969000567,1,3.0,2.2625012999633327,True,2,A,2023-08-28_09h25.29.277,exp3,2022.2.2,
,,,,,,,,,,,,,,,,,,,,,,,170,-1158,Valid,signal,0,1,2397.0256143000443,1,3.0,2.113390799961053,True,2,A,2023-08-28_09h25.29.277,exp3,2022.2.2,
,,,,,,,,,,,,,,,,,,,,,,,171,2274,Invalid,signal,0,1,2400.641577600036,1,3.0,2.628281299956143,True,2,A,2023-08-28_09h25.29.277,exp3,2022.2.2,
,,,,,,,,,,,,,,,,,,,,,,,172,-1716,Valid,noise,0,2,2404.0334581000498,1,3.0,2.379468400031328,True,2,A,2023-08-28_09h25.29.277,exp3,2022.2.2,
,,,,,,,,,,,,,,,,,,,,,,,173,557,Valid,noise,0,2,2407.1061991000315,1,3.0,2.0958611000096425,True,2,A,2023-08-28_09h25.29.277,exp3,2022.2.2,
,,,,,,,,,,,,,,,,,,,,,,,174,-1158,Valid,noise,0,2,2410.530216800049,1,3.0,2.3454166000010446,True,2,A,2023-08-28_09h25.29.277,exp3,2022.2.2,
,,,,,,,,,,,,,,,,,,,,,,,175,1716,Valid,noise,0,2,2413.601452199975,1,4.0,2.2799237999133766,True,2,A,2023-08-28_09h25.29.277,exp3,2022.2.2,
,,,,,,,,,,,,,,,,,,,,,,,176,-1716,Valid,noise,0,2,2417.026889199973,1,4.0,2.1797066000290215,True,2,A,2023-08-28_09h25.29.277,exp3,2022.2.2,
,,,,,,,,,,,,,,,,,,,,,,,2,2274,Valid,signal,0,2,2582.353782900027,0,2.0,4.597255400032736,True,2,A,2023-08-28_09h25.29.277,exp3,2022.2.2,
,,,,,,,,,,,,,,,,,,,,,,,4,-2274,Valid,noise,0,2,2587.2494557000464,1,2.0,2.379417399992235,True,2,A,2023-08-28_09h25.29.277,exp3,2022.2.2,
,,,,,,,,,,,,,,,,,,,,,,,6,1158,Valid,noise,0,2,2590.433584399987,1,2.0,2.1290463000768796,True,2,A,2023-08-28_09h25.29.277,exp3,2022.2.2,
,,,,,,,,,,,,,,,,,,,,,,,8,557,Valid,signal,0,2,2593.5546340000583,0,3.0,2.4127729000756517,True,2,A,2023-08-28_09h25.29.277,exp3,2022.2.2,
,,,,,,,,,,,,,,,,,,,,,,,10,-557,Valid,noise,0,2,2596.99455459998,1,2.0,2.562690900056623,True,2,A,2023-08-28_09h25.29.277,exp3,2022.2.2,
,,,,,,,,,,,,,,,,,,,,,,,12,557,Valid,signal,0,2,2600.4660901000025,0,2.0,2.062517200014554,True,2,A,2023-08-28_09h25.29.277,exp3,2022.2.2,
,,,,,,,,,,,,,,,,,,,,,,,14,-1158,Valid,signal,0,1,2603.6014148000395,1,4.0,2.5295300000580028,True,2,A,2023-08-28_09h25.29.277,exp3,2022.2.2,
,,,,,,,,,,,,,,,,,,,,,,,16,-1716,Valid,noise,0,2,2607.217331300024,1,4.0,2.2292393000097945,True,2,A,2023-08-28_09h25.29.277,exp3,2022.2.2,
,,,,,,,,,,,,,,,,,,,,,,,18,1158,Valid,signal,0,2,2610.4182148999535,0,3.0,2.546045699971728,True,2,A,2023-08-28_09h25.29.277,exp3,2022.2.2,
,,,,,,,,,,,,,,,,,,,,,,,20,-1158,Valid,signal,0,1,2613.9534348000307,1,4.0,2.295947799924761,True,2,A,2023-08-28_09h25.29.277,exp3,2022.2.2,
,,,,,,,,,,,,,,,,,,,,,,,22,-1158,Valid,signal,0,1,2617.282229400007,1,4.0,2.229574600001797,True,2,A,2023-08-28_09h25.29.277,exp3,2022.2.2,
,,,,,,,,,,,,,,,,,,,,,,,24,557,Valid,noise,0,2,2622.2266283000354,1,3.0,4.129448699997738,True,2,A,2023-08-28_09h25.29.277,exp3,2022.2.2,
,,,,,,,,,,,,,,,,,,,,,,,26,-1716,Valid,noise,0,2,2625.7936024999944,1,3.0,2.3129673999501392,True,2,A,2023-08-28_09h25.29.277,exp3,2022.2.2,
,,,,,,,,,,,,,,,,,,,,,,,28,557,Valid,noise,0,2,2629.0587120000273,1,3.0,2.4292802999261767,True,2,A,2023-08-28_09h25.29.277,exp3,2022.2.2,
,,,,,,,,,,,,,,,,,,,,,,,30,1716,Valid,signal,0,2,2632.9624513000017,0,3.0,2.7625942999729887,True,2,A,2023-08-28_09h25.29.277,exp3,2022.2.2,
,,,,,,,,,,,,,,,,,,,,,,,32,1716,Valid,signal,0,1,2636.4654510000255,1,3.0,2.5794941999483854,True,2,A,2023-08-28_09h25.29.277,exp3,2022.2.2,
,,,,,,,,,,,,,,,,,,,,,,,34,-1158,Valid,signal,0,1,2639.6341363999527,1,3.0,2.3628346999175847,True,2,A,2023-08-28_09h25.29.277,exp3,2022.2.2,
,,,,,,,,,,,,,,,,,,,,,,,36,1158,Valid,noise,0,2,2643.249773800024,1,3.0,2.3291552000446245,True,2,A,2023-08-28_09h25.29.277,exp3,2022.2.2,
,,,,,,,,,,,,,,,,,,,,,,,38,-1158,Valid,noise,0,2,2646.5781955999555,1,3.0,2.279731999966316,True,2,A,2023-08-28_09h25.29.277,exp3,2022.2.2,
,,,,,,,,,,,,,,,,,,,,,,,40,-2274,Invalid,noise,0,2,2649.938460699981,1,3.0,2.3127304000081494,True,2,A,2023-08-28_09h25.29.277,exp3,2022.2.2,
,,,,,,,,,,,,,,,,,,,,,,,42,-557,Valid,signal,0,1,2654.146143399994,1,3.0,3.2797173999715596,True,2,A,2023-08-28_09h25.29.277,exp3,2022.2.2,
,,,,,,,,,,,,,,,,,,,,,,,44,2274,Valid,signal,0,2,2657.457942000008,0,3.0,2.229023899999447,True,2,A,2023-08-28_09h25.29.277,exp3,2022.2.2,
,,,,,,,,,,,,,,,,,,,,,,,46,1158,Valid,noise,0,2,2660.482686799951,1,4.0,2.412859599920921,True,2,A,2023-08-28_09h25.29.277,exp3,2022.2.2,
,,,,,,,,,,,,,,,,,,,,,,,48,557,Invalid,noise,0,2,2664.562044200022,1,4.0,2.7462825999828056,True,2,A,2023-08-28_09h25.29.277,exp3,2022.2.2,
,,,,,,,,,,,,,,,,,,,,,,,50,557,Valid,noise,0,2,2667.6336941999616,1,4.0,2.0795462999958545,True,2,A,2023-08-28_09h25.29.277,exp3,2022.2.2,
,,,,,,,,,,,,,,,,,,,,,,,52,-1158,Valid,noise,0,2,2670.8019160999684,1,4.0,2.1455480000004172,True,2,A,2023-08-28_09h25.29.277,exp3,2022.2.2,
,,,,,,,,,,,,,,,,,,,,,,,54,2274,Valid,noise,0,2,2675.6662418999476,1,3.0,3.9801102000055835,True,2,A,2023-08-28_09h25.29.277,exp3,2022.2.2,
,,,,,,,,,,,,,,,,,,,,,,,56,1716,Invalid,signal,0,2,2679.313885899959,0,3.0,2.6128469000104815,True,2,A,2023-08-28_09h25.29.277,exp3,2022.2.2,
,,,,,,,,,,,,,,,,,,,,,,,58,-1716,Valid,signal,0,2,2682.6426035000477,0,3.0,2.246333900024183,True,2,A,2023-08-28_09h25.29.277,exp3,2022.2.2,
,,,,,,,,,,,,,,,,,,,,,,,60,-1716,Valid,signal,0,1,2685.8898540999508,1,3.0,2.3120504999533296,True,2,A,2023-08-28_09h25.29.277,exp3,2022.2.2,
,,,,,,,,,,,,,,,,,,,,,,,62,-557,Invalid,signal,0,1,2689.4104503999697,1,3.0,2.362876800005324,True,2,A,2023-08-28_09h25.29.277,exp3,2022.2.2,
,,,,,,,,,,,,,,,,,,,,,,,64,-557,Valid,noise,0,2,2692.705491699977,1,3.0,2.328852500068024,True,2,A,2023-08-28_09h25.29.277,exp3,2022.2.2,
,,,,,,,,,,,,,,,,,,,,,,,66,-2274,Valid,signal,0,2,2695.857731200056,0,2.0,2.8464840999804437,True,2,A,2023-08-28_09h25.29.277,exp3,2022.2.2,
,,,,,,,,,,,,,,,,,,,,,,,68,-2274,Valid,signal,0,2,2699.6176136999857,0,2.0,2.0953347999602556,True,2,A,2023-08-28_09h25.29.277,exp3,2022.2.2,
,,,,,,,,,,,,,,,,,,,,,,,70,-1716,Invalid,noise,0,2,2702.8175487000262,1,2.0,2.1627464999910444,True,2,A,2023-08-28_09h25.29.277,exp3,2022.2.2,
,,,,,,,,,,,,,,,,,,,,,,,72,-1158,Valid,noise,0,2,2706.097674299963,1,3.0,2.7962711999425665,True,2,A,2023-08-28_09h25.29.277,exp3,2022.2.2,
,,,,,,,,,,,,,,,,,,,,,,,74,-557,Valid,noise,0,2,2709.698690999998,1,2.0,2.3629940999671817,True,2,A,2023-08-28_09h25.29.277,exp3,2022.2.2,
,,,,,,,,,,,,,,,,,,,,,,,76,-1158,Valid,noise,0,2,2713.1052341000177,1,2.0,2.212502400041558,True,2,A,2023-08-28_09h25.29.277,exp3,2022.2.2,
,,,,,,,,,,,,,,,,,,,,,,,78,1716,Valid,noise,0,2,2716.3057992999675,1,2.0,2.0955837999936193,True,2,A,2023-08-28_09h25.29.277,exp3,2022.2.2,
,,,,,,,,,,,,,,,,,,,,,,,80,1716,Valid,noise,0,2,2719.4093617000617,1,2.0,2.062601000070572,True,2,A,2023-08-28_09h25.29.277,exp3,2022.2.2,
,,,,,,,,,,,,,,,,,,,,,,,82,-557,Valid,noise,0,2,2722.802449199953,1,2.0,2.8298277999274433,True,2,A,2023-08-28_09h25.29.277,exp3,2022.2.2,
,,,,,,,,,,,,,,,,,,,,,,,84,2274,Valid,noise,0,2,2726.4016988000367,1,2.0,2.2621721999021247,True,2,A,2023-08-28_09h25.29.277,exp3,2022.2.2,
,,,,,,,,,,,,,,,,,,,,,,,86,2274,Valid,signal,0,2,2729.553949599969,0,2.0,2.0792213000822812,True,2,A,2023-08-28_09h25.29.277,exp3,2022.2.2,
,,,,,,,,,,,,,,,,,,,,,,,88,-2274,Valid,signal,0,2,2732.9133035000414,0,3.0,2.2963416998973116,True,2,A,2023-08-28_09h25.29.277,exp3,2022.2.2,
,,,,,,,,,,,,,,,,,,,,,,,90,2274,Invalid,noise,0,2,2736.1943545000395,1,4.0,2.5625616998877376,True,2,A,2023-08-28_09h25.29.277,exp3,2022.2.2,
,,,,,,,,,,,,,,,,,,,,,,,92,-1716,Valid,signal,0,1,2739.5862767000217,1,4.0,2.1282474000472575,True,2,A,2023-08-28_09h25.29.277,exp3,2022.2.2,
,,,,,,,,,,,,,,,,,,,,,,,94,2274,Invalid,signal,0,2,2742.8019380000187,0,4.0,2.2287241000449285,True,2,A,2023-08-28_09h25.29.277,exp3,2022.2.2,
,,,,,,,,,,,,,,,,,,,,,,,96,-2274,Valid,signal,0,1,2746.0341647999594,1,4.0,2.179344900068827,True,2,A,2023-08-28_09h25.29.277,exp3,2022.2.2,
,,,,,,,,,,,,,,,,,,,,,,,98,557,Valid,signal,0,2,2749.0900135999545,0,4.0,2.0795188000192866,True,2,A,2023-08-28_09h25.29.277,exp3,2022.2.2,
,,,,,,,,,,,,,,,,,,,,,,,100,1158,Valid,noise,0,2,2754.561515599955,1,4.0,4.562489900039509,True,2,A,2023-08-28_09h25.29.277,exp3,2022.2.2,
,,,,,,,,,,,,,,,,,,,,,,,102,1716,Valid,signal,0,1,2757.841342999949,1,4.0,2.5626617000671104,True,2,A,2023-08-28_09h25.29.277,exp3,2022.2.2,
,,,,,,,,,,,,,,,,,,,,,,,104,1158,Invalid,signal,0,1,2761.4424396000104,1,4.0,2.1628030000720173,True,2,A,2023-08-28_09h25.29.277,exp3,2022.2.2,
,,,,,,,,,,,,,,,,,,,,,,,106,1158,Valid,signal,0,1,2764.52971849998,1,4.0,2.1958758999826387,True,2,A,2023-08-28_09h25.29.277,exp3,2022.2.2,
,,,,,,,,,,,,,,,,,,,,,,,108,-1716,Valid,signal,0,1,2767.65038789995,1,4.0,2.229395200032741,True,2,A,2023-08-28_09h25.29.277,exp3,2022.2.2,
,,,,,,,,,,,,,,,,,,,,,,,110,1716,Valid,signal,0,1,2770.8496737000532,1,4.0,2.0292496000183746,True,2,A,2023-08-28_09h25.29.277,exp3,2022.2.2,
,,,,,,,,,,,,,,,,,,,,,,,112,-557,Invalid,noise,0,2,2774.0341498999624,1,4.0,2.212549400050193,True,2,A,2023-08-28_09h25.29.277,exp3,2022.2.2,
,,,,,,,,,,,,,,,,,,,,,,,114,557,Valid,noise,0,2,2777.138310899958,1,3.0,2.3629808999830857,True,2,A,2023-08-28_09h25.29.277,exp3,2022.2.2,
,,,,,,,,,,,,,,,,,,,,,,,116,-2274,Valid,signal,0,1,2780.737281000009,1,3.0,2.2790252999402583,True,2,A,2023-08-28_09h25.29.277,exp3,2022.2.2,
,,,,,,,,,,,,,,,,,,,,,,,118,-1716,Valid,signal,0,1,2783.7616870000493,1,3.0,2.2792987000430003,True,2,A,2023-08-28_09h25.29.277,exp3,2022.2.2,
,,,,,,,,,,,,,,,,,,,,,,,120,1716,Valid,noise,0,2,2787.1532557000173,1,3.0,2.4297915000934154,True,2,A,2023-08-28_09h25.29.277,exp3,2022.2.2,
,,,,,,,,,,,,,,,,,,,,,,,122,-1716,Valid,signal,0,2,2791.15346349997,0,3.0,2.9293886999366805,True,2,A,2023-08-28_09h25.29.277,exp3,2022.2.2,
,,,,,,,,,,,,,,,,,,,,,,,124,-1158,Valid,signal,0,1,2794.4172383999685,1,3.0,2.179463400039822,True,2,A,2023-08-28_09h25.29.277,exp3,2022.2.2,
,,,,,,,,,,,,,,,,,,,,,,,126,2274,Valid,signal,0,2,2797.6986633000197,0,2.0,2.295564500032924,True,2,A,2023-08-28_09h25.29.277,exp3,2022.2.2,
,,,,,,,,,,,,,,,,,,,,,,,128,-2274,Valid,noise,0,2,2801.1066315999487,1,3.0,2.2121973000466824,True,2,A,2023-08-28_09h25.29.277,exp3,2022.2.2,
,,,,,,,,,,,,,,,,,,,,,,,130,-1158,Valid,signal,0,1,2804.2251921000425,1,3.0,2.113476400030777,True,2,A,2023-08-28_09h25.29.277,exp3,2022.2.2,
,,,,,,,,,,,,,,,,,,,,,,,132,-1716,Valid,noise,0,2,2807.393257800024,1,2.0,2.5121718000154942,True,2,A,2023-08-28_09h25.29.277,exp3,2022.2.2,
