trials.label,trials.startVal,trials.maxVal,trials.minVal,trials.startValSd,trials.pthreshold,trials.beta,trials.delta,trials.gamma,trials.grain,trials.stepSize,trials.range,trials.cue,trials.thisIndex,trials.thisRepN,trials.thisN,trials.direction,trials.stepType,trials.intensity,signalOpacity,stair_response_correct,level,trials.response,stair_eye_ok,nTrial,position,validity,Stimulus,orientation,response_key,response_rt,response_correct,confidence,confidence_rt,eye_ok,trial_rep,participant,session,date,expName,psychopyVersion,
low_opac_i,0.4,1,0.01,3,0.82,3.5,0.01,0,0.01,4,5,Invalid,2,1,0,start,lin,0.4,0,1,0.4,1,True,,,,,,,,,,,,,29,A,2023-11-06_10h43.49.336,exp3,2022.2.2,
high_opac_v,0.01,1,0.01,3,0.82,3.5,0.01,0,0.01,4,5,Valid,1,1,1,start,lin,0.01,0,0,0.01,0,True,,,,,,,,,,,,,29,A,2023-11-06_10h43.49.336,exp3,2022.2.2,
low_opac_v,0.4,1,0.01,3,0.82,3.5,0.01,0,0.01,4,5,Valid,0,1,2,start,lin,0.4,0,1,0.4,1,True,,,,,,,,,,,,,29,A,2023-11-06_10h43.49.336,exp3,2022.2.2,
high_opac_v,0.01,1,0.01,3,0.82,3.5,0.01,0,0.01,4,5,Valid,1,2,3,start,lin,1,1,1,1,1,True,,,,,,,,,,,,,29,A,2023-11-06_10h43.49.336,exp3,2022.2.2,
low_opac_i,0.4,1,0.01,3,0.82,3.5,0.01,0,0.01,4,5,Invalid,2,2,4,start,lin,0.01,0,1,0.01,1,True,,,,,,,,,,,,,29,A,2023-11-06_10h43.49.336,exp3,2022.2.2,
low_opac_v,0.4,1,0.01,3,0.82,3.5,0.01,0,0.01,4,5,Valid,0,2,5,start,lin,0.01,0.01,1,0.01,1,True,,,,,,,,,,,,,29,A,2023-11-06_10h43.49.336,exp3,2022.2.2,
high_opac_v,0.01,1,0.01,3,0.82,3.5,0.01,0,0.01,4,5,Valid,1,3,6,start,lin,0.6092784667527542,0.6092784667527542,1,0.6092784667527542,1,True,,,,,,,,,,,,,29,A,2023-11-06_10h43.49.336,exp3,2022.2.2,
low_opac_i,0.4,1,0.01,3,0.82,3.5,0.01,0,0.01,4,5,Invalid,2,3,7,start,lin,0.01,0,1,0.01,1,True,,,,,,,,,,,,,29,A,2023-11-06_10h43.49.336,exp3,2022.2.2,
low_opac_v,0.4,1,0.01,3,0.82,3.5,0.01,0,0.01,4,5,Valid,0,3,8,start,lin,0.01,0,1,0.01,1,True,,,,,,,,,,,,,29,A,2023-11-06_10h43.49.336,exp3,2022.2.2,
high_opac_v,0.01,1,0.01,3,0.82,3.5,0.01,0,0.01,4,5,Valid,1,4,9,start,lin,0.41662067589367746,0,1,0.41662067589367746,1,True,,,,,,,,,,,,,29,A,2023-11-06_10h43.49.336,exp3,2022.2.2,
low_opac_i,0.4,1,0.01,3,0.82,3.5,0.01,0,0.01,4,5,Invalid,2,4,10,start,lin,0.01,0,1,0.01,1,True,,,,,,,,,,,,,29,A,2023-11-06_10h43.49.336,exp3,2022.2.2,
low_opac_v,0.4,1,0.01,3,0.82,3.5,0.01,0,0.01,4,5,Valid,0,4,11,start,lin,0.01,0.01,1,0.01,1,True,,,,,,,,,,,,,29,A,2023-11-06_10h43.49.336,exp3,2022.2.2,
low_opac_i,0.4,1,0.01,3,0.82,3.5,0.01,0,0.01,4,5,Invalid,2,5,12,start,lin,0.01,0,1,0.01,1,True,,,,,,,,,,,,,29,A,2023-11-06_10h43.49.336,exp3,2022.2.2,
high_opac_v,0.01,1,0.01,3,0.82,3.5,0.01,0,0.01,4,5,Valid,1,5,13,start,lin,0.3073330120243674,0.3073330120243674,1,0.3073330120243674,1,True,,,,,,,,,,,,,29,A,2023-11-06_10h43.49.336,exp3,2022.2.2,
low_opac_v,0.4,1,0.01,3,0.82,3.5,0.01,0,0.01,4,5,Valid,0,5,14,start,lin,0.01,0.01,0,0.01,0,True,,,,,,,,,,,,,29,A,2023-11-06_10h43.49.336,exp3,2022.2.2,
low_opac_v,0.4,1,0.01,3,0.82,3.5,0.01,0,0.01,4,5,Valid,0,6,15,start,lin,0.01,0,1,0.01,1,True,,,,,,,,,,,,,29,A,2023-11-06_10h43.49.336,exp3,2022.2.2,
low_opac_i,0.4,1,0.01,3,0.82,3.5,0.01,0,0.01,4,5,Invalid,2,6,16,start,lin,0.01,0,1,0.01,1,True,,,,,,,,,,,,,29,A,2023-11-06_10h43.49.336,exp3,2022.2.2,
high_opac_v,0.01,1,0.01,3,0.82,3.5,0.01,0,0.01,4,5,Valid,1,6,17,start,lin,0.2346279982429363,0,1,0.2346279982429363,1,True,,,,,,,,,,,,,29,A,2023-11-06_10h43.49.336,exp3,2022.2.2,
low_opac_v,0.4,1,0.01,3,0.82,3.5,0.01,0,0.01,4,5,Valid,0,7,18,start,lin,0.01,0,1,0.01,1,True,,,,,,,,,,,,,29,A,2023-11-06_10h43.49.336,exp3,2022.2.2,
low_opac_i,0.4,1,0.01,3,0.82,3.5,0.01,0,0.01,4,5,Invalid,2,7,19,start,lin,0.01,0.01,0,0.01,0,True,,,,,,,,,,,,,29,A,2023-11-06_10h43.49.336,exp3,2022.2.2,
high_opac_v,0.01,1,0.01,3,0.82,3.5,0.01,0,0.01,4,5,Valid,1,7,20,start,lin,0.1783883928663719,0,1,0.1783883928663719,1,True,,,,,,,,,,,,,29,A,2023-11-06_10h43.49.336,exp3,2022.2.2,
low_opac_v,0.4,1,0.01,3,0.82,3.5,0.01,0,0.01,4,5,Valid,0,8,21,start,lin,0.01,0,1,0.01,1,True,,,,,,,,,,,,,29,A,2023-11-06_10h43.49.336,exp3,2022.2.2,
low_opac_i,0.4,1,0.01,3,0.82,3.5,0.01,0,0.01,4,5,Invalid,2,8,22,start,lin,0.01,0,1,0.01,1,True,,,,,,,,,,,,,29,A,2023-11-06_10h43.49.336,exp3,2022.2.2,
high_opac_v,0.01,1,0.01,3,0.82,3.5,0.01,0,0.01,4,5,Valid,1,8,23,start,lin,0.13459290957572173,0.13459290957572173,1,0.13459290957572173,1,True,,,,,,,,,,,,,29,A,2023-11-06_10h43.49.336,exp3,2022.2.2,
low_opac_v,0.4,1,0.01,3,0.82,3.5,0.01,0,0.01,4,5,Valid,0,9,24,start,lin,0.01,0.01,0,0.01,0,True,,,,,,,,,,,,,29,A,2023-11-06_10h43.49.336,exp3,2022.2.2,
low_opac_i,0.4,1,0.01,3,0.82,3.5,0.01,0,0.01,4,5,Invalid,2,9,25,start,lin,0.01,0,1,0.01,1,True,,,,,,,,,,,,,29,A,2023-11-06_10h43.49.336,exp3,2022.2.2,
high_opac_v,0.01,1,0.01,3,0.82,3.5,0.01,0,0.01,4,5,Valid,1,9,26,start,lin,0.09461515961891341,0,1,0.09461515961891341,1,True,,,,,,,,,,,,,29,A,2023-11-06_10h43.49.336,exp3,2022.2.2,
low_opac_i,0.4,1,0.01,3,0.82,3.5,0.01,0,0.01,4,5,Invalid,2,10,27,start,lin,0.01,0.01,0,0.01,0,True,,,,,,,,,,,,,29,A,2023-11-06_10h43.49.336,exp3,2022.2.2,
high_opac_v,0.01,1,0.01,3,0.82,3.5,0.01,0,0.01,4,5,Valid,1,10,28,start,lin,0.05620518288249825,0,1,0.05620518288249825,1,True,,,,,,,,,,,,,29,A,2023-11-06_10h43.49.336,exp3,2022.2.2,
low_opac_v,0.4,1,0.01,3,0.82,3.5,0.01,0,0.01,4,5,Valid,0,10,29,start,lin,0.02762579054101677,0.02762579054101677,1,0.02762579054101677,1,True,,,,,,,,,,,,,29,A,2023-11-06_10h43.49.336,exp3,2022.2.2,
low_opac_v,0.4,1,0.01,3,0.82,3.5,0.01,0,0.01,4,5,Valid,0,11,30,start,lin,0.015960395468436472,0.015960395468436472,1,0.015960395468436472,1,True,,,,,,,,,,,,,29,A,2023-11-06_10h43.49.336,exp3,2022.2.2,
low_opac_i,0.4,1,0.01,3,0.82,3.5,0.01,0,0.01,4,5,Invalid,2,11,31,start,lin,0.013900250477006826,0.013900250477006826,0,0.013900250477006826,0,True,,,,,,,,,,,,,29,A,2023-11-06_10h43.49.336,exp3,2022.2.2,
high_opac_v,0.01,1,0.01,3,0.82,3.5,0.01,0,0.01,4,5,Valid,1,11,32,start,lin,0.017218684157691948,0,0,0.017218684157691948,0,True,,,,,,,,,,,,,29,A,2023-11-06_10h43.49.336,exp3,2022.2.2,
low_opac_i,0.4,1,0.01,3,0.82,3.5,0.01,0,0.01,4,5,Invalid,2,12,33,start,lin,0.05287393845870214,0.05287393845870214,0,0.05287393845870214,0,True,,,,,,,,,,,,,29,A,2023-11-06_10h43.49.336,exp3,2022.2.2,
low_opac_v,0.4,1,0.01,3,0.82,3.5,0.01,0,0.01,4,5,Valid,0,12,34,start,lin,0.01,0,1,0.01,1,True,,,,,,,,,,,,,29,A,2023-11-06_10h43.49.336,exp3,2022.2.2,
high_opac_v,0.01,1,0.01,3,0.82,3.5,0.01,0,0.01,4,5,Valid,1,12,35,start,lin,0.11161525224112645,0.11161525224112645,1,0.11161525224112645,1,True,,,,,,,,,,,,,29,A,2023-11-06_10h43.49.336,exp3,2022.2.2,
low_opac_v,0.4,1,0.01,3,0.82,3.5,0.01,0,0.01,4,5,Valid,0,13,36,start,lin,0.01,0,0,0.01,0,True,,,,,,,,,,,,,29,A,2023-11-06_10h43.49.336,exp3,2022.2.2,
low_opac_i,0.4,1,0.01,3,0.82,3.5,0.01,0,0.01,4,5,Invalid,2,13,37,start,lin,0.08260219865155966,0.08260219865155966,1,0.08260219865155966,1,True,,,,,,,,,,,,,29,A,2023-11-06_10h43.49.336,exp3,2022.2.2,
high_opac_v,0.01,1,0.01,3,0.82,3.5,0.01,0,0.01,4,5,Valid,1,13,38,start,lin,0.09755754181013546,0,1,0.09755754181013546,1,True,,,,,,,,,,,,,29,A,2023-11-06_10h43.49.336,exp3,2022.2.2,
high_opac_v,0.01,1,0.01,3,0.82,3.5,0.01,0,0.01,4,5,Valid,1,14,39,start,lin,0.08547167609931655,0.08547167609931655,1,0.08547167609931655,1,True,,,,,,,,,,,,,29,A,2023-11-06_10h43.49.336,exp3,2022.2.2,
low_opac_v,0.4,1,0.01,3,0.82,3.5,0.01,0,0.01,4,5,Valid,0,14,40,start,lin,0.03500566212194128,0,0,0.03500566212194128,0,True,,,,,,,,,,,,,29,A,2023-11-06_10h43.49.336,exp3,2022.2.2,
low_opac_i,0.4,1,0.01,3,0.82,3.5,0.01,0,0.01,4,5,Invalid,2,14,41,start,lin,0.07497060588204235,0,0,0.07497060588204235,0,True,,,,,,,,,,,,,29,A,2023-11-06_10h43.49.336,exp3,2022.2.2,
low_opac_i,0.4,1,0.01,3,0.82,3.5,0.01,0,0.01,4,5,Invalid,2,15,42,start,lin,0.10024859731334768,0,1,0.10024859731334768,1,True,,,,,,,,,,,,,29,A,2023-11-06_10h43.49.336,exp3,2022.2.2,
high_opac_v,0.01,1,0.01,3,0.82,3.5,0.01,0,0.01,4,5,Valid,1,15,43,start,lin,0.07471722094048813,0,0,0.07471722094048813,0,True,,,,,,,,,,,,,29,A,2023-11-06_10h43.49.336,exp3,2022.2.2,
low_opac_v,0.4,1,0.01,3,0.82,3.5,0.01,0,0.01,4,5,Valid,0,15,44,start,lin,0.06118106229214065,0,1,0.06118106229214065,1,True,,,,,,,,,,,,,29,A,2023-11-06_10h43.49.336,exp3,2022.2.2,
high_opac_v,0.01,1,0.01,3,0.82,3.5,0.01,0,0.01,4,5,Valid,1,16,45,start,lin,0.11061894498652504,0.11061894498652504,1,0.11061894498652504,1,True,,,,,,,,,,,,,29,A,2023-11-06_10h43.49.336,exp3,2022.2.2,
low_opac_v,0.4,1,0.01,3,0.82,3.5,0.01,0,0.01,4,5,Valid,0,16,46,start,lin,0.055065207336388367,0.055065207336388367,1,0.055065207336388367,1,True,,,,,,,,,,,,,29,A,2023-11-06_10h43.49.336,exp3,2022.2.2,
low_opac_i,0.4,1,0.01,3,0.82,3.5,0.01,0,0.01,4,5,Invalid,2,16,47,start,lin,0.09375008314508093,0,0,0.09375008314508093,0,True,,,,,,,,,,,,,29,A,2023-11-06_10h43.49.336,exp3,2022.2.2,
low_opac_i,0.4,1,0.01,3,0.82,3.5,0.01,0,0.01,4,5,Invalid,2,17,48,start,lin,0.11638816520978823,0,1,0.11638816520978823,1,True,,,,,,,,,,,,,29,A,2023-11-06_10h43.49.336,exp3,2022.2.2,
high_opac_v,0.01,1,0.01,3,0.82,3.5,0.01,0,0.01,4,5,Valid,1,17,49,start,lin,0.1023733313576227,0,1,0.1023733313576227,1,True,,,,,,,,,,,,,29,A,2023-11-06_10h43.49.336,exp3,2022.2.2,
low_opac_v,0.4,1,0.01,3,0.82,3.5,0.01,0,0.01,4,5,Valid,0,17,50,start,lin,0.04967824298549639,0.04967824298549639,1,0.04967824298549639,1,True,,,,,,,,,,,,,29,A,2023-11-06_10h43.49.336,exp3,2022.2.2,
low_opac_i,0.4,1,0.01,3,0.82,3.5,0.01,0,0.01,4,5,Invalid,2,18,51,start,lin,0.11078434836859485,0,1,0.11078434836859485,1,True,,,,,,,,,,,,,29,A,2023-11-06_10h43.49.336,exp3,2022.2.2,
high_opac_v,0.01,1,0.01,3,0.82,3.5,0.01,0,0.01,4,5,Valid,1,18,52,start,lin,0.09469179108645817,0.09469179108645817,1,0.09469179108645817,1,True,,,,,,,,,,,,,29,A,2023-11-06_10h43.49.336,exp3,2022.2.2,
low_opac_v,0.4,1,0.01,3,0.82,3.5,0.01,0,0.01,4,5,Valid,0,18,53,start,lin,0.04449271347717754,0.04449271347717754,0,0.04449271347717754,0,True,,,,,,,,,,,,,29,A,2023-11-06_10h43.49.336,exp3,2022.2.2,
high_opac_v,0.01,1,0.01,3,0.82,3.5,0.01,0,0.01,4,5,Valid,1,19,54,start,lin,0.08744205176796578,0,1,0.08744205176796578,1,True,,,,,,,,,,,,,29,A,2023-11-06_10h43.49.336,exp3,2022.2.2,
low_opac_v,0.4,1,0.01,3,0.82,3.5,0.01,0,0.01,4,5,Valid,0,19,55,start,lin,0.06313743708370156,0.06313743708370156,0,0.06313743708370156,0,True,,,,,,,,,,,,,29,A,2023-11-06_10h43.49.336,exp3,2022.2.2,
low_opac_i,0.4,1,0.01,3,0.82,3.5,0.01,0,0.01,4,5,Invalid,2,19,56,start,lin,0.10543567373592305,0.10543567373592305,1,0.10543567373592305,1,True,,,,,,,,,,,,,29,A,2023-11-06_10h43.49.336,exp3,2022.2.2,
low_opac_i,0.4,1,0.01,3,0.82,3.5,0.01,0,0.01,4,5,Invalid,2,20,57,start,lin,0.10067311711844967,0.10067311711844967,1,0.10067311711844967,1,True,,,,,,,,,,,,,29,A,2023-11-06_10h43.49.336,exp3,2022.2.2,
high_opac_v,0.01,1,0.01,3,0.82,3.5,0.01,0,0.01,4,5,Valid,1,20,58,start,lin,0.08107958493335202,0.08107958493335202,1,0.08107958493335202,1,True,,,,,,,,,,,,,29,A,2023-11-06_10h43.49.336,exp3,2022.2.2,
low_opac_v,0.4,1,0.01,3,0.82,3.5,0.01,0,0.01,4,5,Valid,0,20,59,start,lin,0.0810740280086591,0,0,0.0810740280086591,0,True,,,,,,,,,,,,,29,A,2023-11-06_10h43.49.336,exp3,2022.2.2,
low_opac_i,0.4,1,0.01,3,0.82,3.5,0.01,0,0.01,4,5,Invalid,2,21,60,start,lin,0.09602159880123295,0.09602159880123295,1,0.09602159880123295,1,True,,,,,,,,,,,,,29,A,2023-11-06_10h43.49.336,exp3,2022.2.2,
high_opac_v,0.01,1,0.01,3,0.82,3.5,0.01,0,0.01,4,5,Valid,1,21,61,start,lin,0.0748975200144942,0,1,0.0748975200144942,1,True,,,,,,,,,,,,,29,A,2023-11-06_10h43.49.336,exp3,2022.2.2,
low_opac_v,0.4,1,0.01,3,0.82,3.5,0.01,0,0.01,4,5,Valid,0,21,62,start,lin,0.09870149492491503,0.09870149492491503,1,0.09870149492491503,1,True,,,,,,,,,,,,,29,A,2023-11-06_10h43.49.336,exp3,2022.2.2,
low_opac_v,0.4,1,0.01,3,0.82,3.5,0.01,0,0.01,4,5,Valid,0,22,63,start,lin,0.09440219672770628,0,0,0.09440219672770628,0,True,,,,,,,,,,,,,29,A,2023-11-06_10h43.49.336,exp3,2022.2.2,
low_opac_i,0.4,1,0.01,3,0.82,3.5,0.01,0,0.01,4,5,Invalid,2,22,64,start,lin,0.09182621929801249,0.09182621929801249,1,0.09182621929801249,1,True,,,,,,,,,,,,,29,A,2023-11-06_10h43.49.336,exp3,2022.2.2,
high_opac_v,0.01,1,0.01,3,0.82,3.5,0.01,0,0.01,4,5,Valid,1,22,65,start,lin,0.06886908524642721,0,1,0.06886908524642721,1,True,,,,,,,,,,,,,29,A,2023-11-06_10h43.49.336,exp3,2022.2.2,
low_opac_v,0.4,1,0.01,3,0.82,3.5,0.01,0,0.01,4,5,Valid,0,23,66,start,lin,0.11027345673419858,0,0,0.11027345673419858,0,True,,,,,,,,,,,,,29,A,2023-11-06_10h43.49.336,exp3,2022.2.2,
high_opac_v,0.01,1,0.01,3,0.82,3.5,0.01,0,0.01,4,5,Valid,1,23,67,start,lin,0.06342588167915722,0,0,0.06342588167915722,0,True,,,,,,,,,,,,,29,A,2023-11-06_10h43.49.336,exp3,2022.2.2,
low_opac_i,0.4,1,0.01,3,0.82,3.5,0.01,0,0.01,4,5,Invalid,2,23,68,start,lin,0.08762978392159604,0.08762978392159604,1,0.08762978392159604,1,True,,,,,,,,,,,,,29,A,2023-11-06_10h43.49.336,exp3,2022.2.2,
low_opac_v,0.4,1,0.01,3,0.82,3.5,0.01,0,0.01,4,5,Valid,0,24,69,start,lin,0.12631062638319024,0,1,0.12631062638319024,1,True,,,,,,,,,,,,,29,A,2023-11-06_10h43.49.336,exp3,2022.2.2,
low_opac_i,0.4,1,0.01,3,0.82,3.5,0.01,0,0.01,4,5,Invalid,2,24,70,start,lin,0.08382499061215948,0.08382499061215948,1,0.08382499061215948,1,True,,,,,,,,,,,,,29,A,2023-11-06_10h43.49.336,exp3,2022.2.2,
high_opac_v,0.01,1,0.01,3,0.82,3.5,0.01,0,0.01,4,5,Valid,1,24,71,start,lin,0.08325975297870725,0,1,0.08325975297870725,1,True,,,,,,,,,,,,,29,A,2023-11-06_10h43.49.336,exp3,2022.2.2,
low_opac_i,0.4,1,0.01,3,0.82,3.5,0.01,0,0.01,4,5,Invalid,2,25,72,start,lin,0.07997467907918121,0,0,0.07997467907918121,0,True,,,,,,,,,,,,,29,A,2023-11-06_10h43.49.336,exp3,2022.2.2,
low_opac_v,0.4,1,0.01,3,0.82,3.5,0.01,0,0.01,4,5,Valid,0,25,73,start,lin,0.12249047046045375,0,1,0.12249047046045375,1,True,,,,,,,,,,,,,29,A,2023-11-06_10h43.49.336,exp3,2022.2.2,
high_opac_v,0.01,1,0.01,3,0.82,3.5,0.01,0,0.01,4,5,Valid,1,25,74,start,lin,0.07849179971329438,0,0,0.07849179971329438,0,True,,,,,,,,,,,,,29,A,2023-11-06_10h43.49.336,exp3,2022.2.2,
low_opac_i,0.4,1,0.01,3,0.82,3.5,0.01,0,0.01,4,5,Invalid,2,26,75,start,lin,0.09416656337686952,0.09416656337686952,0,0.09416656337686952,0,True,,,,,,,,,,,,,29,A,2023-11-06_10h43.49.336,exp3,2022.2.2,
high_opac_v,0.01,1,0.01,3,0.82,3.5,0.01,0,0.01,4,5,Valid,1,26,76,start,lin,0.09596700459123476,0,1,0.09596700459123476,1,True,,,,,,,,,,,,,29,A,2023-11-06_10h43.49.336,exp3,2022.2.2,
low_opac_v,0.4,1,0.01,3,0.82,3.5,0.01,0,0.01,4,5,Valid,0,26,77,start,lin,0.11864923208314193,0.11864923208314193,1,0.11864923208314193,1,True,,,,,,,,,,,,,29,A,2023-11-06_10h43.49.336,exp3,2022.2.2,
low_opac_v,0.4,1,0.01,3,0.82,3.5,0.01,0,0.01,4,5,Valid,0,27,78,start,lin,0.1151676463559605,0.1151676463559605,0,0.1151676463559605,0,True,,,,,,,,,,,,,29,A,2023-11-06_10h43.49.336,exp3,2022.2.2,
low_opac_i,0.4,1,0.01,3,0.82,3.5,0.01,0,0.01,4,5,Invalid,2,27,79,start,lin,0.1073669373133922,0.1073669373133922,1,0.1073669373133922,1,True,,,,,,,,,,,,,29,A,2023-11-06_10h43.49.336,exp3,2022.2.2,
high_opac_v,0.01,1,0.01,3,0.82,3.5,0.01,0,0.01,4,5,Valid,1,27,80,start,lin,0.09205492448100838,0,0,0.09205492448100838,0,True,,,,,,,,,,,,,29,A,2023-11-06_10h43.49.336,exp3,2022.2.2,
high_opac_v,0.01,1,0.01,3,0.82,3.5,0.01,0,0.01,4,5,Valid,1,28,81,start,lin,0.10720861166573945,0.10720861166573945,0,0.10720861166573945,0,True,,,,,,,,,,,,,29,A,2023-11-06_10h43.49.336,exp3,2022.2.2,
low_opac_v,0.4,1,0.01,3,0.82,3.5,0.01,0,0.01,4,5,Valid,0,28,82,start,lin,0.12914842259292586,0,0,0.12914842259292586,0,True,,,,,,,,,,,,,29,A,2023-11-06_10h43.49.336,exp3,2022.2.2,
low_opac_i,0.4,1,0.01,3,0.82,3.5,0.01,0,0.01,4,5,Invalid,2,28,83,start,lin,0.10417657601091129,0.10417657601091129,0,0.10417657601091129,0,True,,,,,,,,,,,,,29,A,2023-11-06_10h43.49.336,exp3,2022.2.2,
low_opac_v,0.4,1,0.01,3,0.82,3.5,0.01,0,0.01,4,5,Valid,0,29,84,start,lin,0.14255775509400231,0,1,0.14255775509400231,1,True,,,,,,,,,,,,,29,A,2023-11-06_10h43.49.336,exp3,2022.2.2,
high_opac_v,0.01,1,0.01,3,0.82,3.5,0.01,0,0.01,4,5,Valid,1,29,85,start,lin,0.1220795798269727,0,1,0.1220795798269727,1,True,,,,,,,,,,,,,29,A,2023-11-06_10h43.49.336,exp3,2022.2.2,
low_opac_i,0.4,1,0.01,3,0.82,3.5,0.01,0,0.01,4,5,Invalid,2,29,86,start,lin,0.1164466250824282,0.1164466250824282,1,0.1164466250824282,1,True,,,,,,,,,,,,,29,A,2023-11-06_10h43.49.336,exp3,2022.2.2,
low_opac_i,0.4,1,0.01,3,0.82,3.5,0.01,0,0.01,4,5,Invalid,2,30,87,start,lin,0.11350006107547317,0.11350006107547317,0,0.11350006107547317,0,True,,,,,,,,,,,,,29,A,2023-11-06_10h43.49.336,exp3,2022.2.2,
high_opac_v,0.01,1,0.01,3,0.82,3.5,0.01,0,0.01,4,5,Valid,1,30,88,start,lin,0.11850428545311904,0,1,0.11850428545311904,1,True,,,,,,,,,,,,,29,A,2023-11-06_10h43.49.336,exp3,2022.2.2,
low_opac_v,0.4,1,0.01,3,0.82,3.5,0.01,0,0.01,4,5,Valid,0,30,89,start,lin,0.13920636414123483,0,0,0.13920636414123483,0,True,,,,,,,,,,,,,29,A,2023-11-06_10h43.49.336,exp3,2022.2.2,
low_opac_v,0.4,1,0.01,3,0.82,3.5,0.01,0,0.01,4,5,Valid,0,31,90,start,lin,0.15182050087818466,0.15182050087818466,0,0.15182050087818466,0,True,,,,,,,,,,,,,29,A,2023-11-06_10h43.49.336,exp3,2022.2.2,
low_opac_i,0.4,1,0.01,3,0.82,3.5,0.01,0,0.01,4,5,Invalid,2,31,91,start,lin,0.12504983399621677,0.12504983399621677,1,0.12504983399621677,1,True,,,,,,,,,,,,,29,A,2023-11-06_10h43.49.336,exp3,2022.2.2,
high_opac_v,0.01,1,0.01,3,0.82,3.5,0.01,0,0.01,4,5,Valid,1,31,92,start,lin,0.1152232761809304,0,0,0.1152232761809304,0,True,,,,,,,,,,,,,29,A,2023-11-06_10h43.49.336,exp3,2022.2.2,
high_opac_v,0.01,1,0.01,3,0.82,3.5,0.01,0,0.01,4,5,Valid,1,32,93,start,lin,0.12847852680703364,0,1,0.12847852680703364,1,True,,,,,,,,,,,,,29,A,2023-11-06_10h43.49.336,exp3,2022.2.2,
low_opac_v,0.4,1,0.01,3,0.82,3.5,0.01,0,0.01,4,5,Valid,0,32,94,start,lin,0.1640123141293241,0.1640123141293241,0,0.1640123141293241,0,True,,,,,,,,,,,,,29,A,2023-11-06_10h43.49.336,exp3,2022.2.2,
low_opac_i,0.4,1,0.01,3,0.82,3.5,0.01,0,0.01,4,5,Invalid,2,32,95,start,lin,0.1223140594027386,0.1223140594027386,0,0.1223140594027386,0,True,,,,,,,,,,,,,29,A,2023-11-06_10h43.49.336,exp3,2022.2.2,
low_opac_v,0.4,1,0.01,3,0.82,3.5,0.01,0,0.01,4,5,Valid,0,33,96,start,lin,0.17587031166162348,0.17587031166162348,1,0.17587031166162348,1,True,,,,,,,,,,,,,29,A,2023-11-06_10h43.49.336,exp3,2022.2.2,
low_opac_i,0.4,1,0.01,3,0.82,3.5,0.01,0,0.01,4,5,Invalid,2,33,97,start,lin,0.13329227107645886,0.13329227107645886,0,0.13329227107645886,0,True,,,,,,,,,,,,,29,A,2023-11-06_10h43.49.336,exp3,2022.2.2,
high_opac_v,0.01,1,0.01,3,0.82,3.5,0.01,0,0.01,4,5,Valid,1,33,98,start,lin,0.12545502311746695,0.12545502311746695,0,0.12545502311746695,0,True,,,,,,,,,,,,,29,A,2023-11-06_10h43.49.336,exp3,2022.2.2,
low_opac_i,0.4,1,0.01,3,0.82,3.5,0.01,0,0.01,4,5,Invalid,2,34,99,start,lin,0.14398708676071514,0.14398708676071514,0,0.14398708676071514,0,True,,,,,,,,,,,,,29,A,2023-11-06_10h43.49.336,exp3,2022.2.2,
low_opac_v,0.4,1,0.01,3,0.82,3.5,0.01,0,0.01,4,5,Valid,0,34,100,start,lin,0.1730018887566427,0,0,0.1730018887566427,0,True,,,,,,,,,,,,,29,A,2023-11-06_10h43.49.336,exp3,2022.2.2,
high_opac_v,0.01,1,0.01,3,0.82,3.5,0.01,0,0.01,4,5,Valid,1,34,101,start,lin,0.13773370762419934,0.13773370762419934,1,0.13773370762419934,1,True,,,,,,,,,,,,,29,A,2023-11-06_10h43.49.336,exp3,2022.2.2,
low_opac_i,0.4,1,0.01,3,0.82,3.5,0.01,0,0.01,4,5,Invalid,2,35,102,start,lin,0.15446351222282032,0,1,0.15446351222282032,1,True,,,,,,,,,,,,,29,A,2023-11-06_10h43.49.336,exp3,2022.2.2,
low_opac_v,0.4,1,0.01,3,0.82,3.5,0.01,0,0.01,4,5,Valid,0,35,103,start,lin,0.18434509481852418,0,0,0.18434509481852418,0,True,,,,,,,,,,,,,29,A,2023-11-06_10h43.49.336,exp3,2022.2.2,
high_opac_v,0.01,1,0.01,3,0.82,3.5,0.01,0,0.01,4,5,Valid,1,35,104,start,lin,0.13494651137985814,0.13494651137985814,0,0.13494651137985814,0,True,,,,,,,,,,,,,29,A,2023-11-06_10h43.49.336,exp3,2022.2.2,
high_opac_v,0.01,1,0.01,3,0.82,3.5,0.01,0,0.01,4,5,Valid,1,36,105,start,lin,0.1456976082825695,0,1,0.1456976082825695,1,True,,,,,,,,,,,,,29,A,2023-11-06_10h43.49.336,exp3,2022.2.2,
low_opac_v,0.4,1,0.01,3,0.82,3.5,0.01,0,0.01,4,5,Valid,0,36,106,start,lin,0.19547215408370222,0,0,0.19547215408370222,0,True,,,,,,,,,,,,,29,A,2023-11-06_10h43.49.336,exp3,2022.2.2,
low_opac_i,0.4,1,0.01,3,0.82,3.5,0.01,0,0.01,4,5,Invalid,2,36,107,start,lin,0.15175347269849754,0.15175347269849754,0,0.15175347269849754,0,True,,,,,,,,,,,,,29,A,2023-11-06_10h43.49.336,exp3,2022.2.2,
low_opac_i,0.4,1,0.01,3,0.82,3.5,0.01,0,0.01,4,5,Invalid,2,37,108,start,lin,0.16187568221934379,0,1,0.16187568221934379,1,True,,,,,,,,,,,,,29,A,2023-11-06_10h43.49.336,exp3,2022.2.2,
high_opac_v,0.01,1,0.01,3,0.82,3.5,0.01,0,0.01,4,5,Valid,1,37,109,start,lin,0.14313472697693147,0,1,0.14313472697693147,1,True,,,,,,,,,,,,,29,A,2023-11-06_10h43.49.336,exp3,2022.2.2,
low_opac_v,0.4,1,0.01,3,0.82,3.5,0.01,0,0.01,4,5,Valid,0,37,110,start,lin,0.20721579398840115,0.20721579398840115,1,0.20721579398840115,1,True,,,,,,,,,,,,,29,A,2023-11-06_10h43.49.336,exp3,2022.2.2,
low_opac_v,0.4,1,0.01,3,0.82,3.5,0.01,0,0.01,4,5,Valid,0,38,111,start,lin,0.20451375968938137,0.20451375968938137,0,0.20451375968938137,0,True,,,,,,,,,,,,,29,A,2023-11-06_10h43.49.336,exp3,2022.2.2,
high_opac_v,0.01,1,0.01,3,0.82,3.5,0.01,0,0.01,4,5,Valid,1,38,112,start,lin,0.14046547341736879,0.14046547341736879,1,0.14046547341736879,1,True,,,,,,,,,,,,,29,A,2023-11-06_10h43.49.336,exp3,2022.2.2,
low_opac_i,0.4,1,0.01,3,0.82,3.5,0.01,0,0.01,4,5,Invalid,2,38,113,start,lin,0.15931086104643544,0.15931086104643544,0,0.15931086104643544,0,True,,,,,,,,,,,,,29,A,2023-11-06_10h43.49.336,exp3,2022.2.2,
low_opac_v,0.4,1,0.01,3,0.82,3.5,0.01,0,0.01,4,5,Valid,0,39,114,start,lin,0.21503706336420111,0.21503706336420111,1,0.21503706336420111,1,True,,,,,,,,,,,,,29,A,2023-11-06_10h43.49.336,exp3,2022.2.2,
low_opac_i,0.4,1,0.01,3,0.82,3.5,0.01,0,0.01,4,5,Invalid,2,39,115,start,lin,0.16912547582412538,0,1,0.16912547582412538,1,True,,,,,,,,,,,,,29,A,2023-11-06_10h43.49.336,exp3,2022.2.2,
high_opac_v,0.01,1,0.01,3,0.82,3.5,0.01,0,0.01,4,5,Valid,1,39,116,start,lin,0.1379302086707897,0,1,0.1379302086707897,1,True,,,,,,,,,,,,,29,A,2023-11-06_10h43.49.336,exp3,2022.2.2,
low_opac_i,0.4,1,0.01,3,0.82,3.5,0.01,0,0.01,4,5,Invalid,2,40,117,start,lin,0.16677491202650746,0,1,0.16677491202650746,1,True,,,,,,,,,,,,,29,A,2023-11-06_10h43.49.336,exp3,2022.2.2,
low_opac_v,0.4,1,0.01,3,0.82,3.5,0.01,0,0.01,4,5,Valid,0,40,118,start,lin,0.21250600427376648,0,0,0.21250600427376648,0,True,,,,,,,,,,,,,29,A,2023-11-06_10h43.49.336,exp3,2022.2.2,
high_opac_v,0.01,1,0.01,3,0.82,3.5,0.01,0,0.01,4,5,Valid,1,40,119,start,lin,0.1355667164065979,0,1,0.1355667164065979,1,True,,,,,,,,,,,,,29,A,2023-11-06_10h43.49.336,exp3,2022.2.2,
low_opac_v,0.4,1,0.01,3,0.82,3.5,0.01,0,0.01,4,5,Valid,0,41,120,start,lin,0.22270427651653207,0,0,0.22270427651653207,0,True,,,,,,,,,,,,,29,A,2023-11-06_10h43.49.336,exp3,2022.2.2,
high_opac_v,0.01,1,0.01,3,0.82,3.5,0.01,0,0.01,4,5,Valid,1,41,121,start,lin,0.133327380310259,0.133327380310259,0,0.133327380310259,0,True,,,,,,,,,,,,,29,A,2023-11-06_10h43.49.336,exp3,2022.2.2,
low_opac_i,0.4,1,0.01,3,0.82,3.5,0.01,0,0.01,4,5,Invalid,2,41,122,start,lin,0.16456790799464116,0.16456790799464116,0,0.16456790799464116,0,True,,,,,,,,,,,,,29,A,2023-11-06_10h43.49.336,exp3,2022.2.2,
low_opac_i,0.4,1,0.01,3,0.82,3.5,0.01,0,0.01,4,5,Invalid,2,42,123,start,lin,0.17333608940445577,0,1,0.17333608940445577,1,True,,,,,,,,,,,,,29,A,2023-11-06_10h43.49.336,exp3,2022.2.2,
high_opac_v,0.01,1,0.01,3,0.82,3.5,0.01,0,0.01,4,5,Valid,1,42,124,start,lin,0.14237911741547313,0.14237911741547313,1,0.14237911741547313,1,True,,,,,,,,,,,,,29,A,2023-11-06_10h43.49.336,exp3,2022.2.2,
low_opac_v,0.4,1,0.01,3,0.82,3.5,0.01,0,0.01,4,5,Valid,0,42,125,start,lin,0.23280571547962012,0,1,0.23280571547962012,1,True,,,,,,,,,,,,,29,A,2023-11-06_10h43.49.336,exp3,2022.2.2,
low_opac_v,0.4,1,0.01,3,0.82,3.5,0.01,0,0.01,4,5,Valid,0,43,126,start,lin,0.23020924244693464,0,0,0.23020924244693464,0,True,,,,,,,,,,,,,29,A,2023-11-06_10h43.49.336,exp3,2022.2.2,
high_opac_v,0.01,1,0.01,3,0.82,3.5,0.01,0,0.01,4,5,Valid,1,43,127,start,lin,0.14009130606510833,0,1,0.14009130606510833,1,True,,,,,,,,,,,,,29,A,2023-11-06_10h43.49.336,exp3,2022.2.2,
low_opac_i,0.4,1,0.01,3,0.82,3.5,0.01,0,0.01,4,5,Invalid,2,43,128,start,lin,0.17107693699415574,0,1,0.17107693699415574,1,True,,,,,,,,,,,,,29,A,2023-11-06_10h43.49.336,exp3,2022.2.2,
low_opac_v,0.4,1,0.01,3,0.82,3.5,0.01,0,0.01,4,5,Valid,0,44,129,start,lin,0.2400378942642761,0.2400378942642761,0,0.2400378942642761,0,True,,,,,,,,,,,,,29,A,2023-11-06_10h43.49.336,exp3,2022.2.2,
low_opac_i,0.4,1,0.01,3,0.82,3.5,0.01,0,0.01,4,5,Invalid,2,44,130,start,lin,0.1688985215064149,0.1688985215064149,0,0.1688985215064149,0,True,,,,,,,,,,,,,29,A,2023-11-06_10h43.49.336,exp3,2022.2.2,
high_opac_v,0.01,1,0.01,3,0.82,3.5,0.01,0,0.01,4,5,Valid,1,44,131,start,lin,0.1379123730181661,0.1379123730181661,0,0.1379123730181661,0,True,,,,,,,,,,,,,29,A,2023-11-06_10h43.49.336,exp3,2022.2.2,
low_opac_v,0.4,1,0.01,3,0.82,3.5,0.01,0,0.01,4,5,Valid,0,45,132,start,lin,0.24980575008064612,0.24980575008064612,1,0.24980575008064612,1,True,,,,,,,,,,,,,29,A,2023-11-06_10h43.49.336,exp3,2022.2.2,
high_opac_v,0.01,1,0.01,3,0.82,3.5,0.01,0,0.01,4,5,Valid,1,45,133,start,lin,0.1465845673651278,0,1,0.1465845673651278,1,True,,,,,,,,,,,,,29,A,2023-11-06_10h43.49.336,exp3,2022.2.2,
low_opac_i,0.4,1,0.01,3,0.82,3.5,0.01,0,0.01,4,5,Invalid,2,45,134,start,lin,0.17737325457373782,0.17737325457373782,0,0.17737325457373782,0,True,,,,,,,,,,,,,29,A,2023-11-06_10h43.49.336,exp3,2022.2.2,
low_opac_i,0.4,1,0.01,3,0.82,3.5,0.01,0,0.01,4,5,Invalid,2,46,135,start,lin,0.18585765736754875,0.18585765736754875,0,0.18585765736754875,0,True,,,,,,,,,,,,,29,A,2023-11-06_10h43.49.336,exp3,2022.2.2,
low_opac_v,0.4,1,0.01,3,0.82,3.5,0.01,0,0.01,4,5,Valid,0,46,136,start,lin,0.2474217722280861,0.2474217722280861,0,0.2474217722280861,0,True,,,,,,,,,,,,,29,A,2023-11-06_10h43.49.336,exp3,2022.2.2,
high_opac_v,0.01,1,0.01,3,0.82,3.5,0.01,0,0.01,4,5,Valid,1,46,137,start,lin,0.14462052819638452,0.14462052819638452,1,0.14462052819638452,1,True,,,,,,,,,,,,,29,A,2023-11-06_10h43.49.336,exp3,2022.2.2,
low_opac_i,0.4,1,0.01,3,0.82,3.5,0.01,0,0.01,4,5,Invalid,2,47,138,start,lin,0.19435358159596317,0.19435358159596317,1,0.19435358159596317,1,True,,,,,,,,,,,,,29,A,2023-11-06_10h43.49.336,exp3,2022.2.2,
high_opac_v,0.01,1,0.01,3,0.82,3.5,0.01,0,0.01,4,5,Valid,1,47,139,start,lin,0.14256819654944258,0,0,0.14256819654944258,0,True,,,,,,,,,,,,,29,A,2023-11-06_10h43.49.336,exp3,2022.2.2,
low_opac_v,0.4,1,0.01,3,0.82,3.5,0.01,0,0.01,4,5,Valid,0,47,140,start,lin,0.2569716561405633,0,0,0.2569716561405633,0,True,,,,,,,,,,,,,29,A,2023-11-06_10h43.49.336,exp3,2022.2.2,
high_opac_v,0.01,1,0.01,3,0.82,3.5,0.01,0,0.01,4,5,Valid,1,48,141,start,lin,0.15032929063044026,0,0,0.15032929063044026,0,True,,,,,,,,,,,,,29,A,2023-11-06_10h43.49.336,exp3,2022.2.2,
low_opac_i,0.4,1,0.01,3,0.82,3.5,0.01,0,0.01,4,5,Invalid,2,48,142,start,lin,0.19229875404151245,0,1,0.19229875404151245,1,True,,,,,,,,,,,,,29,A,2023-11-06_10h43.49.336,exp3,2022.2.2,
low_opac_v,0.4,1,0.01,3,0.82,3.5,0.01,0,0.01,4,5,Valid,0,48,143,start,lin,0.2664860927504087,0,1,0.2664860927504087,1,True,,,,,,,,,,,,,29,A,2023-11-06_10h43.49.336,exp3,2022.2.2,
high_opac_v,0.01,1,0.01,3,0.82,3.5,0.01,0,0.01,4,5,Valid,1,49,144,start,lin,0.1580399270554628,0,0,0.1580399270554628,0,True,,,,,,,,,,,,,29,A,2023-11-06_10h43.49.336,exp3,2022.2.2,
low_opac_i,0.4,1,0.01,3,0.82,3.5,0.01,0,0.01,4,5,Invalid,2,49,145,start,lin,0.19029867263562866,0.19029867263562866,1,0.19029867263562866,1,True,,,,,,,,,,,,,29,A,2023-11-06_10h43.49.336,exp3,2022.2.2,
low_opac_v,0.4,1,0.01,3,0.82,3.5,0.01,0,0.01,4,5,Valid,0,49,146,start,lin,0.2643096854644855,0,1,0.2643096854644855,1,True,,,,,,,,,,,,,29,A,2023-11-06_10h43.49.336,exp3,2022.2.2,
high_opac_v,0.01,1,0.01,3,0.82,3.5,0.01,0,0.01,4,5,Valid,1,50,147,start,lin,0.1657811599212344,0,0,0.1657811599212344,0,True,,,,,,,,,,,,,29,A,2023-11-06_10h43.49.336,exp3,2022.2.2,
low_opac_i,0.4,1,0.01,3,0.82,3.5,0.01,0,0.01,4,5,Invalid,2,50,148,start,lin,0.1883837914588416,0.1883837914588416,0,0.1883837914588416,0,True,,,,,,,,,,,,,29,A,2023-11-06_10h43.49.336,exp3,2022.2.2,
low_opac_v,0.4,1,0.01,3,0.82,3.5,0.01,0,0.01,4,5,Valid,0,50,149,start,lin,0.2620485421795754,0.2620485421795754,1,0.2620485421795754,1,True,,,,,,,,,,,,,29,A,2023-11-06_10h43.49.336,exp3,2022.2.2,
low_opac_i,0.4,1,0.01,3,0.82,3.5,0.01,0,0.01,4,5,Invalid,2,51,150,start,lin,0.19599263261567326,0,1,0.19599263261567326,1,True,,,,,,,,,,,,,29,A,2023-11-06_10h43.49.336,exp3,2022.2.2,
low_opac_v,0.4,1,0.01,3,0.82,3.5,0.01,0,0.01,4,5,Valid,0,51,151,start,lin,0.2598559121100736,0,0,0.2598559121100736,0,True,,,,,,,,,,,,,29,A,2023-11-06_10h43.49.336,exp3,2022.2.2,
high_opac_v,0.01,1,0.01,3,0.82,3.5,0.01,0,0.01,4,5,Valid,1,51,152,start,lin,0.1735309470320193,0,1,0.1735309470320193,1,True,,,,,,,,,,,,,29,A,2023-11-06_10h43.49.336,exp3,2022.2.2,
low_opac_v,0.4,1,0.01,3,0.82,3.5,0.01,0,0.01,4,5,Valid,0,52,153,start,lin,0.2682531829138593,0.2682531829138593,0,0.2682531829138593,0,True,,,,,,,,,,,,,29,A,2023-11-06_10h43.49.336,exp3,2022.2.2,
low_opac_i,0.4,1,0.01,3,0.82,3.5,0.01,0,0.01,4,5,Invalid,2,52,154,start,lin,0.19426429993976482,0.19426429993976482,1,0.19426429993976482,1,True,,,,,,,,,,,,,29,A,2023-11-06_10h43.49.336,exp3,2022.2.2,
high_opac_v,0.01,1,0.01,3,0.82,3.5,0.01,0,0.01,4,5,Valid,1,52,155,start,lin,0.1716776594032721,0,1,0.1716776594032721,1,True,,,,,,,,,,,,,29,A,2023-11-06_10h43.49.336,exp3,2022.2.2,
high_opac_v,0.01,1,0.01,3,0.82,3.5,0.01,0,0.01,4,5,Valid,1,53,156,start,lin,0.16985842035182128,0.16985842035182128,1,0.16985842035182128,1,True,,,,,,,,,,,,,29,A,2023-11-06_10h43.49.336,exp3,2022.2.2,
low_opac_i,0.4,1,0.01,3,0.82,3.5,0.01,0,0.01,4,5,Invalid,2,53,157,start,lin,0.19244826134959947,0,1,0.19244826134959947,1,True,,,,,,,,,,,,,29,A,2023-11-06_10h43.49.336,exp3,2022.2.2,
low_opac_v,0.4,1,0.01,3,0.82,3.5,0.01,0,0.01,4,5,Valid,0,53,158,start,lin,0.27669456360315925,0,1,0.27669456360315925,1,True,,,,,,,,,,,,,29,A,2023-11-06_10h43.49.336,exp3,2022.2.2,
low_opac_i,0.4,1,0.01,3,0.82,3.5,0.01,0,0.01,4,5,Invalid,2,54,159,start,lin,0.19067286888955634,0,1,0.19067286888955634,1,True,,,,,,,,,,,,,29,A,2023-11-06_10h43.49.336,exp3,2022.2.2,
high_opac_v,0.01,1,0.01,3,0.82,3.5,0.01,0,0.01,4,5,Valid,1,54,160,start,lin,0.16812319647150775,0,0,0.16812319647150775,0,True,,,,,,,,,,,,,29,A,2023-11-06_10h43.49.336,exp3,2022.2.2,
low_opac_v,0.4,1,0.01,3,0.82,3.5,0.01,0,0.01,4,5,Valid,0,54,161,start,lin,0.2747535500805565,0,0,0.2747535500805565,0,True,,,,,,,,,,,,,29,A,2023-11-06_10h43.49.336,exp3,2022.2.2,
high_opac_v,0.01,1,0.01,3,0.82,3.5,0.01,0,0.01,4,5,Valid,1,55,162,start,lin,0.17512136989219038,0.17512136989219038,0,0.17512136989219038,0,True,,,,,,,,,,,,,29,A,2023-11-06_10h43.49.336,exp3,2022.2.2,
low_opac_v,0.4,1,0.01,3,0.82,3.5,0.01,0,0.01,4,5,Valid,0,55,163,start,lin,0.28253143017059723,0.28253143017059723,0,0.28253143017059723,0,True,,,,,,,,,,,,,29,A,2023-11-06_10h43.49.336,exp3,2022.2.2,
low_opac_i,0.4,1,0.01,3,0.82,3.5,0.01,0,0.01,4,5,Invalid,2,55,164,start,lin,0.18894472764748302,0.18894472764748302,1,0.18894472764748302,1,True,,,,,,,,,,,,,29,A,2023-11-06_10h43.49.336,exp3,2022.2.2,
high_opac_v,0.01,1,0.01,3,0.82,3.5,0.01,0,0.01,4,5,Valid,1,56,165,start,lin,0.18216757788319782,0,1,0.18216757788319782,1,True,,,,,,,,,,,,,29,A,2023-11-06_10h43.49.336,exp3,2022.2.2,
low_opac_v,0.4,1,0.01,3,0.82,3.5,0.01,0,0.01,4,5,Valid,0,56,166,start,lin,0.29032754682524686,0.29032754682524686,1,0.29032754682524686,1,True,,,,,,,,,,,,,29,A,2023-11-06_10h43.49.336,exp3,2022.2.2,
low_opac_i,0.4,1,0.01,3,0.82,3.5,0.01,0,0.01,4,5,Invalid,2,56,167,start,lin,0.18731603321775805,0,1,0.18731603321775805,1,True,,,,,,,,,,,,,29,A,2023-11-06_10h43.49.336,exp3,2022.2.2,
low_opac_v,0.4,1,0.01,3,0.82,3.5,0.01,0,0.01,4,5,Valid,0,57,168,start,lin,0.28836459443421336,0.28836459443421336,1,0.28836459443421336,1,True,,,,,,,,,,,,,29,A,2023-11-06_10h43.49.336,exp3,2022.2.2,
high_opac_v,0.01,1,0.01,3,0.82,3.5,0.01,0,0.01,4,5,Valid,1,57,169,start,lin,0.18048522604761028,0.18048522604761028,1,0.18048522604761028,1,True,,,,,,,,,,,,,29,A,2023-11-06_10h43.49.336,exp3,2022.2.2,
low_opac_i,0.4,1,0.01,3,0.82,3.5,0.01,0,0.01,4,5,Invalid,2,57,170,start,lin,0.1857669651293153,0.1857669651293153,1,0.1857669651293153,1,True,,,,,,,,,,,,,29,A,2023-11-06_10h43.49.336,exp3,2022.2.2,
low_opac_v,0.4,1,0.01,3,0.82,3.5,0.01,0,0.01,4,5,Valid,0,58,171,start,lin,0.28652444339546534,0,1,0.28652444339546534,1,True,,,,,,,,,,,,,29,A,2023-11-06_10h43.49.336,exp3,2022.2.2,
low_opac_i,0.4,1,0.01,3,0.82,3.5,0.01,0,0.01,4,5,Invalid,2,58,172,start,lin,0.1842784581066958,0.1842784581066958,1,0.1842784581066958,1,True,,,,,,,,,,,,,29,A,2023-11-06_10h43.49.336,exp3,2022.2.2,
high_opac_v,0.01,1,0.01,3,0.82,3.5,0.01,0,0.01,4,5,Valid,1,58,173,start,lin,0.17884785313465634,0,0,0.17884785313465634,0,True,,,,,,,,,,,,,29,A,2023-11-06_10h43.49.336,exp3,2022.2.2,
low_opac_v,0.4,1,0.01,3,0.82,3.5,0.01,0,0.01,4,5,Valid,0,59,174,start,lin,0.28477614395807255,0.28477614395807255,1,0.28477614395807255,1,True,,,,,,,,,,,,,29,A,2023-11-06_10h43.49.336,exp3,2022.2.2,
low_opac_i,0.4,1,0.01,3,0.82,3.5,0.01,0,0.01,4,5,Invalid,2,59,175,start,lin,0.18270470662938235,0.18270470662938235,1,0.18270470662938235,1,True,,,,,,,,,,,,,29,A,2023-11-06_10h43.49.336,exp3,2022.2.2,
high_opac_v,0.01,1,0.01,3,0.82,3.5,0.01,0,0.01,4,5,Valid,1,59,176,start,lin,0.18532939649197516,0.18532939649197516,1,0.18532939649197516,1,True,,,,,,,,,,,,,29,A,2023-11-06_10h43.49.336,exp3,2022.2.2,
low_opac_v,0.4,1,0.01,3,0.82,3.5,0.01,0,0.01,4,5,Valid,0,60,177,start,lin,0.28294679610614815,0.28294679610614815,1,0.28294679610614815,1,True,,,,,,,,,,,,,29,A,2023-11-06_10h43.49.336,exp3,2022.2.2,
high_opac_v,0.01,1,0.01,3,0.82,3.5,0.01,0,0.01,4,5,Valid,1,60,178,start,lin,0.18387402720917695,0,1,0.18387402720917695,1,True,,,,,,,,,,,,,29,A,2023-11-06_10h43.49.336,exp3,2022.2.2,
low_opac_i,0.4,1,0.01,3,0.82,3.5,0.01,0,0.01,4,5,Invalid,2,60,179,start,lin,0.18115997688035904,0,1,0.18115997688035904,1,True,,,,,,,,,,,,,29,A,2023-11-06_10h43.49.336,exp3,2022.2.2,
low_opac_v,0.4,1,0.01,3,0.82,3.5,0.01,0,0.01,4,5,Valid,0,61,180,start,lin,0.2811650154851492,0.2811650154851492,1,0.2811650154851492,1,True,,,,,,,,,,,,,29,A,2023-11-06_10h43.49.336,exp3,2022.2.2,
low_opac_i,0.4,1,0.01,3,0.82,3.5,0.01,0,0.01,4,5,Invalid,2,61,181,start,lin,0.17963208428369196,0,1,0.17963208428369196,1,True,,,,,,,,,,,,,29,A,2023-11-06_10h43.49.336,exp3,2022.2.2,
high_opac_v,0.01,1,0.01,3,0.82,3.5,0.01,0,0.01,4,5,Valid,1,61,182,start,lin,0.18232999331968872,0.18232999331968872,0,0.18232999331968872,0,True,,,,,,,,,,,,,29,A,2023-11-06_10h43.49.336,exp3,2022.2.2,
low_opac_v,0.4,1,0.01,3,0.82,3.5,0.01,0,0.01,4,5,Valid,0,62,183,start,lin,0.2794188021973999,0.2794188021973999,1,0.2794188021973999,1,True,,,,,,,,,,,,,29,A,2023-11-06_10h43.49.336,exp3,2022.2.2,
low_opac_i,0.4,1,0.01,3,0.82,3.5,0.01,0,0.01,4,5,Invalid,2,62,184,start,lin,0.17817251684804442,0.17817251684804442,0,0.17817251684804442,0,True,,,,,,,,,,,,,29,A,2023-11-06_10h43.49.336,exp3,2022.2.2,
high_opac_v,0.01,1,0.01,3,0.82,3.5,0.01,0,0.01,4,5,Valid,1,62,185,start,lin,0.1882310344210689,0.1882310344210689,1,0.1882310344210689,1,True,,,,,,,,,,,,,29,A,2023-11-06_10h43.49.336,exp3,2022.2.2,
high_opac_v,0.01,1,0.01,3,0.82,3.5,0.01,0,0.01,4,5,Valid,1,63,186,start,lin,0.18680166156623987,0,1,0.18680166156623987,1,True,,,,,,,,,,,,,29,A,2023-11-06_10h43.49.336,exp3,2022.2.2,
low_opac_v,0.4,1,0.01,3,0.82,3.5,0.01,0,0.01,4,5,Valid,0,63,187,start,lin,0.27776769909694143,0.27776769909694143,1,0.27776769909694143,1,True,,,,,,,,,,,,,29,A,2023-11-06_10h43.49.336,exp3,2022.2.2,
low_opac_i,0.4,1,0.01,3,0.82,3.5,0.01,0,0.01,4,5,Invalid,2,63,188,start,lin,0.18412577989095408,0.18412577989095408,0,0.18412577989095408,0,True,,,,,,,,,,,,,29,A,2023-11-06_10h43.49.336,exp3,2022.2.2,
high_opac_v,0.01,1,0.01,3,0.82,3.5,0.01,0,0.01,4,5,Valid,1,64,189,start,lin,0.18543258160209944,0,0,0.18543258160209944,0,True,,,,,,,,,,,,,29,A,2023-11-06_10h43.49.336,exp3,2022.2.2,
low_opac_i,0.4,1,0.01,3,0.82,3.5,0.01,0,0.01,4,5,Invalid,2,64,190,start,lin,0.18967016224154148,0.18967016224154148,0,0.18967016224154148,0,True,,,,,,,,,,,,,29,A,2023-11-06_10h43.49.336,exp3,2022.2.2,
low_opac_v,0.4,1,0.01,3,0.82,3.5,0.01,0,0.01,4,5,Valid,0,64,191,start,lin,0.27620209609700985,0.27620209609700985,1,0.27620209609700985,1,True,,,,,,,,,,,,,29,A,2023-11-06_10h43.49.336,exp3,2022.2.2,
low_opac_v,0.4,1,0.01,3,0.82,3.5,0.01,0,0.01,4,5,Valid,0,65,192,start,lin,0.274702197348072,0.274702197348072,1,0.274702197348072,1,True,,,,,,,,,,,,,29,A,2023-11-06_10h43.49.336,exp3,2022.2.2,
high_opac_v,0.01,1,0.01,3,0.82,3.5,0.01,0,0.01,4,5,Valid,1,65,193,start,lin,0.19142621355451303,0.19142621355451303,1,0.19142621355451303,1,True,,,,,,,,,,,,,29,A,2023-11-06_10h43.49.336,exp3,2022.2.2,
low_opac_i,0.4,1,0.01,3,0.82,3.5,0.01,0,0.01,4,5,Invalid,2,65,194,start,lin,0.19537163554725484,0,0,0.19537163554725484,0,True,,,,,,,,,,,,,29,A,2023-11-06_10h43.49.336,exp3,2022.2.2,
low_opac_v,0.4,1,0.01,3,0.82,3.5,0.01,0,0.01,4,5,Valid,0,66,195,start,lin,0.2731218269168081,0,1,0.2731218269168081,1,True,,,,,,,,,,,,,29,A,2023-11-06_10h43.49.336,exp3,2022.2.2,
low_opac_i,0.4,1,0.01,3,0.82,3.5,0.01,0,0.01,4,5,Invalid,2,66,196,start,lin,0.20120743574020625,0.20120743574020625,0,0.20120743574020625,0,True,,,,,,,,,,,,,29,A,2023-11-06_10h43.49.336,exp3,2022.2.2,
high_opac_v,0.01,1,0.01,3,0.82,3.5,0.01,0,0.01,4,5,Valid,1,66,197,start,lin,0.18998777322695673,0.18998777322695673,0,0.18998777322695673,0,True,,,,,,,,,,,,,29,A,2023-11-06_10h43.49.336,exp3,2022.2.2,
high_opac_v,0.01,1,0.01,3,0.82,3.5,0.01,0,0.01,4,5,Valid,1,67,198,start,lin,0.19558126315931684,0,1,0.19558126315931684,1,True,,,,,,,,,,,,,29,A,2023-11-06_10h43.49.336,exp3,2022.2.2,
low_opac_i,0.4,1,0.01,3,0.82,3.5,0.01,0,0.01,4,5,Invalid,2,67,199,start,lin,0.20666686580302956,0.20666686580302956,0,0.20666686580302956,0,True,,,,,,,,,,,,,29,A,2023-11-06_10h43.49.336,exp3,2022.2.2,
low_opac_v,0.4,1,0.01,3,0.82,3.5,0.01,0,0.01,4,5,Valid,0,67,200,start,lin,0.2715753528845588,0.2715753528845588,1,0.2715753528845588,1,True,,,,,,,,,,,,,29,A,2023-11-06_10h43.49.336,exp3,2022.2.2,
low_opac_i,0.4,1,0.01,3,0.82,3.5,0.01,0,0.01,4,5,Invalid,2,68,201,start,lin,0.21237503467054974,0,1,0.21237503467054974,1,True,,,,,,,,,,,,,29,A,2023-11-06_10h43.49.336,exp3,2022.2.2,
high_opac_v,0.01,1,0.01,3,0.82,3.5,0.01,0,0.01,4,5,Valid,1,68,202,start,lin,0.19431197628865146,0,1,0.19431197628865146,1,True,,,,,,,,,,,,,29,A,2023-11-06_10h43.49.336,exp3,2022.2.2,
low_opac_v,0.4,1,0.01,3,0.82,3.5,0.01,0,0.01,4,5,Valid,0,68,203,start,lin,0.2700455273721659,0.2700455273721659,1,0.2700455273721659,1,True,,,,,,,,,,,,,29,A,2023-11-06_10h43.49.336,exp3,2022.2.2,
low_opac_i,0.4,1,0.01,3,0.82,3.5,0.01,0,0.01,4,5,Invalid,2,69,204,start,lin,0.21100954509657505,0.21100954509657505,0,0.21100954509657505,0,True,,,,,,,,,,,,,29,A,2023-11-06_10h43.49.336,exp3,2022.2.2,
high_opac_v,0.01,1,0.01,3,0.82,3.5,0.01,0,0.01,4,5,Valid,1,69,205,start,lin,0.19296385076284514,0,1,0.19296385076284514,1,True,,,,,,,,,,,,,29,A,2023-11-06_10h43.49.336,exp3,2022.2.2,
low_opac_v,0.4,1,0.01,3,0.82,3.5,0.01,0,0.01,4,5,Valid,0,69,206,start,lin,0.26856863296992134,0.26856863296992134,1,0.26856863296992134,1,True,,,,,,,,,,,,,29,A,2023-11-06_10h43.49.336,exp3,2022.2.2,
low_opac_v,0.4,1,0.01,3,0.82,3.5,0.01,0,0.01,4,5,Valid,0,70,207,start,lin,0.2671682305779954,0,1,0.2671682305779954,1,True,,,,,,,,,,,,,29,A,2023-11-06_10h43.49.336,exp3,2022.2.2,
high_opac_v,0.01,1,0.01,3,0.82,3.5,0.01,0,0.01,4,5,Valid,1,70,208,start,lin,0.19163693640965426,0.19163693640965426,1,0.19163693640965426,1,True,,,,,,,,,,,,,29,A,2023-11-06_10h43.49.336,exp3,2022.2.2,
low_opac_i,0.4,1,0.01,3,0.82,3.5,0.01,0,0.01,4,5,Invalid,2,70,209,start,lin,0.2162901625253402,0.2162901625253402,0,0.2162901625253402,0,True,,,,,,,,,,,,,29,A,2023-11-06_10h43.49.336,exp3,2022.2.2,
low_opac_i,0.4,1,0.01,3,0.82,3.5,0.01,0,0.01,4,5,Invalid,2,71,210,start,lin,0.2218151176468133,0,1,0.2218151176468133,1,True,,,,,,,,,,,,,29,A,2023-11-06_10h43.49.336,exp3,2022.2.2,
low_opac_v,0.4,1,0.01,3,0.82,3.5,0.01,0,0.01,4,5,Valid,0,71,211,start,lin,0.26582828232889744,0.26582828232889744,1,0.26582828232889744,1,True,,,,,,,,,,,,,29,A,2023-11-06_10h43.49.336,exp3,2022.2.2,
high_opac_v,0.01,1,0.01,3,0.82,3.5,0.01,0,0.01,4,5,Valid,1,71,212,start,lin,0.19031880574625065,0,1,0.19031880574625065,1,True,,,,,,,,,,,,,29,A,2023-11-06_10h43.49.336,exp3,2022.2.2,
high_opac_v,0.01,1,0.01,3,0.82,3.5,0.01,0,0.01,4,5,Valid,1,72,213,start,lin,0.18902570472250874,0,1,0.18902570472250874,1,True,,,,,,,,,,,,,29,A,2023-11-06_10h43.49.336,exp3,2022.2.2,
low_opac_v,0.4,1,0.01,3,0.82,3.5,0.01,0,0.01,4,5,Valid,0,72,214,start,lin,0.26453490911991007,0.26453490911991007,1,0.26453490911991007,1,True,,,,,,,,,,,,,29,A,2023-11-06_10h43.49.336,exp3,2022.2.2,
low_opac_i,0.4,1,0.01,3,0.82,3.5,0.01,0,0.01,4,5,Invalid,2,72,215,start,lin,0.2204884620004739,0.2204884620004739,0,0.2204884620004739,0,True,,,,,,,,,,,,,29,A,2023-11-06_10h43.49.336,exp3,2022.2.2,
low_opac_v,0.4,1,0.01,3,0.82,3.5,0.01,0,0.01,4,5,Valid,0,73,216,start,lin,0.2631632230680861,0.2631632230680861,1,0.2631632230680861,1,True,,,,,,,,,,,,,29,A,2023-11-06_10h43.49.336,exp3,2022.2.2,
high_opac_v,0.01,1,0.01,3,0.82,3.5,0.01,0,0.01,4,5,Valid,1,73,217,start,lin,0.18779680671691848,0.18779680671691848,1,0.18779680671691848,1,True,,,,,,,,,,,,,29,A,2023-11-06_10h43.49.336,exp3,2022.2.2,
low_opac_i,0.4,1,0.01,3,0.82,3.5,0.01,0,0.01,4,5,Invalid,2,73,218,start,lin,0.2256398569658646,0.2256398569658646,0,0.2256398569658646,0,True,,,,,,,,,,,,,29,A,2023-11-06_10h43.49.336,exp3,2022.2.2,
low_opac_i,0.4,1,0.01,3,0.82,3.5,0.01,0,0.01,4,5,Invalid,2,74,219,start,lin,0.23099325755536115,0.23099325755536115,0,0.23099325755536115,0,True,,,,,,,,,,,,,29,A,2023-11-06_10h43.49.336,exp3,2022.2.2,
low_opac_v,0.4,1,0.01,3,0.82,3.5,0.01,0,0.01,4,5,Valid,0,74,220,start,lin,0.2618147704019559,0,1,0.2618147704019559,1,True,,,,,,,,,,,,,29,A,2023-11-06_10h43.49.336,exp3,2022.2.2,
high_opac_v,0.01,1,0.01,3,0.82,3.5,0.01,0,0.01,4,5,Valid,1,74,221,start,lin,0.18662078138113616,0,1,0.18662078138113616,1,True,,,,,,,,,,,,,29,A,2023-11-06_10h43.49.336,exp3,2022.2.2,
low_opac_i,0.4,1,0.01,3,0.82,3.5,0.01,0,0.01,4,5,Invalid,2,75,222,start,lin,0.2360381260999033,0.2360381260999033,1,0.2360381260999033,1,True,,,,,,,,,,,,,29,A,2023-11-06_10h43.49.336,exp3,2022.2.2,
low_opac_v,0.4,1,0.01,3,0.82,3.5,0.01,0,0.01,4,5,Valid,0,75,223,start,lin,0.260476667094626,0.260476667094626,1,0.260476667094626,1,True,,,,,,,,,,,,,29,A,2023-11-06_10h43.49.336,exp3,2022.2.2,
high_opac_v,0.01,1,0.01,3,0.82,3.5,0.01,0,0.01,4,5,Valid,1,75,224,start,lin,0.18548686751414079,0.18548686751414079,1,0.18548686751414079,1,True,,,,,,,,,,,,,29,A,2023-11-06_10h43.49.336,exp3,2022.2.2,
,,,,,,,,,,,,,,,,,,,,,,,,0,1158,Invalid,signal,45,1,17.37738319998607,1,2.0,324.2794154000003,True,23,29,A,2023-11-06_10h43.49.336,exp3,2022.2.2,
,,,,,,,,,,,,,,,,,,,,,,,,0,-1716,Invalid,signal,-45,2,4.6549914999632165,0,2.0,5.964112400077283,True,1,29,A,2023-11-06_10h43.49.336,exp3,2022.2.2,
,,,,,,,,,,,,,,,,,,,,,,,,0,-1716,Valid,noise,-45,2,2.75495360000059,1,2.0,4.063066300004721,True,1,29,A,2023-11-06_10h43.49.336,exp3,2022.2.2,
,,,,,,,,,,,,,,,,,,,,,,,,0,2274,Valid,signal,-45,2,1.7044901000335813,0,1.0,3.0124535999493673,True,1,29,A,2023-11-06_10h43.49.336,exp3,2022.2.2,
,,,,,,,,,,,,,,,,,,,,,,,,0,1158,Valid,signal,45,1,1.1717017000773922,1,1.0,2.479666900006123,True,1,29,A,2023-11-06_10h43.49.336,exp3,2022.2.2,
,,,,,,,,,,,,,,,,,,,,,,,,0,1716,Invalid,noise,45,2,1.7047213000478223,1,2.0,3.012416600016877,True,1,29,A,2023-11-06_10h43.49.336,exp3,2022.2.2,
,,,,,,,,,,,,,,,,,,,,,,,,0,-557,Invalid,noise,45,2,1.2878337999572977,1,2.0,2.5955858000088483,True,1,29,A,2023-11-06_10h43.49.336,exp3,2022.2.2,
,,,,,,,,,,,,,,,,,,,,,,,,0,2274,Valid,noise,-45,2,1.3195803000126034,1,2.0,2.627549299970269,True,1,29,A,2023-11-06_10h43.49.336,exp3,2022.2.2,
,,,,,,,,,,,,,,,,,,,,,,,,0,1158,Valid,signal,45,1,0.9715774999931455,1,2.0,2.279593500075862,True,1,29,A,2023-11-06_10h43.49.336,exp3,2022.2.2,
,,,,,,,,,,,,,,,,,,,,,,,,0,-1716,Valid,signal,-45,1,1.2038475000299513,1,2.0,2.5120225000428036,True,1,29,A,2023-11-06_10h43.49.336,exp3,2022.2.2,
,,,,,,,,,,,,,,,,,,,,,,,,0,-1158,Valid,signal,45,2,1.488419699948281,0,2.0,2.7961157000390813,True,1,29,A,2023-11-06_10h43.49.336,exp3,2022.2.2,
,,,,,,,,,,,,,,,,,,,,,,,,0,-1716,Valid,noise,45,1,0.670127300079912,0,2.0,1.9788388999877498,True,1,29,A,2023-11-06_10h43.49.336,exp3,2022.2.2,
,,,,,,,,,,,,,,,,,,,,,,,,0,-1716,Valid,noise,-45,2,1.2544945999979973,1,2.0,2.5624539999989793,True,1,29,A,2023-11-06_10h43.49.336,exp3,2022.2.2,
,,,,,,,,,,,,,,,,,,,,,,,,0,1716,Invalid,signal,45,2,1.0711381000000983,0,2.0,2.379189300001599,True,1,29,A,2023-11-06_10h43.49.336,exp3,2022.2.2,
,,,,,,,,,,,,,,,,,,,,,,,,0,1716,Valid,noise,-45,2,0.987714699935168,1,2.0,2.295869700028561,True,1,29,A,2023-11-06_10h43.49.336,exp3,2022.2.2,
,,,,,,,,,,,,,,,,,,,,,,,,0,-557,Valid,signal,-45,1,1.1380452999146655,1,2.0,2.446080300025642,True,1,29,A,2023-11-06_10h43.49.336,exp3,2022.2.2,
,,,,,,,,,,,,,,,,,,,,,,,,0,1158,Valid,noise,-45,2,0.9705350999720395,1,2.0,2.278672199929133,True,1,29,A,2023-11-06_10h43.49.336,exp3,2022.2.2,
,,,,,,,,,,,,,,,,,,,,,,,,0,-557,Invalid,noise,45,2,1.104691700078547,1,2.0,2.41267880005762,True,1,29,A,2023-11-06_10h43.49.336,exp3,2022.2.2,
,,,,,,,,,,,,,,,,,,,,,,,,0,-2274,Valid,noise,45,2,0.907473300001584,1,2.0,2.2151606999104843,True,1,29,A,2023-11-06_10h43.49.336,exp3,2022.2.2,
,,,,,,,,,,,,,,,,,,,,,,,,0,557,Valid,signal,-45,2,1.2509817000245675,0,2.0,2.5594299000222236,True,1,29,A,2023-11-06_10h43.49.336,exp3,2022.2.2,
,,,,,,,,,,,,,,,,,,,,,,,,0,-2274,Valid,signal,45,2,1.1544292999897152,0,2.0,2.4625713999848813,True,1,29,A,2023-11-06_10h43.49.336,exp3,2022.2.2,
,,,,,,,,,,,,,,,,,,,,,,,,0,2274,Valid,signal,-45,2,1.1050820000236854,0,2.0,2.4130530999973416,True,1,29,A,2023-11-06_10h43.49.336,exp3,2022.2.2,
,,,,,,,,,,,,,,,,,,,,,,,,0,-2274,Valid,noise,45,2,1.5371209000004455,1,2.0,2.845257099950686,True,1,29,A,2023-11-06_10h43.49.336,exp3,2022.2.2,
,,,,,,,,,,,,,,,,,,,,,,,,0,557,Valid,noise,45,2,1.0546070999698713,1,2.0,2.3626677999272943,True,1,29,A,2023-11-06_10h43.49.336,exp3,2022.2.2,
,,,,,,,,,,,,,,,,,,,,,,,,0,-2274,Invalid,noise,-45,2,0.8542662999825552,1,2.0,2.1625233000377193,True,1,29,A,2023-11-06_10h43.49.336,exp3,2022.2.2,
,,,,,,,,,,,,,,,,,,,,,,,,0,-1158,Valid,noise,45,2,0.9670605999417603,1,2.0,3.8630843999562785,True,2,29,A,2023-11-06_10h43.49.336,exp3,2022.2.2,
,,,,,,,,,,,,,,,,,,,,,,,,0,-1158,Valid,signal,-45,1,1.7546507000224665,1,2.0,3.0626476000761613,True,1,29,A,2023-11-06_10h43.49.336,exp3,2022.2.2,
,,,,,,,,,,,,,,,,,,,,,,,,0,-1716,Valid,signal,45,1,1.2715941000496969,1,2.0,2.5796164999483153,True,1,29,A,2023-11-06_10h43.49.336,exp3,2022.2.2,
,,,,,,,,,,,,,,,,,,,,,,,,0,-557,Valid,signal,-45,1,0.8878709999844432,1,2.0,2.1956523000262678,True,1,29,A,2023-11-06_10h43.49.336,exp3,2022.2.2,
,,,,,,,,,,,,,,,,,,,,,,,,0,-1716,Valid,noise,45,2,1.3537466999841854,1,2.0,2.661763899959624,True,1,29,A,2023-11-06_10h43.49.336,exp3,2022.2.2,
,,,,,,,,,,,,,,,,,,,,,,,,0,-1158,Invalid,noise,45,2,1.2875457999762148,1,2.0,4.280267799971625,True,2,29,A,2023-11-06_10h43.49.336,exp3,2022.2.2,
,,,,,,,,,,,,,,,,,,,,,,,,0,1158,Valid,noise,45,2,0.9374104000162333,1,2.0,2.2456022000405937,True,1,29,A,2023-11-06_10h43.49.336,exp3,2022.2.2,
,,,,,,,,,,,,,,,,,,,,,,,,0,-2274,Valid,noise,-45,2,0.8045140999602154,1,2.0,2.1125047000823542,True,1,29,A,2023-11-06_10h43.49.336,exp3,2022.2.2,
,,,,,,,,,,,,,,,,,,,,,,,,0,1158,Valid,signal,-45,2,0.18843370000831783,0,2.0,1.4965084000723436,True,1,29,A,2023-11-06_10h43.49.336,exp3,2022.2.2,
,,,,,,,,,,,,,,,,,,,,,,,,0,557,Valid,signal,-45,1,0.5973080999683589,1,2.0,1.9049593000672758,True,1,29,A,2023-11-06_10h43.49.336,exp3,2022.2.2,
,,,,,,,,,,,,,,,,,,,,,,,,0,1158,Valid,signal,-45,2,0.7602063999511302,0,2.0,2.06837190000806,True,1,29,A,2023-11-06_10h43.49.336,exp3,2022.2.2,
,,,,,,,,,,,,,,,,,,,,,,,,0,-2274,Valid,noise,45,2,1.5214645999949425,1,2.0,2.8293293000897393,True,1,29,A,2023-11-06_10h43.49.336,exp3,2022.2.2,
,,,,,,,,,,,,,,,,,,,,,,,,0,-557,Valid,noise,-45,2,1.5874618000816554,1,2.0,2.895539600052871,True,1,29,A,2023-11-06_10h43.49.336,exp3,2022.2.2,
,,,,,,,,,,,,,,,,,,,,,,,,0,-557,Valid,noise,-45,2,1.2877276999643072,1,2.0,2.5960526999551803,True,1,29,A,2023-11-06_10h43.49.336,exp3,2022.2.2,
,,,,,,,,,,,,,,,,,,,,,,,,0,1716,Valid,noise,-45,2,0.8538286000257358,1,2.0,2.1619127000449225,True,1,29,A,2023-11-06_10h43.49.336,exp3,2022.2.2,
,,,,,,,,,,,,,,,,,,,,,,,,0,-557,Valid,noise,45,2,0.8047245000489056,1,2.0,2.112830300000496,True,1,29,A,2023-11-06_10h43.49.336,exp3,2022.2.2,
,,,,,,,,,,,,,,,,,,,,,,,,0,-1158,Valid,signal,-45,1,1.3033970999531448,1,2.0,4.530136000015773,True,2,29,A,2023-11-06_10h43.49.336,exp3,2022.2.2,
,,,,,,,,,,,,,,,,,,,,,,,,0,557,Invalid,signal,-45,2,1.0550923000555485,0,2.0,2.362977399956435,True,1,29,A,2023-11-06_10h43.49.336,exp3,2022.2.2,
,,,,,,,,,,,,,,,,,,,,,,,,0,-1716,Invalid,noise,45,1,3.1879727999912575,0,2.0,4.496018899953924,True,1,29,A,2023-11-06_10h43.49.336,exp3,2022.2.2,
,,,,,,,,,,,,,,,,,,,,,,,,0,1158,Valid,noise,-45,2,1.621467599994503,1,2.0,2.9294454000191763,True,1,29,A,2023-11-06_10h43.49.336,exp3,2022.2.2,
,,,,,,,,,,,,,,,,,,,,,,,,0,-2274,Invalid,noise,-45,2,1.038266699993983,1,2.0,2.346109400037676,True,1,29,A,2023-11-06_10h43.49.336,exp3,2022.2.2,
,,,,,,,,,,,,,,,,,,,,,,,,0,-1716,Valid,noise,45,2,1.0708774999948218,1,2.0,2.3785568999592215,True,1,29,A,2023-11-06_10h43.49.336,exp3,2022.2.2,
,,,,,,,,,,,,,,,,,,,,,,,,0,-1158,Valid,noise,-45,2,1.4711243000347167,1,2.0,2.7793519999831915,True,1,29,A,2023-11-06_10h43.49.336,exp3,2022.2.2,
,,,,,,,,,,,,,,,,,,,,,,,,0,-557,Valid,signal,-45,1,0.9539754999568686,1,2.0,2.2621841999934986,True,1,29,A,2023-11-06_10h43.49.336,exp3,2022.2.2,
,,,,,,,,,,,,,,,,,,,,,,,,0,-1716,Valid,signal,45,1,1.1711659000720829,1,2.0,2.4794251000275835,True,1,29,A,2023-11-06_10h43.49.336,exp3,2022.2.2,
,,,,,,,,,,,,,,,,,,,,,,,,0,-1716,Invalid,signal,-45,2,1.5716865999856964,0,2.0,2.879798300098628,True,1,29,A,2023-11-06_10h43.49.336,exp3,2022.2.2,
,,,,,,,,,,,,,,,,,,,,,,,,0,2274,Invalid,signal,45,2,0.8545355000533164,0,2.0,2.1622593000065535,True,1,29,A,2023-11-06_10h43.49.336,exp3,2022.2.2,
,,,,,,,,,,,,,,,,,,,,,,,,0,1716,Invalid,signal,-45,2,0.8036716000642627,0,2.0,2.1116104000248015,True,1,29,A,2023-11-06_10h43.49.336,exp3,2022.2.2,
,,,,,,,,,,,,,,,,,,,,,,,,0,2274,Valid,signal,-45,2,0.6711164000444114,0,2.0,1.9792204999830574,True,1,29,A,2023-11-06_10h43.49.336,exp3,2022.2.2,
,,,,,,,,,,,,,,,,,,,,,,,,0,-557,Invalid,signal,-45,1,0.7545283000217751,1,2.0,2.0626014000736177,True,1,29,A,2023-11-06_10h43.49.336,exp3,2022.2.2,
,,,,,,,,,,,,,,,,,,,,,,,,0,-2274,Valid,signal,45,2,0.7038485000375658,0,2.0,2.0119053000817075,True,1,29,A,2023-11-06_10h43.49.336,exp3,2022.2.2,
,,,,,,,,,,,,,,,,,,,,,,,,0,1716,Valid,noise,45,2,0.587552500073798,1,2.0,1.8955664000241086,True,1,29,A,2023-11-06_10h43.49.336,exp3,2022.2.2,
,,,,,,,,,,,,,,,,,,,,,,,,0,1158,Valid,signal,45,1,0.8379767999285832,1,2.0,3.780122800031677,True,2,29,A,2023-11-06_10h43.49.336,exp3,2022.2.2,
,,,,,,,,,,,,,,,,,,,,,,,,0,1158,Valid,signal,-45,1,0.7042105000000447,1,2.0,2.012302099959925,True,1,29,A,2023-11-06_10h43.49.336,exp3,2022.2.2,
,,,,,,,,,,,,,,,,,,,,,,,,0,1158,Invalid,noise,-45,2,1.0535219000885263,1,2.0,2.3617870999732986,True,1,29,A,2023-11-06_10h43.49.336,exp3,2022.2.2,
,,,,,,,,,,,,,,,,,,,,,,,,0,-2274,Valid,noise,-45,2,1.7382351999403909,1,2.0,3.0463099000044167,True,1,29,A,2023-11-06_10h43.49.336,exp3,2022.2.2,
,,,,,,,,,,,,,,,,,,,,,,,,0,1158,Valid,noise,-45,2,0.91487059998326,1,2.0,3.945830799988471,True,2,29,A,2023-11-06_10h43.49.336,exp3,2022.2.2,
,,,,,,,,,,,,,,,,,,,,,,,,0,557,Valid,noise,-45,2,1.2381271000485867,1,2.0,2.5461043000686914,True,1,29,A,2023-11-06_10h43.49.336,exp3,2022.2.2,
,,,,,,,,,,,,,,,,,,,,,,,,0,557,Valid,noise,-45,2,1.5544803000520915,1,2.0,2.8625909000402316,True,1,29,A,2023-11-06_10h43.49.336,exp3,2022.2.2,
,,,,,,,,,,,,,,,,,,,,,,,,0,557,Valid,noise,-45,2,3.605524499900639,1,2.0,4.913506499957293,True,1,29,A,2023-11-06_10h43.49.336,exp3,2022.2.2,
,,,,,,,,,,,,,,,,,,,,,,,,0,2274,Valid,noise,-45,2,1.4379918000195175,1,2.0,2.7456779999192804,True,1,29,A,2023-11-06_10h43.49.336,exp3,2022.2.2,
,,,,,,,,,,,,,,,,,,,,,,,,0,1716,Valid,noise,45,2,1.0548023999435827,1,2.0,2.362719599972479,True,1,29,A,2023-11-06_10h43.49.336,exp3,2022.2.2,
,,,,,,,,,,,,,,,,,,,,,,,,0,-2274,Valid,signal,45,2,1.4710749000078067,0,2.0,2.7789012999273837,True,1,29,A,2023-11-06_10h43.49.336,exp3,2022.2.2,
,,,,,,,,,,,,,,,,,,,,,,,,0,2274,Valid,noise,-45,2,0.7208279999904335,1,2.0,2.028784399968572,True,1,29,A,2023-11-06_10h43.49.336,exp3,2022.2.2,
,,,,,,,,,,,,,,,,,,,,,,,,0,-1716,Valid,signal,45,1,0.6710138000780717,1,2.0,1.9791480000130832,True,1,29,A,2023-11-06_10h43.49.336,exp3,2022.2.2,
,,,,,,,,,,,,,,,,,,,,,,,,0,-2274,Valid,noise,45,1,0.8376036999979988,0,2.0,2.1458423000294715,True,1,29,A,2023-11-06_10h43.49.336,exp3,2022.2.2,
,,,,,,,,,,,,,,,,,,,,,,,,0,-557,Valid,signal,-45,2,0.33739550004247576,0,2.0,1.6456106998957694,True,1,29,A,2023-11-06_10h43.49.336,exp3,2022.2.2,
,,,,,,,,,,,,,,,,,,,,,,,,0,-2274,Invalid,signal,-45,1,0.22538640000857413,1,2.0,1.5338947999989614,True,1,29,A,2023-11-06_10h43.49.336,exp3,2022.2.2,
,,,,,,,,,,,,,,,,,,,,,,,,0,1716,Valid,signal,-45,1,0.2985251999925822,1,2.0,1.6064927000552416,True,1,29,A,2023-11-06_10h43.49.336,exp3,2022.2.2,
,,,,,,,,,,,,,,,,,,,,,,,,0,-2274,Invalid,signal,-45,2,1.2212456999113783,0,2.0,2.5293153000529855,True,1,29,A,2023-11-06_10h43.49.336,exp3,2022.2.2,
,,,,,,,,,,,,,,,,,,,,,,,,0,-1716,Valid,noise,45,1,0.5038350999820977,0,2.0,1.8121608999790624,True,1,29,A,2023-11-06_10h43.49.336,exp3,2022.2.2,
,,,,,,,,,,,,,,,,,,,,,,,,0,-557,Valid,signal,-45,1,0.11597929999697953,1,2.0,1.4245300999609753,True,1,29,A,2023-11-06_10h43.49.336,exp3,2022.2.2,
,,,,,,,,,,,,,,,,,,,,,,,,0,-2274,Valid,noise,-45,1,0.2153640000615269,0,2.0,1.5239952000556514,True,1,29,A,2023-11-06_10h43.49.336,exp3,2022.2.2,
,,,,,,,,,,,,,,,,,,,,,,,,0,-1716,Valid,noise,-45,1,1.2148644000990316,0,2.0,7.407402999931946,True,2,29,A,2023-11-06_10h43.49.336,exp3,2022.2.2,
,,,,,,,,,,,,,,,,,,,,,,,,0,1716,Valid,signal,-45,2,1.1541008999338374,0,2.0,2.4621323000174016,True,1,29,A,2023-11-06_10h43.49.336,exp3,2022.2.2,
,,,,,,,,,,,,,,,,,,,,,,,,0,-1716,Valid,signal,-45,1,0.536870300071314,1,2.0,1.8450920999748632,True,1,29,A,2023-11-06_10h43.49.336,exp3,2022.2.2,
,,,,,,,,,,,,,,,,,,,,,,,,0,-1158,Invalid,signal,-45,1,0.5052330000326037,1,2.0,1.8132636999944225,True,1,29,A,2023-11-06_10h43.49.336,exp3,2022.2.2,
,,,,,,,,,,,,,,,,,,,,,,,,0,1716,Valid,signal,45,1,0.48685139999724925,1,2.0,1.794945599976927,True,1,29,A,2023-11-06_10h43.49.336,exp3,2022.2.2,
,,,,,,,,,,,,,,,,,,,,,,,,0,2274,Valid,noise,45,1,0.4874979000305757,0,2.0,1.7953925000037998,True,1,29,A,2023-11-06_10h43.49.336,exp3,2022.2.2,
,,,,,,,,,,,,,,,,,,,,,,,,0,-1716,Valid,signal,-45,1,0.12973339995369315,1,2.0,1.4381754000205547,True,1,29,A,2023-11-06_10h43.49.336,exp3,2022.2.2,
,,,,,,,,,,,,,,,,,,,,,,,,0,-1158,Valid,signal,45,1,0.4794076000107452,1,2.0,1.7875800000037998,True,1,29,A,2023-11-06_10h43.49.336,exp3,2022.2.2,
,,,,,,,,,,,,,,,,,,,,,,,,0,-1158,Valid,noise,-45,1,0.20675609994214028,0,2.0,1.5147966999793425,True,1,29,A,2023-11-06_10h43.49.336,exp3,2022.2.2,
,,,,,,,,,,,,,,,,,,,,,,,,0,-1716,Invalid,noise,-45,1,1.0325630999868736,0,2.0,2.341054799966514,True,1,29,A,2023-11-06_10h43.49.336,exp3,2022.2.2,
,,,,,,,,,,,,,,,,,,,,,,,,0,557,Valid,signal,45,1,1.0712848999537528,1,2.0,2.379546600044705,True,1,29,A,2023-11-06_10h43.49.336,exp3,2022.2.2,
,,,,,,,,,,,,,,,,,,,,,,,,0,-1158,Valid,signal,45,1,0.7039226000197232,1,2.0,2.0121324999490753,True,1,29,A,2023-11-06_10h43.49.336,exp3,2022.2.2,
,,,,,,,,,,,,,,,,,,,,,,,,0,-2274,Valid,signal,45,1,1.3561587000731379,1,2.0,2.663188499980606,True,1,29,A,2023-11-06_10h43.49.336,exp3,2022.2.2,
,,,,,,,,,,,,,,,,,,,,,,,,0,-557,Valid,signal,-45,1,1.0848790999734774,1,2.0,2.3932628999464214,True,1,29,A,2023-11-06_10h43.49.336,exp3,2022.2.2,
,,,,,,,,,,,,,,,,,,,,,,,,0,2274,Valid,noise,-45,2,1.537923700059764,1,2.0,2.846066700061783,True,1,29,A,2023-11-06_10h43.49.336,exp3,2022.2.2,
,,,,,,,,,,,,,,,,,,,,,,,,0,557,Valid,signal,-45,2,0.8877030999865383,0,2.0,2.1957228999817744,True,1,29,A,2023-11-06_10h43.49.336,exp3,2022.2.2,
,,,,,,,,,,,,,,,,,,,,,,,,0,557,Valid,noise,-45,2,4.171730900066905,1,2.0,5.480144800036214,True,1,29,A,2023-11-06_10h43.49.336,exp3,2022.2.2,
,,,,,,,,,,,,,,,,,,,,,,,,0,-1158,Valid,noise,-45,2,1.1037664000177756,1,2.0,2.412582300021313,True,1,29,A,2023-11-06_10h43.49.336,exp3,2022.2.2,
,,,,,,,,,,,,,,,,,,,,,,,,0,-557,Valid,noise,45,2,1.1091772000072524,1,2.0,3.929514199960977,True,2,29,A,2023-11-06_10h43.49.336,exp3,2022.2.2,
,,,,,,,,,,,,,,,,,,,,,,,,0,-1158,Valid,signal,-45,2,1.1039985000388697,0,2.0,2.4123990000225604,True,1,29,A,2023-11-06_10h43.49.336,exp3,2022.2.2,
,,,,,,,,,,,,,,,,,,,,,,,,0,1158,Valid,noise,-45,2,0.9207592000020668,1,2.0,2.2294522000011057,True,1,29,A,2023-11-06_10h43.49.336,exp3,2022.2.2,
,,,,,,,,,,,,,,,,,,,,,,,,0,-1716,Valid,signal,-45,1,1.1571725000394508,1,2.0,2.465423099929467,True,1,29,A,2023-11-06_10h43.49.336,exp3,2022.2.2,
,,,,,,,,,,,,,,,,,,,,,,,,0,2274,Valid,noise,-45,2,0.6347720000194386,1,2.0,1.9428349999943748,True,1,29,A,2023-11-06_10h43.49.336,exp3,2022.2.2,
,,,,,,,,,,,,,,,,,,,,,,,,0,-1158,Valid,noise,-45,1,0.5542804000433534,0,2.0,1.8622585999546573,True,1,29,A,2023-11-06_10h43.49.336,exp3,2022.2.2,
,,,,,,,,,,,,,,,,,,,,,,,,0,1716,Valid,noise,45,1,0.7375803000759333,0,2.0,2.045449099969119,True,1,29,A,2023-11-06_10h43.49.336,exp3,2022.2.2,
,,,,,,,,,,,,,,,,,,,,,,,,0,-1716,Valid,signal,45,1,0.5564166000112891,1,2.0,3.562454600003548,True,2,29,A,2023-11-06_10h43.49.336,exp3,2022.2.2,
,,,,,,,,,,,,,,,,,,,,,,,,0,2274,Valid,signal,45,2,1.2048153999494389,0,2.0,2.513058800017461,True,1,29,A,2023-11-06_10h43.49.336,exp3,2022.2.2,
,,,,,,,,,,,,,,,,,,,,,,,,0,-2274,Valid,noise,-45,1,1.6190734999254346,0,2.0,5.130118799977936,True,2,29,A,2023-11-06_10h43.49.336,exp3,2022.2.2,
,,,,,,,,,,,,,,,,,,,,,,,,0,-1716,Valid,noise,-45,1,1.4884832999669015,0,2.0,2.796247599995695,True,1,29,A,2023-11-06_10h43.49.336,exp3,2022.2.2,
,,,,,,,,,,,,,,,,,,,,,,,,0,2274,Invalid,signal,45,2,0.5700242000166327,0,2.0,1.8787114000879228,True,1,29,A,2023-11-06_10h43.49.336,exp3,2022.2.2,
,,,,,,,,,,,,,,,,,,,,,,,,0,1716,Valid,noise,-45,2,0.4038261999376118,1,2.0,1.7119953000219539,True,1,29,A,2023-11-06_10h43.49.336,exp3,2022.2.2,
,,,,,,,,,,,,,,,,,,,,,,,,0,2274,Invalid,noise,45,2,0.5164969000034034,1,2.0,1.8245655000209808,True,1,29,A,2023-11-06_10h43.49.336,exp3,2022.2.2,
,,,,,,,,,,,,,,,,,,,,,,,,0,-557,Valid,noise,45,1,6.2284383999649435,0,2.0,7.536196100059897,True,1,29,A,2023-11-06_10h43.49.336,exp3,2022.2.2,
,,,,,,,,,,,,,,,,,,,,,,,,0,1158,Valid,noise,-45,1,0.5918910999316722,0,2.0,5.88006689993199,True,2,29,A,2023-11-06_10h43.49.336,exp3,2022.2.2,
,,,,,,,,,,,,,,,,,,,,,,,,0,-1158,Invalid,noise,45,1,0.48716889997012913,0,2.0,1.7950837999815121,True,1,29,A,2023-11-06_10h43.49.336,exp3,2022.2.2,
,,,,,,,,,,,,,,,,,,,,,,,,0,557,Valid,signal,45,1,2.171552999992855,1,2.0,3.479651500005275,True,1,29,A,2023-11-06_10h43.49.336,exp3,2022.2.2,
,,,,,,,,,,,,,,,,,,,,,,,,0,-2274,Valid,signal,-45,1,0.5920073000015691,1,2.0,1.900095000048168,True,1,29,A,2023-11-06_10h43.49.336,exp3,2022.2.2,
,,,,,,,,,,,,,,,,,,,,,,,,0,-1158,Valid,noise,-45,1,0.4824797000037506,0,2.0,1.7906798000913113,True,1,29,A,2023-11-06_10h43.49.336,exp3,2022.2.2,
,,,,,,,,,,,,,,,,,,,,,,,,0,1716,Valid,signal,45,1,0.37481780000962317,1,2.0,1.6829270999878645,True,1,29,A,2023-11-06_10h43.49.336,exp3,2022.2.2,
,,,,,,,,,,,,,,,,,,,,,,,,0,1158,Valid,noise,45,1,0.33948189998045564,0,2.0,1.6474196999333799,True,1,29,A,2023-11-06_10h43.49.336,exp3,2022.2.2,
,,,,,,,,,,,,,,,,,,,,,,,,0,1716,Valid,signal,45,1,1.5647642000112683,1,2.0,2.873337100027129,True,1,29,A,2023-11-06_10h43.49.336,exp3,2022.2.2,
,,,,,,,,,,,,,,,,,,,,,,,,0,1716,Valid,signal,-45,1,0.5376813999610022,1,2.0,1.8457038000924513,True,1,29,A,2023-11-06_10h43.49.336,exp3,2022.2.2,
,,,,,,,,,,,,,,,,,,,,,,,,0,557,Valid,noise,-45,1,0.4222189000574872,0,2.0,1.7302906999830157,True,1,29,A,2023-11-06_10h43.49.336,exp3,2022.2.2,
,,,,,,,,,,,,,,,,,,,,,,,,0,1158,Valid,signal,45,1,1.270314000081271,1,2.0,2.578406700049527,True,1,29,A,2023-11-06_10h43.49.336,exp3,2022.2.2,
,,,,,,,,,,,,,,,,,,,,,,,,0,-557,Valid,noise,45,1,0.6702358000911772,0,2.0,1.9784568999893963,True,1,29,A,2023-11-06_10h43.49.336,exp3,2022.2.2,
,,,,,,,,,,,,,,,,,,,,,,,,0,557,Valid,noise,45,1,3.18837650003843,0,2.0,4.496190599980764,True,1,29,A,2023-11-06_10h43.49.336,exp3,2022.2.2,
,,,,,,,,,,,,,,,,,,,,,,,,0,2274,Valid,noise,-45,1,0.9550545999081805,0,2.0,4.9965160000137985,True,3,29,A,2023-11-06_10h43.49.336,exp3,2022.2.2,
,,,,,,,,,,,,,,,,,,,,,,,,0,-1158,Valid,noise,45,1,1.0212107999250293,0,2.0,2.329241200000979,True,1,29,A,2023-11-06_10h43.49.336,exp3,2022.2.2,
,,,,,,,,,,,,,,,,,,,,,,,,0,557,Valid,signal,-45,1,1.4041643999516964,1,2.0,2.7124799999874085,True,1,29,A,2023-11-06_10h43.49.336,exp3,2022.2.2,
,,,,,,,,,,,,,,,,,,,,,,,,0,-1716,Valid,signal,-45,1,1.3576664999127388,1,2.0,2.6655231000622734,True,1,29,A,2023-11-06_10h43.49.336,exp3,2022.2.2,
,,,,,,,,,,,,,,,,,,,,,,,,0,-2274,Valid,signal,-45,1,0.6162103000096977,1,2.0,1.9244516999460757,True,1,29,A,2023-11-06_10h43.49.336,exp3,2022.2.2,
,,,,,,,,,,,,,,,,,,,,,,,,0,557,Valid,signal,-45,1,0.7384739000117406,1,2.0,2.0462414000649005,True,1,29,A,2023-11-06_10h43.49.336,exp3,2022.2.2,
,,,,,,,,,,,,,,,,,,,,,,,,0,2274,Invalid,noise,45,1,0.5702879000455141,0,2.0,1.8782487000571564,True,1,29,A,2023-11-06_10h43.49.336,exp3,2022.2.2,
,,,,,,,,,,,,,,,,,,,,,,,,0,1158,Valid,signal,-45,1,0.5540582000976428,1,2.0,1.8621293000178412,True,1,29,A,2023-11-06_10h43.49.336,exp3,2022.2.2,
,,,,,,,,,,,,,,,,,,,,,,,,0,-557,Valid,noise,-45,1,0.7746527000563219,0,2.0,3.396518800058402,True,2,29,A,2023-11-06_10h43.49.336,exp3,2022.2.2,
,,,,,,,,,,,,,,,,,,,,,,,,0,557,Valid,noise,45,1,0.6043916000053287,0,2.0,1.9123703999212012,True,1,29,A,2023-11-06_10h43.49.336,exp3,2022.2.2,
,,,,,,,,,,,,,,,,,,,,,,,,0,-2274,Valid,signal,-45,1,0.38720720005221665,1,2.0,1.695603400003165,True,1,29,A,2023-11-06_10h43.49.336,exp3,2022.2.2,
,,,,,,,,,,,,,,,,,,,,,,,,0,-1158,Valid,noise,45,1,0.5039943000301719,0,2.0,1.8123001999920234,True,1,29,A,2023-11-06_10h43.49.336,exp3,2022.2.2,
,,,,,,,,,,,,,,,,,,,,,,,,0,-557,Valid,signal,-45,1,0.41552879998926073,1,2.0,3.062845499953255,True,2,29,A,2023-11-06_10h43.49.336,exp3,2022.2.2,
,,,,,,,,,,,,,,,,,,,,,,,,0,1716,Valid,noise,45,1,0.2720635000150651,0,2.0,2.97955579997506,True,2,29,A,2023-11-06_10h43.49.336,exp3,2022.2.2,
,,,,,,,,,,,,,,,,,,,,,,,,0,-1716,Valid,noise,45,1,0.2537442999891937,0,2.0,1.5621960000135005,True,1,29,A,2023-11-06_10h43.49.336,exp3,2022.2.2,
,,,,,,,,,,,,,,,,,,,,,,,,0,2274,Valid,signal,45,1,0.25079650001134723,1,2.0,1.55932809994556,True,1,29,A,2023-11-06_10h43.49.336,exp3,2022.2.2,
,,,,,,,,,,,,,,,,,,,,,,,,0,1158,Invalid,signal,45,1,0.42190849990583956,1,2.0,1.7308031999273226,True,1,29,A,2023-11-06_10h43.49.336,exp3,2022.2.2,
,,,,,,,,,,,,,,,,,,,,,,,,0,557,Invalid,noise,45,1,0.38723870005924255,0,2.0,1.6955079999752343,True,1,29,A,2023-11-06_10h43.49.336,exp3,2022.2.2,
,,,,,,,,,,,,,,,,,,,,,,,,0,557,Valid,signal,45,1,0.3036372000351548,1,2.0,1.6125380001030862,True,1,29,A,2023-11-06_10h43.49.336,exp3,2022.2.2,
,,,,,,,,,,,,,,,,,,,,,,,,0,-1158,Valid,noise,45,1,0.19121839990839362,0,2.0,1.4998742999741808,True,1,29,A,2023-11-06_10h43.49.336,exp3,2022.2.2,
,,,,,,,,,,,,,,,,,,,,,,,,0,-557,Valid,signal,-45,1,0.3283899000380188,1,2.0,1.636526400106959,True,1,29,A,2023-11-06_10h43.49.336,exp3,2022.2.2,
,,,,,,,,,,,,,,,,,,,,,,,,0,1716,Valid,signal,45,1,0.4406532999128103,1,2.0,1.7491541999625042,True,1,29,A,2023-11-06_10h43.49.336,exp3,2022.2.2,
,,,,,,,,,,,,,,,,,,,,,,,,0,-1158,Valid,signal,-45,1,0.9044794000219554,1,2.0,2.212540499982424,True,1,29,A,2023-11-06_10h43.49.336,exp3,2022.2.2,
,,,,,,,,,,,,,,,,,,,,,,,,0,557,Valid,noise,45,1,1.3049728000769392,0,2.0,2.612724300008267,True,1,29,A,2023-11-06_10h43.49.336,exp3,2022.2.2,
,,,,,,,,,,,,,,,,,,,,,,,,0,1158,Valid,signal,45,1,0.342913500033319,1,2.0,1.6509332000277936,True,1,29,A,2023-11-06_10h43.49.336,exp3,2022.2.2,
,,,,,,,,,,,,,,,,,,,,,,,,0,1716,Invalid,noise,-45,1,0.18185569997876883,0,2.0,1.4897276998963207,True,1,29,A,2023-11-06_10h43.49.336,exp3,2022.2.2,
,,,,,,,,,,,,,,,,,,,,,,,,0,-1158,Valid,signal,45,1,0.6036305000307038,1,2.0,1.9122060999507084,True,1,29,A,2023-11-06_10h43.49.336,exp3,2022.2.2,
,,,,,,,,,,,,,,,,,,,,,,,,0,2274,Valid,signal,45,1,0.23282790009398013,1,2.0,1.5411118000047281,True,1,29,A,2023-11-06_10h43.49.336,exp3,2022.2.2,
,,,,,,,,,,,,,,,,,,,,,,,,0,2274,Valid,signal,-45,1,0.46417109994217753,1,2.0,1.7723123000469059,True,1,29,A,2023-11-06_10h43.49.336,exp3,2022.2.2,
,,,,,,,,,,,,,,,,,,,,,,,,0,-557,Valid,noise,45,1,0.580241100047715,0,2.0,1.8885155000025406,True,1,29,A,2023-11-06_10h43.49.336,exp3,2022.2.2,
,,,,,,,,,,,,,,,,,,,,,,,,0,-2274,Valid,signal,45,1,0.7216624999418855,1,2.0,2.03000729996711,True,1,29,A,2023-11-06_10h43.49.336,exp3,2022.2.2,
,,,,,,,,,,,,,,,,,,,,,,,,0,-2274,Valid,signal,45,1,0.3549887000117451,1,2.0,1.6630590000422671,True,1,29,A,2023-11-06_10h43.49.336,exp3,2022.2.2,
,,,,,,,,,,,,,,,,,,,,,,,,0,1716,Valid,signal,-45,1,0.24194630002602935,1,2.0,1.5500335999531671,True,1,29,A,2023-11-06_10h43.49.336,exp3,2022.2.2,
,,,,,,,,,,,,,,,,,,,,,,,,0,-557,Valid,signal,45,1,0.31534750002902,1,2.0,1.623344000079669,True,1,29,A,2023-11-06_10h43.49.336,exp3,2022.2.2,
,,,,,,,,,,,,,,,,,,,,,,,,0,557,Invalid,noise,45,1,1.219590299995616,0,2.0,2.5281504000304267,True,1,29,A,2023-11-06_10h43.49.336,exp3,2022.2.2,
,,,,,,,,,,,,,,,,,,,,,,,,0,1716,Valid,signal,-45,1,0.42417660006321967,1,2.0,1.7327320000622422,True,1,29,A,2023-11-06_10h43.49.336,exp3,2022.2.2,
,,,,,,,,,,,,,,,,,,,,,,,,0,2274,Valid,noise,-45,1,0.30853039992507547,0,2.0,1.6163954000221565,True,1,29,A,2023-11-06_10h43.49.336,exp3,2022.2.2,
,,,,,,,,,,,,,,,,,,,,,,,,0,-2274,Valid,noise,-45,1,0.34100159991066903,0,2.0,1.6490931999869645,True,1,29,A,2023-11-06_10h43.49.336,exp3,2022.2.2,
,,,,,,,,,,,,,,,,,,,,,,,,0,557,Valid,signal,-45,1,0.2983865999849513,1,2.0,1.6061134000774473,True,1,29,A,2023-11-06_10h43.49.336,exp3,2022.2.2,
,,,,,,,,,,,,,,,,,,,,,,,,0,2274,Valid,signal,45,1,0.33983850001823157,1,2.0,1.64779419999104,True,1,29,A,2023-11-06_10h43.49.336,exp3,2022.2.2,
,,,,,,,,,,,,,,,,,,,,,,,,0,2274,Valid,signal,45,1,0.31019519991241395,1,2.0,1.6182986999629065,True,1,29,A,2023-11-06_10h43.49.336,exp3,2022.2.2,
,,,,,,,,,,,,,,,,,,,,,,,,0,1716,Valid,noise,-45,1,0.374355599982664,0,2.0,1.6821784999920055,True,1,29,A,2023-11-06_10h43.49.336,exp3,2022.2.2,
,,,,,,,,,,,,,,,,,,,,,,,,0,2274,Valid,noise,45,1,0.18746760010253638,0,2.0,1.4953730999259278,True,1,29,A,2023-11-06_10h43.49.336,exp3,2022.2.2,
,,,,,,,,,,,,,,,,,,,,,,,,0,1158,Valid,noise,45,1,0.40288710000459105,0,2.0,1.7106181000126526,True,1,29,A,2023-11-06_10h43.49.336,exp3,2022.2.2,
,,,,,,,,,,,,,,,,,,,,,,,,0,-1158,Valid,signal,-45,1,0.40114360000006855,1,2.0,6.178740500006825,True,3,29,A,2023-11-06_10h43.49.336,exp3,2022.2.2,
,,,,,,,,,,,,,,,,,,,,,,,,0,1158,Valid,noise,-45,1,0.371986799989827,0,2.0,1.6801281000953168,True,1,29,A,2023-11-06_10h43.49.336,exp3,2022.2.2,
,,,,,,,,,,,,,,,,,,,,,,,,0,1716,Valid,noise,-45,1,0.24663920002058148,0,2.0,1.5547120000701398,True,1,29,A,2023-11-06_10h43.49.336,exp3,2022.2.2,
,,,,,,,,,,,,,,,,,,,,,,,,0,-1158,Invalid,signal,45,1,0.3128497999859974,1,2.0,1.6207815000088885,True,1,29,A,2023-11-06_10h43.49.336,exp3,2022.2.2,
,,,,,,,,,,,,,,,,,,,,,,,,0,557,Invalid,signal,-45,1,0.3247850000625476,1,2.0,1.6330090999836102,True,1,29,A,2023-11-06_10h43.49.336,exp3,2022.2.2,
,,,,,,,,,,,,,,,,,,,,,,,,0,1158,Invalid,noise,45,1,0.34002999996300787,0,2.0,1.648298199987039,True,1,29,A,2023-11-06_10h43.49.336,exp3,2022.2.2,
,,,,,,,,,,,,,,,,,,,,,,,,0,-557,Invalid,signal,-45,1,1.1470002999994904,1,2.0,2.4552850999170914,True,1,29,A,2023-11-06_10h43.49.336,exp3,2022.2.2,
,,,,,,,,,,,,,,,,,,,,,,,,0,-557,Valid,noise,-45,1,0.3400151999667287,0,2.0,1.6481936000054702,True,1,29,A,2023-11-06_10h43.49.336,exp3,2022.2.2,
,,,,,,,,,,,,,,,,,,,,,,,,1,-557,Invalid,noise,-45,2,1.9076859999913722,1,2.0,4.961070599965751,True,2,29,A,2023-11-06_10h43.49.336,exp3,2022.2.2,
,,,,,,,,,,,,,,,,,,,,,,,,2,557,Valid,signal,45,2,0.8206341000040993,0,2.0,2.1293665999546647,True,1,29,A,2023-11-06_10h43.49.336,exp3,2022.2.2,
,,,,,,,,,,,,,,,,,,,,,,,,3,-2274,Valid,noise,-45,2,0.7531828999053687,1,2.0,2.062017200049013,True,1,29,A,2023-11-06_10h43.49.336,exp3,2022.2.2,
,,,,,,,,,,,,,,,,,,,,,,,,4,-1716,Valid,noise,-45,2,0.36462020000908524,1,2.0,1.672053899965249,True,1,29,A,2023-11-06_10h43.49.336,exp3,2022.2.2,
,,,,,,,,,,,,,,,,,,,,,,,,5,-2274,Valid,noise,45,2,0.27466989995446056,1,2.0,1.583053500042297,True,1,29,A,2023-11-06_10h43.49.336,exp3,2022.2.2,
,,,,,,,,,,,,,,,,,,,,,,,,6,1158,Invalid,noise,-45,2,0.29253560001961887,1,2.0,1.6007305999519303,True,1,29,A,2023-11-06_10h43.49.336,exp3,2022.2.2,
,,,,,,,,,,,,,,,,,,,,,,,,7,1716,Valid,signal,-45,2,0.18151240004226565,0,2.0,1.4899202999658883,True,1,29,A,2023-11-06_10h43.49.336,exp3,2022.2.2,
,,,,,,,,,,,,,,,,,,,,,,,,8,-2274,Valid,signal,-45,2,0.31186809996142983,0,2.0,1.6205346999922767,True,1,29,A,2023-11-06_10h43.49.336,exp3,2022.2.2,
,,,,,,,,,,,,,,,,,,,,,,,,9,-1716,Valid,noise,45,2,0.29565200000070035,1,2.0,1.6040112999035046,True,1,29,A,2023-11-06_10h43.49.336,exp3,2022.2.2,
,,,,,,,,,,,,,,,,,,,,,,,,10,-557,Valid,noise,45,2,0.13034329994115978,1,2.0,1.438849600031972,True,1,29,A,2023-11-06_10h43.49.336,exp3,2022.2.2,
,,,,,,,,,,,,,,,,,,,,,,,,11,2274,Invalid,signal,45,2,0.5288327999878675,0,2.0,1.8374581000534818,True,1,29,A,2023-11-06_10h43.49.336,exp3,2022.2.2,
,,,,,,,,,,,,,,,,,,,,,,,,12,-2274,Valid,noise,45,2,1.019857499981299,1,2.0,2.328360000043176,True,1,29,A,2023-11-06_10h43.49.336,exp3,2022.2.2,
,,,,,,,,,,,,,,,,,,,,,,,,13,1716,Valid,noise,45,2,0.29541639995295554,1,2.0,1.6038869000039995,True,1,29,A,2023-11-06_10h43.49.336,exp3,2022.2.2,
,,,,,,,,,,,,,,,,,,,,,,,,14,-1158,Valid,noise,-45,2,0.33998260006774217,1,2.0,1.6486160000786185,True,1,29,A,2023-11-06_10h43.49.336,exp3,2022.2.2,
,,,,,,,,,,,,,,,,,,,,,,,,15,-1158,Invalid,signal,45,2,0.15211589995305985,0,2.0,1.4607792999595404,True,1,29,A,2023-11-06_10h43.49.336,exp3,2022.2.2,
,,,,,,,,,,,,,,,,,,,,,,,,16,-2274,Valid,signal,45,2,0.1812565999571234,0,2.0,1.4897957000648603,True,1,29,A,2023-11-06_10h43.49.336,exp3,2022.2.2,
,,,,,,,,,,,,,,,,,,,,,,,,17,-1716,Valid,signal,-45,2,0.42235609993804246,0,2.0,1.7310350999468938,True,1,29,A,2023-11-06_10h43.49.336,exp3,2022.2.2,
,,,,,,,,,,,,,,,,,,,,,,,,18,-1716,Valid,signal,45,2,0.8982779999496415,0,2.0,2.2069359999150038,True,1,29,A,2023-11-06_10h43.49.336,exp3,2022.2.2,
,,,,,,,,,,,,,,,,,,,,,,,,19,1716,Valid,noise,45,2,0.15166620002128184,1,2.0,1.459313299972564,True,1,29,A,2023-11-06_10h43.49.336,exp3,2022.2.2,
,,,,,,,,,,,,,,,,,,,,,,,,20,1716,Valid,signal,-45,2,0.21527369995601475,0,2.0,1.5240993000334129,True,1,29,A,2023-11-06_10h43.49.336,exp3,2022.2.2,
,,,,,,,,,,,,,,,,,,,,,,,,21,2274,Valid,signal,-45,2,1.0260410000337288,0,2.0,2.3349287000019103,True,1,29,A,2023-11-06_10h43.49.336,exp3,2022.2.2,
,,,,,,,,,,,,,,,,,,,,,,,,22,2274,Valid,signal,-45,2,0.31440809997729957,0,2.0,1.6226742999861017,True,1,29,A,2023-11-06_10h43.49.336,exp3,2022.2.2,
,,,,,,,,,,,,,,,,,,,,,,,,23,2274,Valid,signal,45,2,0.1958282000850886,0,2.0,1.5043868999928236,True,1,29,A,2023-11-06_10h43.49.336,exp3,2022.2.2,
,,,,,,,,,,,,,,,,,,,,,,,,24,1158,Valid,noise,-45,2,0.27877259999513626,1,2.0,1.5873912000097334,True,1,29,A,2023-11-06_10h43.49.336,exp3,2022.2.2,
,,,,,,,,,,,,,,,,,,,,,,,,25,1716,Valid,signal,45,2,0.20005689992103726,0,2.0,1.5081373999128118,True,1,29,A,2023-11-06_10h43.49.336,exp3,2022.2.2,
,,,,,,,,,,,,,,,,,,,,,,,,26,-1158,Valid,signal,45,2,0.3096902999095619,0,2.0,1.618414899916388,True,1,29,A,2023-11-06_10h43.49.336,exp3,2022.2.2,
,,,,,,,,,,,,,,,,,,,,,,,,27,1716,Invalid,noise,45,2,0.32605499995406717,1,2.0,1.6344143999740481,True,1,29,A,2023-11-06_10h43.49.336,exp3,2022.2.2,
,,,,,,,,,,,,,,,,,,,,,,,,28,1158,Valid,signal,-45,2,0.6180339000420645,0,2.0,1.9268665000563487,True,1,29,A,2023-11-06_10h43.49.336,exp3,2022.2.2,
,,,,,,,,,,,,,,,,,,,,,,,,29,1158,Invalid,noise,-45,2,0.2855557999573648,1,2.0,1.5959488999797031,True,1,29,A,2023-11-06_10h43.49.336,exp3,2022.2.2,
,,,,,,,,,,,,,,,,,,,,,,,,30,1158,Valid,signal,-45,2,0.3569158000173047,0,2.0,1.6654603999340907,True,1,29,A,2023-11-06_10h43.49.336,exp3,2022.2.2,
,,,,,,,,,,,,,,,,,,,,,,,,31,2274,Valid,noise,45,2,0.36078220000490546,1,2.0,1.6690036000218242,True,1,29,A,2023-11-06_10h43.49.336,exp3,2022.2.2,
,,,,,,,,,,,,,,,,,,,,,,,,32,-1158,Valid,signal,45,2,0.22889019991271198,0,2.0,1.5372825999511406,True,1,29,A,2023-11-06_10h43.49.336,exp3,2022.2.2,
,,,,,,,,,,,,,,,,,,,,,,,,33,1158,Valid,noise,-45,2,0.16796979994978756,1,2.0,1.4765659000258893,True,1,29,A,2023-11-06_10h43.49.336,exp3,2022.2.2,
,,,,,,,,,,,,,,,,,,,,,,,,34,-557,Valid,noise,-45,2,0.19669340003747493,1,2.0,1.5050754999974743,True,1,29,A,2023-11-06_10h43.49.336,exp3,2022.2.2,
,,,,,,,,,,,,,,,,,,,,,,,,35,-1158,Valid,signal,45,2,0.32557200000155717,0,2.0,1.6340452999575064,True,1,29,A,2023-11-06_10h43.49.336,exp3,2022.2.2,
,,,,,,,,,,,,,,,,,,,,,,,,36,-557,Valid,signal,-45,2,0.13800470007117838,0,2.0,1.4462678999407217,True,1,29,A,2023-11-06_10h43.49.336,exp3,2022.2.2,
,,,,,,,,,,,,,,,,,,,,,,,,37,557,Valid,signal,45,2,0.21232920000329614,0,2.0,1.520744299981743,True,1,29,A,2023-11-06_10h43.49.336,exp3,2022.2.2,
,,,,,,,,,,,,,,,,,,,,,,,,38,557,Valid,noise,45,2,0.8136346999090165,1,2.0,2.122339199995622,True,1,29,A,2023-11-06_10h43.49.336,exp3,2022.2.2,
,,,,,,,,,,,,,,,,,,,,,,,,39,-1716,Valid,noise,45,2,0.23601170000620186,1,2.0,1.5453081999439746,True,1,29,A,2023-11-06_10h43.49.336,exp3,2022.2.2,
,,,,,,,,,,,,,,,,,,,,,,,,40,1158,Valid,signal,45,2,0.23753929999656975,0,2.0,1.5457908000098541,True,1,29,A,2023-11-06_10h43.49.336,exp3,2022.2.2,
,,,,,,,,,,,,,,,,,,,,,,,,41,557,Valid,signal,-45,2,1.1365320000331849,0,2.0,2.44515390007291,True,1,29,A,2023-11-06_10h43.49.336,exp3,2022.2.2,
,,,,,,,,,,,,,,,,,,,,,,,,42,1158,Valid,signal,-45,2,0.3415261999471113,0,2.0,1.650504699908197,True,1,29,A,2023-11-06_10h43.49.336,exp3,2022.2.2,
,,,,,,,,,,,,,,,,,,,,,,,,43,-2274,Invalid,signal,-45,2,0.2944836000679061,0,2.0,1.6028975999215618,True,1,29,A,2023-11-06_10h43.49.336,exp3,2022.2.2,
,,,,,,,,,,,,,,,,,,,,,,,,44,-557,Valid,signal,-45,2,0.11641510005574673,0,2.0,1.425140400067903,True,1,29,A,2023-11-06_10h43.49.336,exp3,2022.2.2,
,,,,,,,,,,,,,,,,,,,,,,,,45,-1158,Valid,noise,45,2,0.862204400007613,1,2.0,2.170856000040658,True,1,29,A,2023-11-06_10h43.49.336,exp3,2022.2.2,
,,,,,,,,,,,,,,,,,,,,,,,,46,-1158,Valid,noise,45,2,0.20600030000787228,1,2.0,1.5143986999755725,True,1,29,A,2023-11-06_10h43.49.336,exp3,2022.2.2,
,,,,,,,,,,,,,,,,,,,,,,,,47,-1158,Valid,noise,45,2,0.26329719997011125,1,2.0,1.5717657000059262,True,1,29,A,2023-11-06_10h43.49.336,exp3,2022.2.2,
,,,,,,,,,,,,,,,,,,,,,,,,48,1158,Valid,noise,45,2,0.1657964000478387,1,2.0,1.4743469000095502,True,1,29,A,2023-11-06_10h43.49.336,exp3,2022.2.2,
,,,,,,,,,,,,,,,,,,,,,,,,49,-1158,Valid,noise,45,2,0.34602539998013526,1,2.0,1.6547330999746919,True,1,29,A,2023-11-06_10h43.49.336,exp3,2022.2.2,
,,,,,,,,,,,,,,,,,,,,,,,,50,-557,Valid,signal,45,2,0.12968689994886518,0,2.0,1.4379299998981878,True,1,29,A,2023-11-06_10h43.49.336,exp3,2022.2.2,
,,,,,,,,,,,,,,,,,,,,,,,,51,1716,Invalid,signal,-45,2,0.29525909991934896,0,2.0,1.6036221999675035,True,1,29,A,2023-11-06_10h43.49.336,exp3,2022.2.2,
,,,,,,,,,,,,,,,,,,,,,,,,52,-557,Valid,signal,45,2,0.13178519997745752,0,2.0,1.4403283999999985,True,1,29,A,2023-11-06_10h43.49.336,exp3,2022.2.2,
,,,,,,,,,,,,,,,,,,,,,,,,53,557,Valid,signal,-45,2,0.1331137000815943,0,2.0,1.4417098000412807,True,1,29,A,2023-11-06_10h43.49.336,exp3,2022.2.2,
,,,,,,,,,,,,,,,,,,,,,,,,54,-1716,Invalid,noise,-45,2,0.18347760010510683,1,2.0,1.4921438999008387,True,1,29,A,2023-11-06_10h43.49.336,exp3,2022.2.2,
,,,,,,,,,,,,,,,,,,,,,,,,55,-557,Valid,noise,-45,2,0.2428660000441596,1,2.0,1.5511621000478044,True,1,29,A,2023-11-06_10h43.49.336,exp3,2022.2.2,
,,,,,,,,,,,,,,,,,,,,,,,,56,2274,Valid,noise,-45,2,0.13707569998223335,1,2.0,1.4458870999515057,True,1,29,A,2023-11-06_10h43.49.336,exp3,2022.2.2,
,,,,,,,,,,,,,,,,,,,,,,,,57,-557,Invalid,signal,-45,2,0.5263103999895975,0,2.0,1.834690900053829,True,1,29,A,2023-11-06_10h43.49.336,exp3,2022.2.2,
,,,,,,,,,,,,,,,,,,,,,,,,58,-1158,Valid,signal,-45,2,0.12471170001663268,0,2.0,1.4331256999867037,True,1,29,A,2023-11-06_10h43.49.336,exp3,2022.2.2,
,,,,,,,,,,,,,,,,,,,,,,,,59,-557,Valid,noise,-45,2,0.2802460000384599,1,2.0,1.588778299978003,True,1,29,A,2023-11-06_10h43.49.336,exp3,2022.2.2,
,,,,,,,,,,,,,,,,,,,,,,,,60,-1158,Valid,signal,-45,2,0.32462730002589524,0,2.0,1.633063399931416,True,1,29,A,2023-11-06_10h43.49.336,exp3,2022.2.2,
,,,,,,,,,,,,,,,,,,,,,,,,61,-557,Valid,signal,-45,2,0.16656109993346035,0,2.0,1.474968499969691,True,1,29,A,2023-11-06_10h43.49.336,exp3,2022.2.2,
,,,,,,,,,,,,,,,,,,,,,,,,62,557,Valid,signal,45,2,0.14939489995595068,0,2.0,1.4576865999260917,True,1,29,A,2023-11-06_10h43.49.336,exp3,2022.2.2,
,,,,,,,,,,,,,,,,,,,,,,,,63,2274,Valid,noise,-45,2,0.34128290007356554,1,2.0,1.6496372000547126,True,1,29,A,2023-11-06_10h43.49.336,exp3,2022.2.2,
,,,,,,,,,,,,,,,,,,,,,,,,64,-557,Valid,noise,-45,2,0.24843370006419718,1,2.0,1.5570380000863224,True,1,29,A,2023-11-06_10h43.49.336,exp3,2022.2.2,
,,,,,,,,,,,,,,,,,,,,,,,,65,2274,Valid,signal,-45,2,0.16560449998360127,0,2.0,1.4737720999401063,True,1,29,A,2023-11-06_10h43.49.336,exp3,2022.2.2,
,,,,,,,,,,,,,,,,,,,,,,,,66,-1716,Valid,signal,45,2,0.11707380006555468,0,2.0,1.4254758999450132,True,1,29,A,2023-11-06_10h43.49.336,exp3,2022.2.2,
,,,,,,,,,,,,,,,,,,,,,,,,67,-2274,Invalid,noise,45,2,0.24235839990433306,1,2.0,1.5506214000051841,True,1,29,A,2023-11-06_10h43.49.336,exp3,2022.2.2,
,,,,,,,,,,,,,,,,,,,,,,,,68,1158,Valid,noise,-45,2,0.25124279991723597,1,2.0,1.5596360000781715,True,1,29,A,2023-11-06_10h43.49.336,exp3,2022.2.2,
,,,,,,,,,,,,,,,,,,,,,,,,69,1716,Valid,noise,-45,2,0.22039909998420626,1,2.0,1.5285052000544965,True,1,29,A,2023-11-06_10h43.49.336,exp3,2022.2.2,
,,,,,,,,,,,,,,,,,,,,,,,,70,-2274,Valid,noise,-45,2,0.19249799998942763,1,2.0,1.50107619992923,True,1,29,A,2023-11-06_10h43.49.336,exp3,2022.2.2,
,,,,,,,,,,,,,,,,,,,,,,,,71,-1716,Invalid,signal,-45,2,0.05214540008455515,0,2.0,1.3607119000516832,True,1,29,A,2023-11-06_10h43.49.336,exp3,2022.2.2,
,,,,,,,,,,,,,,,,,,,,,,,,72,557,Valid,noise,-45,2,0.2737779999151826,1,2.0,1.5820425000274554,True,1,29,A,2023-11-06_10h43.49.336,exp3,2022.2.2,
,,,,,,,,,,,,,,,,,,,,,,,,73,557,Valid,signal,-45,2,0.12705920008011162,0,2.0,1.435641499934718,True,1,29,A,2023-11-06_10h43.49.336,exp3,2022.2.2,
,,,,,,,,,,,,,,,,,,,,,,,,74,-1716,Valid,noise,45,2,0.3416567000094801,1,2.0,1.6491761999204755,True,1,29,A,2023-11-06_10h43.49.336,exp3,2022.2.2,
,,,,,,,,,,,,,,,,,,,,,,,,75,-2274,Valid,noise,-45,2,0.29542410001158714,1,2.0,1.6042420000303537,True,1,29,A,2023-11-06_10h43.49.336,exp3,2022.2.2,
,,,,,,,,,,,,,,,,,,,,,,,,76,-1716,Valid,signal,-45,2,0.3360232999548316,0,2.0,1.644391900044866,True,1,29,A,2023-11-06_10h43.49.336,exp3,2022.2.2,
,,,,,,,,,,,,,,,,,,,,,,,,77,1158,Valid,signal,45,2,0.08239709993358701,0,2.0,1.391054300009273,True,1,29,A,2023-11-06_10h43.49.336,exp3,2022.2.2,
,,,,,,,,,,,,,,,,,,,,,,,,78,-1716,Valid,signal,-45,2,0.26609340007416904,0,2.0,1.5742153000319377,True,1,29,A,2023-11-06_10h43.49.336,exp3,2022.2.2,
,,,,,,,,,,,,,,,,,,,,,,,,79,1158,Valid,noise,-45,2,0.32521110004745424,1,2.0,1.633519300026819,True,1,29,A,2023-11-06_10h43.49.336,exp3,2022.2.2,
,,,,,,,,,,,,,,,,,,,,,,,,80,-557,Valid,signal,-45,2,0.3418854000046849,0,2.0,1.6501740999519825,True,1,29,A,2023-11-06_10h43.49.336,exp3,2022.2.2,
,,,,,,,,,,,,,,,,,,,,,,,,81,1716,Valid,noise,-45,2,0.3374210000038147,1,2.0,1.646054400014691,True,1,29,A,2023-11-06_10h43.49.336,exp3,2022.2.2,
,,,,,,,,,,,,,,,,,,,,,,,,82,2274,Valid,noise,-45,2,0.39513030007947236,1,2.0,1.7041120999492705,True,1,29,A,2023-11-06_10h43.49.336,exp3,2022.2.2,
,,,,,,,,,,,,,,,,,,,,,,,,83,-2274,Invalid,signal,-45,2,0.22865310008637607,0,2.0,1.5370187999214977,True,1,29,A,2023-11-06_10h43.49.336,exp3,2022.2.2,
,,,,,,,,,,,,,,,,,,,,,,,,84,2274,Valid,signal,-45,2,0.28335479996167123,0,2.0,1.5917694999370724,True,1,29,A,2023-11-06_10h43.49.336,exp3,2022.2.2,
,,,,,,,,,,,,,,,,,,,,,,,,85,1158,Valid,noise,-45,2,0.0633574000094086,1,2.0,1.3719868999905884,True,1,29,A,2023-11-06_10h43.49.336,exp3,2022.2.2,
,,,,,,,,,,,,,,,,,,,,,,,,86,2274,Valid,signal,-45,2,0.15094920003321022,0,2.0,1.4602130999555811,True,1,29,A,2023-11-06_10h43.49.336,exp3,2022.2.2,
,,,,,,,,,,,,,,,,,,,,,,,,87,557,Valid,noise,-45,2,0.2138534999685362,1,2.0,1.5224576999899,True,1,29,A,2023-11-06_10h43.49.336,exp3,2022.2.2,
,,,,,,,,,,,,,,,,,,,,,,,,88,557,Valid,noise,-45,2,0.22670130000915378,1,2.0,1.535502800019458,True,1,29,A,2023-11-06_10h43.49.336,exp3,2022.2.2,
,,,,,,,,,,,,,,,,,,,,,,,,89,-557,Valid,signal,-45,2,0.43168719997629523,0,2.0,1.740530600072816,True,1,29,A,2023-11-06_10h43.49.336,exp3,2022.2.2,
,,,,,,,,,,,,,,,,,,,,,,,,90,557,Invalid,signal,45,2,0.36171740002464503,0,2.0,1.6703625000081956,True,1,29,A,2023-11-06_10h43.49.336,exp3,2022.2.2,
,,,,,,,,,,,,,,,,,,,,,,,,91,2274,Valid,noise,-45,2,0.2036919998936355,1,2.0,1.5126736999955028,True,1,29,A,2023-11-06_10h43.49.336,exp3,2022.2.2,
,,,,,,,,,,,,,,,,,,,,,,,,92,2274,Valid,noise,-45,2,0.1010671000694856,1,2.0,1.4095385000109673,True,1,29,A,2023-11-06_10h43.49.336,exp3,2022.2.2,
,,,,,,,,,,,,,,,,,,,,,,,,93,-557,Valid,signal,-45,2,0.08524040004704148,0,2.0,1.3941973000764847,True,1,29,A,2023-11-06_10h43.49.336,exp3,2022.2.2,
,,,,,,,,,,,,,,,,,,,,,,,,94,-557,Valid,noise,-45,2,0.21245309989899397,1,2.0,1.5211132999975234,True,1,29,A,2023-11-06_10h43.49.336,exp3,2022.2.2,
,,,,,,,,,,,,,,,,,,,,,,,,95,1716,Valid,noise,-45,2,0.14994739997200668,1,2.0,1.4586346000432968,True,1,29,A,2023-11-06_10h43.49.336,exp3,2022.2.2,
,,,,,,,,,,,,,,,,,,,,,,,,96,1716,Valid,signal,45,2,0.10204410005826503,0,2.0,1.4109208000591025,True,1,29,A,2023-11-06_10h43.49.336,exp3,2022.2.2,
,,,,,,,,,,,,,,,,,,,,,,,,97,-1716,Valid,noise,45,2,0.16480210004374385,1,2.0,1.4731720000272617,True,1,29,A,2023-11-06_10h43.49.336,exp3,2022.2.2,
,,,,,,,,,,,,,,,,,,,,,,,,98,557,Invalid,noise,-45,2,0.10366299992892891,1,2.0,1.4123509000055492,True,1,29,A,2023-11-06_10h43.49.336,exp3,2022.2.2,
,,,,,,,,,,,,,,,,,,,,,,,,99,1716,Valid,signal,45,2,0.17551520001143217,0,2.0,1.4844113000435755,True,1,29,A,2023-11-06_10h43.49.336,exp3,2022.2.2,
,,,,,,,,,,,,,,,,,,,,,,,,100,-2274,Valid,signal,-45,2,0.1302821000572294,0,2.0,1.4393919000867754,True,1,29,A,2023-11-06_10h43.49.336,exp3,2022.2.2,
,,,,,,,,,,,,,,,,,,,,,,,,101,1158,Invalid,signal,45,2,0.22545640007592738,0,2.0,1.5343721999088302,True,1,29,A,2023-11-06_10h43.49.336,exp3,2022.2.2,
,,,,,,,,,,,,,,,,,,,,,,,,102,-557,Valid,noise,45,2,0.3368453999282792,1,2.0,1.6458507999777794,True,1,29,A,2023-11-06_10h43.49.336,exp3,2022.2.2,
,,,,,,,,,,,,,,,,,,,,,,,,103,2274,Valid,signal,-45,1,0.7437276000855491,1,2.0,2.053159700008109,True,1,29,A,2023-11-06_10h43.49.336,exp3,2022.2.2,
,,,,,,,,,,,,,,,,,,,,,,,,104,1158,Valid,signal,-45,1,0.2293701000744477,1,2.0,1.5378828999819234,True,1,29,A,2023-11-06_10h43.49.336,exp3,2022.2.2,
,,,,,,,,,,,,,,,,,,,,,,,,105,-557,Invalid,noise,-45,1,0.2753722999477759,0,2.0,1.5852972000138834,True,1,29,A,2023-11-06_10h43.49.336,exp3,2022.2.2,
,,,,,,,,,,,,,,,,,,,,,,,,106,557,Invalid,signal,45,1,0.43461090000346303,1,2.0,3.2977149999933317,True,2,29,A,2023-11-06_10h43.49.336,exp3,2022.2.2,
,,,,,,,,,,,,,,,,,,,,,,,,107,-2274,Valid,noise,45,1,0.09955830010585487,0,2.0,1.4079528000438586,True,1,29,A,2023-11-06_10h43.49.336,exp3,2022.2.2,
,,,,,,,,,,,,,,,,,,,,,,,,108,-2274,Valid,signal,-45,1,0.057286800001747906,1,2.0,1.3658432000083849,True,1,29,A,2023-11-06_10h43.49.336,exp3,2022.2.2,
,,,,,,,,,,,,,,,,,,,,,,,,109,-1716,Valid,noise,-45,1,0.5029635999817401,0,2.0,1.8114831999409944,True,1,29,A,2023-11-06_10h43.49.336,exp3,2022.2.2,
,,,,,,,,,,,,,,,,,,,,,,,,110,1716,Valid,noise,-45,2,0.8188918000087142,1,2.0,3.506017200066708,True,2,29,A,2023-11-06_10h43.49.336,exp3,2022.2.2,
,,,,,,,,,,,,,,,,,,,,,,,,111,2274,Valid,signal,-45,1,0.1330893998965621,1,2.0,1.4414323999080807,True,1,29,A,2023-11-06_10h43.49.336,exp3,2022.2.2,
,,,,,,,,,,,,,,,,,,,,,,,,112,-2274,Valid,signal,-45,2,0.6639977999730036,0,2.0,1.9727980999741703,True,1,29,A,2023-11-06_10h43.49.336,exp3,2022.2.2,
,,,,,,,,,,,,,,,,,,,,,,,,113,2274,Valid,noise,-45,1,0.27606619999278337,0,2.0,1.5843218999216333,True,1,29,A,2023-11-06_10h43.49.336,exp3,2022.2.2,
,,,,,,,,,,,,,,,,,,,,,,,,114,-2274,Valid,signal,-45,2,0.19928719999734312,0,2.0,1.507603200036101,True,1,29,A,2023-11-06_10h43.49.336,exp3,2022.2.2,
,,,,,,,,,,,,,,,,,,,,,,,,115,1158,Valid,signal,-45,1,0.13347909995354712,1,2.0,1.4408333000028506,True,1,29,A,2023-11-06_10h43.49.336,exp3,2022.2.2,
,,,,,,,,,,,,,,,,,,,,,,,,116,-557,Invalid,signal,45,2,1.756534699932672,0,2.0,3.0651713999686763,True,1,29,A,2023-11-06_10h43.49.336,exp3,2022.2.2,
,,,,,,,,,,,,,,,,,,,,,,,,117,2274,Valid,noise,-45,1,0.31790769996587187,0,2.0,1.6262578000314534,True,1,29,A,2023-11-06_10h43.49.336,exp3,2022.2.2,
,,,,,,,,,,,,,,,,,,,,,,,,118,557,Valid,noise,45,2,0.10152150003705174,1,2.0,1.4107244999613613,True,1,29,A,2023-11-06_10h43.49.336,exp3,2022.2.2,
,,,,,,,,,,,,,,,,,,,,,,,,119,-2274,Valid,signal,-45,1,0.8230451999697834,1,2.0,2.1326756000053138,True,1,29,A,2023-11-06_10h43.49.336,exp3,2022.2.2,
,,,,,,,,,,,,,,,,,,,,,,,,120,-1158,Valid,signal,-45,2,0.4031023000134155,0,2.0,1.712029599933885,True,1,29,A,2023-11-06_10h43.49.336,exp3,2022.2.2,
,,,,,,,,,,,,,,,,,,,,,,,,121,557,Valid,noise,45,1,0.21303230000194162,0,2.0,1.5217575000133365,True,1,29,A,2023-11-06_10h43.49.336,exp3,2022.2.2,
,,,,,,,,,,,,,,,,,,,,,,,,122,1716,Invalid,noise,-45,1,0.3459180999780074,0,2.0,1.6540416000643745,True,1,29,A,2023-11-06_10h43.49.336,exp3,2022.2.2,
,,,,,,,,,,,,,,,,,,,,,,,,123,1158,Valid,signal,45,1,0.2622446999885142,1,2.0,1.5707925000460818,True,1,29,A,2023-11-06_10h43.49.336,exp3,2022.2.2,
,,,,,,,,,,,,,,,,,,,,,,,,124,-2274,Valid,signal,45,1,0.21057980007026345,1,2.0,1.5191337999422103,True,1,29,A,2023-11-06_10h43.49.336,exp3,2022.2.2,
,,,,,,,,,,,,,,,,,,,,,,,,125,-557,Valid,noise,-45,2,0.1333125000819564,1,2.0,1.4414781000232324,True,1,29,A,2023-11-06_10h43.49.336,exp3,2022.2.2,
,,,,,,,,,,,,,,,,,,,,,,,,126,-1158,Invalid,noise,45,1,0.07078159996308386,0,2.0,1.3795221999753267,True,1,29,A,2023-11-06_10h43.49.336,exp3,2022.2.2,
,,,,,,,,,,,,,,,,,,,,,,,,127,1158,Valid,signal,-45,2,0.20464709994848818,0,2.0,1.5122867999598384,True,1,29,A,2023-11-06_10h43.49.336,exp3,2022.2.2,
,,,,,,,,,,,,,,,,,,,,,,,,128,-1716,Invalid,noise,45,1,0.7220724000362679,0,2.0,2.0308312999550253,True,1,29,A,2023-11-06_10h43.49.336,exp3,2022.2.2,
,,,,,,,,,,,,,,,,,,,,,,,,129,-1716,Valid,signal,45,2,0.3534920000238344,0,2.0,1.6618377000559121,True,1,29,A,2023-11-06_10h43.49.336,exp3,2022.2.2,
,,,,,,,,,,,,,,,,,,,,,,,,130,2274,Invalid,signal,-45,1,0.3429725000169128,1,2.0,1.6512621000874788,True,1,29,A,2023-11-06_10h43.49.336,exp3,2022.2.2,
,,,,,,,,,,,,,,,,,,,,,,,,131,1716,Valid,signal,-45,1,0.42235080001410097,1,2.0,1.730701999971643,True,1,29,A,2023-11-06_10h43.49.336,exp3,2022.2.2,
,,,,,,,,,,,,,,,,,,,,,,,,132,-1716,Valid,signal,45,1,0.3102995000081137,1,2.0,1.6187145999865606,True,1,29,A,2023-11-06_10h43.49.336,exp3,2022.2.2,
,,,,,,,,,,,,,,,,,,,,,,,,133,1716,Valid,noise,-45,1,0.35667030001059175,0,2.0,1.6649357000133023,True,1,29,A,2023-11-06_10h43.49.336,exp3,2022.2.2,
,,,,,,,,,,,,,,,,,,,,,,,,134,-1716,Valid,noise,45,1,0.14756519999355078,0,2.0,1.4562468000221997,True,1,29,A,2023-11-06_10h43.49.336,exp3,2022.2.2,
,,,,,,,,,,,,,,,,,,,,,,,,135,1716,Valid,signal,-45,1,0.19300589989870787,1,2.0,1.5012978999875486,True,1,29,A,2023-11-06_10h43.49.336,exp3,2022.2.2,
,,,,,,,,,,,,,,,,,,,,,,,,136,557,Valid,noise,-45,1,0.18959429999813437,0,2.0,1.4981076000258327,True,1,29,A,2023-11-06_10h43.49.336,exp3,2022.2.2,
,,,,,,,,,,,,,,,,,,,,,,,,137,-1716,Valid,noise,-45,1,1.8036557999439538,0,2.0,3.1114861000096425,True,1,29,A,2023-11-06_10h43.49.336,exp3,2022.2.2,
,,,,,,,,,,,,,,,,,,,,,,,,138,-2274,Invalid,noise,45,1,1.3859449001029134,0,2.0,2.694151100004092,True,1,29,A,2023-11-06_10h43.49.336,exp3,2022.2.2,
,,,,,,,,,,,,,,,,,,,,,,,,139,-2274,Valid,noise,-45,1,0.4457906000316143,0,2.0,1.7541240999707952,True,1,29,A,2023-11-06_10h43.49.336,exp3,2022.2.2,
,,,,,,,,,,,,,,,,,,,,,,,,140,557,Valid,noise,-45,1,0.2645429000258446,0,2.0,1.5729029999347404,True,1,29,A,2023-11-06_10h43.49.336,exp3,2022.2.2,
,,,,,,,,,,,,,,,,,,,,,,,,141,1158,Valid,noise,-45,1,0.3114874000893906,0,2.0,1.6197068999754265,True,1,29,A,2023-11-06_10h43.49.336,exp3,2022.2.2,
,,,,,,,,,,,,,,,,,,,,,,,,142,-1158,Valid,noise,-45,1,0.20221180003136396,0,2.0,1.5105358000146225,True,1,29,A,2023-11-06_10h43.49.336,exp3,2022.2.2,
,,,,,,,,,,,,,,,,,,,,,,,,143,557,Valid,signal,-45,1,0.946142999920994,1,2.0,2.2541346000507474,True,1,29,A,2023-11-06_10h43.49.336,exp3,2022.2.2,
,,,,,,,,,,,,,,,,,,,,,,,,144,-1158,Valid,noise,45,1,1.069774700095877,0,2.0,2.3788788999663666,True,1,29,A,2023-11-06_10h43.49.336,exp3,2022.2.2,
,,,,,,,,,,,,,,,,,,,,,,,,145,-1158,Valid,noise,-45,1,0.5145233999937773,0,2.0,1.8232124000787735,True,1,29,A,2023-11-06_10h43.49.336,exp3,2022.2.2,
,,,,,,,,,,,,,,,,,,,,,,,,146,-1716,Valid,signal,-45,1,0.08002240001223981,1,2.0,1.3884897000389174,True,1,29,A,2023-11-06_10h43.49.336,exp3,2022.2.2,
,,,,,,,,,,,,,,,,,,,,,,,,147,1158,Invalid,signal,45,1,0.10011550004128367,1,2.0,1.408778200042434,True,1,29,A,2023-11-06_10h43.49.336,exp3,2022.2.2,
,,,,,,,,,,,,,,,,,,,,,,,,148,1158,Valid,noise,-45,1,0.1371774000581354,0,2.0,1.4453473000321537,True,1,29,A,2023-11-06_10h43.49.336,exp3,2022.2.2,
,,,,,,,,,,,,,,,,,,,,,,,,149,1716,Invalid,signal,-45,1,0.25449660001322627,1,2.0,1.5632584999548271,True,1,29,A,2023-11-06_10h43.49.336,exp3,2022.2.2,
,,,,,,,,,,,,,,,,,,,,,,,,150,1158,Valid,noise,45,1,0.1235473999986425,0,2.0,1.4321627999888733,True,1,29,A,2023-11-06_10h43.49.336,exp3,2022.2.2,
,,,,,,,,,,,,,,,,,,,,,,,,151,2274,Valid,noise,45,1,0.05305910005699843,0,2.0,1.3623465000418946,True,1,29,A,2023-11-06_10h43.49.336,exp3,2022.2.2,
,,,,,,,,,,,,,,,,,,,,,,,,152,557,Valid,signal,45,1,0.17546339996624738,1,2.0,1.4836171999340877,True,1,29,A,2023-11-06_10h43.49.336,exp3,2022.2.2,
,,,,,,,,,,,,,,,,,,,,,,,,153,-1158,Valid,signal,-45,1,0.1089090999448672,1,2.0,1.4171672000084072,True,1,29,A,2023-11-06_10h43.49.336,exp3,2022.2.2,
,,,,,,,,,,,,,,,,,,,,,,,,154,-1158,Invalid,noise,-45,1,0.16623950004577637,0,2.0,1.4746750999474898,True,1,29,A,2023-11-06_10h43.49.336,exp3,2022.2.2,
,,,,,,,,,,,,,,,,,,,,,,,,155,-1158,Valid,signal,-45,1,0.31226779997814447,1,2.0,1.6209464999847114,True,1,29,A,2023-11-06_10h43.49.336,exp3,2022.2.2,
,,,,,,,,,,,,,,,,,,,,,,,,156,2274,Invalid,noise,45,1,0.6567160000558943,0,2.0,3.2948107999982312,True,2,29,A,2023-11-06_10h43.49.336,exp3,2022.2.2,
,,,,,,,,,,,,,,,,,,,,,,,,157,557,Invalid,noise,45,1,0.31107779999729246,0,2.0,1.6192859000293538,True,1,29,A,2023-11-06_10h43.49.336,exp3,2022.2.2,
,,,,,,,,,,,,,,,,,,,,,,,,158,-557,Valid,noise,45,1,0.3013566000154242,0,2.0,1.610285000060685,True,1,29,A,2023-11-06_10h43.49.336,exp3,2022.2.2,
,,,,,,,,,,,,,,,,,,,,,,,,159,-1158,Valid,noise,-45,1,0.1098413000581786,0,2.0,1.418458899948746,True,1,29,A,2023-11-06_10h43.49.336,exp3,2022.2.2,
,,,,,,,,,,,,,,,,,,,,,,,,160,1716,Valid,signal,-45,1,0.4003556000534445,1,2.0,3.2328158000018448,True,2,29,A,2023-11-06_10h43.49.336,exp3,2022.2.2,
,,,,,,,,,,,,,,,,,,,,,,,,161,-1158,Invalid,signal,45,1,0.24181239993777126,1,2.0,4.631053299992345,True,3,29,A,2023-11-06_10h43.49.336,exp3,2022.2.2,
,,,,,,,,,,,,,,,,,,,,,,,,162,1716,Valid,noise,-45,1,0.24288239993620664,0,2.0,1.5515272000338882,True,1,29,A,2023-11-06_10h43.49.336,exp3,2022.2.2,
,,,,,,,,,,,,,,,,,,,,,,,,163,-557,Valid,signal,45,1,0.3683397000422701,1,2.0,4.5468679999466985,True,2,29,A,2023-11-06_10h43.49.336,exp3,2022.2.2,
,,,,,,,,,,,,,,,,,,,,,,,,164,-1716,Valid,signal,45,1,0.4382826000219211,1,2.0,1.7469854999799281,True,1,29,A,2023-11-06_10h43.49.336,exp3,2022.2.2,
,,,,,,,,,,,,,,,,,,,,,,,,165,-2274,Valid,noise,-45,1,0.45090409996919334,0,2.0,3.218510500038974,True,2,29,A,2023-11-06_10h43.49.336,exp3,2022.2.2,
,,,,,,,,,,,,,,,,,,,,,,,,166,-2274,Valid,noise,45,1,0.7426784000126645,0,2.0,5.3995609999401495,True,3,29,A,2023-11-06_10h43.49.336,exp3,2022.2.2,
,,,,,,,,,,,,,,,,,,,,,,,,167,-1716,Valid,noise,-45,1,0.4275307999923825,0,2.0,1.7366889999248087,True,1,29,A,2023-11-06_10h43.49.336,exp3,2022.2.2,
,,,,,,,,,,,,,,,,,,,,,,,,168,1716,Valid,noise,-45,1,0.32874919997993857,0,2.0,1.6368630999932066,True,1,29,A,2023-11-06_10h43.49.336,exp3,2022.2.2,
,,,,,,,,,,,,,,,,,,,,,,,,169,2274,Valid,signal,-45,1,0.3269916999852285,1,2.0,1.635415600030683,True,1,29,A,2023-11-06_10h43.49.336,exp3,2022.2.2,
,,,,,,,,,,,,,,,,,,,,,,,,170,-1158,Valid,signal,-45,1,0.21456280001439154,1,2.0,1.5232491999631748,True,1,29,A,2023-11-06_10h43.49.336,exp3,2022.2.2,
,,,,,,,,,,,,,,,,,,,,,,,,171,1716,Valid,signal,45,1,1.620488899992779,1,2.0,2.9291626000776887,True,1,29,A,2023-11-06_10h43.49.336,exp3,2022.2.2,
,,,,,,,,,,,,,,,,,,,,,,,,172,557,Valid,signal,45,1,0.239302400033921,1,2.0,2.9614471999229863,True,2,29,A,2023-11-06_10h43.49.336,exp3,2022.2.2,
,,,,,,,,,,,,,,,,,,,,,,,,173,2274,Invalid,noise,45,1,0.1901082000695169,0,2.0,1.4984176999423653,True,1,29,A,2023-11-06_10h43.49.336,exp3,2022.2.2,
,,,,,,,,,,,,,,,,,,,,,,,,174,-2274,Valid,signal,45,1,0.15937520004808903,1,2.0,1.4677009000442922,True,1,29,A,2023-11-06_10h43.49.336,exp3,2022.2.2,
,,,,,,,,,,,,,,,,,,,,,,,,175,557,Valid,noise,-45,1,0.23170799994841218,0,2.0,1.5400743999052793,True,1,29,A,2023-11-06_10h43.49.336,exp3,2022.2.2,
,,,,,,,,,,,,,,,,,,,,,,,,176,-1716,Invalid,signal,-45,1,0.08360419992823154,1,2.0,1.394486999954097,True,1,29,A,2023-11-06_10h43.49.336,exp3,2022.2.2,
,,,,,,,,,,,,,,,,,,,,,,,,2,-1158,Valid,noise,45,2,2.253341299947351,1,2.0,3.5619448999641463,True,1,29,A,2023-11-06_10h43.49.336,exp3,2022.2.2,
,,,,,,,,,,,,,,,,,,,,,,,,4,1716,Valid,noise,45,2,0.47055780002847314,1,2.0,1.7792401999467984,True,1,29,A,2023-11-06_10h43.49.336,exp3,2022.2.2,
,,,,,,,,,,,,,,,,,,,,,,,,6,-1716,Valid,noise,-45,2,0.39221489999908954,1,2.0,1.7011319999583066,True,1,29,A,2023-11-06_10h43.49.336,exp3,2022.2.2,
,,,,,,,,,,,,,,,,,,,,,,,,8,1158,Valid,noise,45,2,0.3494437999324873,1,2.0,1.6585296000121161,True,1,29,A,2023-11-06_10h43.49.336,exp3,2022.2.2,
,,,,,,,,,,,,,,,,,,,,,,,,10,-557,Valid,noise,-45,2,1.0512694000499323,1,2.0,2.360423499951139,True,1,29,A,2023-11-06_10h43.49.336,exp3,2022.2.2,
,,,,,,,,,,,,,,,,,,,,,,,,12,1716,Valid,signal,45,2,1.1870526999700814,0,2.0,2.4959911999758333,True,1,29,A,2023-11-06_10h43.49.336,exp3,2022.2.2,
,,,,,,,,,,,,,,,,,,,,,,,,14,557,Valid,noise,-45,2,0.35048669995740056,1,2.0,1.6592019000090659,True,1,29,A,2023-11-06_10h43.49.336,exp3,2022.2.2,
,,,,,,,,,,,,,,,,,,,,,,,,16,557,Valid,signal,-45,2,0.052438999991863966,0,2.0,1.3612739000236616,True,1,29,A,2023-11-06_10h43.49.336,exp3,2022.2.2,
,,,,,,,,,,,,,,,,,,,,,,,,18,-2274,Valid,signal,-45,2,0.19068810006137937,0,2.0,1.4993928000330925,True,1,29,A,2023-11-06_10h43.49.336,exp3,2022.2.2,
,,,,,,,,,,,,,,,,,,,,,,,,20,2274,Valid,signal,45,2,0.24127990007400513,0,2.0,1.550544900004752,True,1,29,A,2023-11-06_10h43.49.336,exp3,2022.2.2,
,,,,,,,,,,,,,,,,,,,,,,,,22,557,Invalid,noise,45,2,0.6485945000313222,1,2.0,1.957342299981974,True,1,29,A,2023-11-06_10h43.49.336,exp3,2022.2.2,
,,,,,,,,,,,,,,,,,,,,,,,,24,2274,Invalid,signal,-45,2,1.2526358000468463,0,2.0,2.562311799963936,True,1,29,A,2023-11-06_10h43.49.336,exp3,2022.2.2,
,,,,,,,,,,,,,,,,,,,,,,,,26,-557,Invalid,noise,45,2,0.26919729996006936,1,2.0,1.578013600083068,True,1,29,A,2023-11-06_10h43.49.336,exp3,2022.2.2,
,,,,,,,,,,,,,,,,,,,,,,,,28,-557,Valid,signal,-45,2,0.21553309995215386,0,2.0,1.5242379000410438,True,1,29,A,2023-11-06_10h43.49.336,exp3,2022.2.2,
,,,,,,,,,,,,,,,,,,,,,,,,30,2274,Valid,signal,-45,2,0.11676560004707426,0,2.0,1.4255491000367329,True,1,29,A,2023-11-06_10h43.49.336,exp3,2022.2.2,
,,,,,,,,,,,,,,,,,,,,,,,,32,-557,Valid,noise,-45,2,0.22859009995590895,1,2.0,1.5376991000957787,True,1,29,A,2023-11-06_10h43.49.336,exp3,2022.2.2,
,,,,,,,,,,,,,,,,,,,,,,,,34,-557,Invalid,signal,-45,2,0.11871499998960644,0,2.0,1.427607599995099,True,1,29,A,2023-11-06_10h43.49.336,exp3,2022.2.2,
,,,,,,,,,,,,,,,,,,,,,,,,36,-1158,Valid,noise,-45,2,0.3880751000251621,1,2.0,1.6965801999904215,True,1,29,A,2023-11-06_10h43.49.336,exp3,2022.2.2,
,,,,,,,,,,,,,,,,,,,,,,,,38,-557,Valid,noise,-45,2,0.3359679999994114,1,2.0,1.645031400024891,True,1,29,A,2023-11-06_10h43.49.336,exp3,2022.2.2,
,,,,,,,,,,,,,,,,,,,,,,,,40,557,Valid,signal,-45,2,0.22039360005874187,0,2.0,1.5290811999002472,True,1,29,A,2023-11-06_10h43.49.336,exp3,2022.2.2,
,,,,,,,,,,,,,,,,,,,,,,,,42,2274,Valid,noise,45,2,1.1071591000072658,1,2.0,2.416079999995418,True,1,29,A,2023-11-06_10h43.49.336,exp3,2022.2.2,
,,,,,,,,,,,,,,,,,,,,,,,,44,-1158,Valid,signal,-45,2,0.40992610005196184,0,2.0,1.7187731999438256,True,1,29,A,2023-11-06_10h43.49.336,exp3,2022.2.2,
,,,,,,,,,,,,,,,,,,,,,,,,46,1716,Valid,signal,45,2,0.19904390000738204,0,2.0,1.5077049999963492,True,1,29,A,2023-11-06_10h43.49.336,exp3,2022.2.2,
,,,,,,,,,,,,,,,,,,,,,,,,48,2274,Invalid,noise,45,2,0.18365160003304482,1,2.0,1.492824999964796,True,1,29,A,2023-11-06_10h43.49.336,exp3,2022.2.2,
,,,,,,,,,,,,,,,,,,,,,,,,50,1716,Valid,noise,-45,2,0.2266277999151498,1,2.0,1.5353553000604734,True,1,29,A,2023-11-06_10h43.49.336,exp3,2022.2.2,
,,,,,,,,,,,,,,,,,,,,,,,,52,-2274,Valid,signal,45,2,0.2068447999190539,0,2.0,1.5164976000087336,True,1,29,A,2023-11-06_10h43.49.336,exp3,2022.2.2,
,,,,,,,,,,,,,,,,,,,,,,,,54,2274,Valid,signal,45,2,0.2221698999637738,0,2.0,1.5314659000141546,True,1,29,A,2023-11-06_10h43.49.336,exp3,2022.2.2,
,,,,,,,,,,,,,,,,,,,,,,,,56,1158,Invalid,signal,-45,2,0.5712879999773577,0,2.0,6.597309999982826,True,3,29,A,2023-11-06_10h43.49.336,exp3,2022.2.2,
,,,,,,,,,,,,,,,,,,,,,,,,58,1716,Valid,signal,45,1,0.1646387999644503,1,2.0,1.4733398000244051,True,1,29,A,2023-11-06_10h43.49.336,exp3,2022.2.2,
,,,,,,,,,,,,,,,,,,,,,,,,60,2274,Valid,noise,-45,1,0.2291473998920992,0,2.0,1.5383986999513581,True,1,29,A,2023-11-06_10h43.49.336,exp3,2022.2.2,
,,,,,,,,,,,,,,,,,,,,,,,,62,-1158,Valid,signal,-45,1,0.08006700000260025,1,2.0,1.3886300000594929,True,1,29,A,2023-11-06_10h43.49.336,exp3,2022.2.2,
,,,,,,,,,,,,,,,,,,,,,,,,64,-2274,Valid,noise,45,1,0.2557220000308007,0,2.0,1.5644611000316218,True,1,29,A,2023-11-06_10h43.49.336,exp3,2022.2.2,
,,,,,,,,,,,,,,,,,,,,,,,,66,-2274,Valid,noise,45,1,0.05877060000784695,0,2.0,1.3679244999075308,True,1,29,A,2023-11-06_10h43.49.336,exp3,2022.2.2,
,,,,,,,,,,,,,,,,,,,,,,,,68,1716,Valid,signal,45,2,0.5409291000105441,0,2.0,8.87551819998771,True,4,29,A,2023-11-06_10h43.49.336,exp3,2022.2.2,
,,,,,,,,,,,,,,,,,,,,,,,,70,-1158,Invalid,signal,-45,1,0.8369837999343872,1,2.0,2.145618399954401,True,1,29,A,2023-11-06_10h43.49.336,exp3,2022.2.2,
,,,,,,,,,,,,,,,,,,,,,,,,72,-1716,Valid,signal,-45,2,0.29901499999687076,0,2.0,1.6077647999627516,True,1,29,A,2023-11-06_10h43.49.336,exp3,2022.2.2,
,,,,,,,,,,,,,,,,,,,,,,,,74,1716,Valid,noise,45,2,0.6427725000539795,1,2.0,1.9518278000177816,True,1,29,A,2023-11-06_10h43.49.336,exp3,2022.2.2,
,,,,,,,,,,,,,,,,,,,,,,,,76,-1716,Valid,signal,45,2,0.7927492000162601,0,2.0,2.101594200008549,True,1,29,A,2023-11-06_10h43.49.336,exp3,2022.2.2,
,,,,,,,,,,,,,,,,,,,,,,,,78,-1716,Valid,noise,-45,2,0.4058064999990165,1,2.0,1.7143605999881402,True,1,29,A,2023-11-06_10h43.49.336,exp3,2022.2.2,
,,,,,,,,,,,,,,,,,,,,,,,,80,557,Valid,noise,45,2,0.3106647999957204,1,2.0,1.6191449000034481,True,1,29,A,2023-11-06_10h43.49.336,exp3,2022.2.2,
,,,,,,,,,,,,,,,,,,,,,,,,82,1716,Valid,noise,45,2,0.3256442000856623,1,2.0,1.634297400014475,True,1,29,A,2023-11-06_10h43.49.336,exp3,2022.2.2,
,,,,,,,,,,,,,,,,,,,,,,,,84,-2274,Valid,noise,45,2,0.21438879997003824,1,2.0,1.5233176000183448,True,1,29,A,2023-11-06_10h43.49.336,exp3,2022.2.2,
,,,,,,,,,,,,,,,,,,,,,,,,86,557,Valid,signal,45,2,0.14802969992160797,0,2.0,1.456676899921149,True,1,29,A,2023-11-06_10h43.49.336,exp3,2022.2.2,
