trials.label,trials.startVal,trials.maxVal,trials.minVal,trials.startValSd,trials.pthreshold,trials.beta,trials.delta,trials.gamma,trials.grain,trials.stepSize,trials.range,trials.cue,trials.thisIndex,trials.thisRepN,trials.thisN,trials.direction,trials.stepType,trials.intensity,signalOpacity,stair_response_correct,level,trials.response,stair_eye_ok,nTrial,position,validity,Stimulus,orientation,response_key,response_rt,response_correct,confidence,confidence_rt,eye_ok,trial_rep,participant,session,date,expName,psychopyVersion,
high_opac_v,0.01,1,0.01,3,0.82,3.5,0.01,0,0.01,4,5,Valid,1,1,0,start,lin,0.01,0.01,1,0.01,1,True,,,,,,,,,,,,,24,A,2023-09-20_08h27.09.144,exp3,2022.2.2,
low_opac_v,0.4,1,0.01,3,0.82,3.5,0.01,0,0.01,4,5,Valid,0,1,1,start,lin,0.4,0,1,0.4,1,True,,,,,,,,,,,,,24,A,2023-09-20_08h27.09.144,exp3,2022.2.2,
low_opac_i,0.4,1,0.01,3,0.82,3.5,0.01,0,0.01,4,5,Invalid,2,1,2,start,lin,0.4,0.4,0,0.4,0,True,,,,,,,,,,,,,24,A,2023-09-20_08h27.09.144,exp3,2022.2.2,
low_opac_i,0.4,1,0.01,3,0.82,3.5,0.01,0,0.01,4,5,Invalid,2,2,3,start,lin,1,1,0,1,0,True,,,,,,,,,,,,,24,A,2023-09-20_08h27.09.144,exp3,2022.2.2,
low_opac_v,0.4,1,0.01,3,0.82,3.5,0.01,0,0.01,4,5,Valid,0,2,4,start,lin,0.01,0.01,0,0.01,0,True,,,,,,,,,,,,,24,A,2023-09-20_08h27.09.144,exp3,2022.2.2,
high_opac_v,0.01,1,0.01,3,0.82,3.5,0.01,0,0.01,4,5,Valid,1,2,5,start,lin,0.01,0,1,0.01,1,True,,,,,,,,,,,,,24,A,2023-09-20_08h27.09.144,exp3,2022.2.2,
low_opac_v,0.4,1,0.01,3,0.82,3.5,0.01,0,0.01,4,5,Valid,0,3,6,start,lin,0.3144098688205103,0.3144098688205103,1,0.3144098688205103,1,True,,,,,,,,,,,,,24,A,2023-09-20_08h27.09.144,exp3,2022.2.2,
high_opac_v,0.01,1,0.01,3,0.82,3.5,0.01,0,0.01,4,5,Valid,1,3,7,start,lin,0.01,0,0,0.01,0,True,,,,,,,,,,,,,24,A,2023-09-20_08h27.09.144,exp3,2022.2.2,
low_opac_i,0.4,1,0.01,3,0.82,3.5,0.01,0,0.01,4,5,Invalid,2,3,8,start,lin,1,1,0,1,0,True,,,,,,,,,,,,,24,A,2023-09-20_08h27.09.144,exp3,2022.2.2,
low_opac_i,0.4,1,0.01,3,0.82,3.5,0.01,0,0.01,4,5,Invalid,2,4,9,start,lin,1,1,0,1,0,True,,,,,,,,,,,,,24,A,2023-09-20_08h27.09.144,exp3,2022.2.2,
low_opac_v,0.4,1,0.01,3,0.82,3.5,0.01,0,0.01,4,5,Valid,0,4,10,start,lin,0.23561159539411833,0,0,0.23561159539411833,0,True,,,,,,,,,,,,,24,A,2023-09-20_08h27.09.144,exp3,2022.2.2,
high_opac_v,0.01,1,0.01,3,0.82,3.5,0.01,0,0.01,4,5,Valid,1,4,11,start,lin,0.01,0,0,0.01,0,True,,,,,,,,,,,,,24,A,2023-09-20_08h27.09.144,exp3,2022.2.2,
low_opac_v,0.4,1,0.01,3,0.82,3.5,0.01,0,0.01,4,5,Valid,0,5,12,start,lin,0.3667233836050213,0.3667233836050213,1,0.3667233836050213,1,True,,,,,,,,,,,,,24,A,2023-09-20_08h27.09.144,exp3,2022.2.2,
high_opac_v,0.01,1,0.01,3,0.82,3.5,0.01,0,0.01,4,5,Valid,1,5,13,start,lin,0.13502294484389696,0.13502294484389696,1,0.13502294484389696,1,True,,,,,,,,,,,,,24,A,2023-09-20_08h27.09.144,exp3,2022.2.2,
low_opac_i,0.4,1,0.01,3,0.82,3.5,0.01,0,0.01,4,5,Invalid,2,5,14,start,lin,1,0,0,1,0,True,,,,,,,,,,,,,24,A,2023-09-20_08h27.09.144,exp3,2022.2.2,
low_opac_v,0.4,1,0.01,3,0.82,3.5,0.01,0,0.01,4,5,Valid,0,6,15,start,lin,0.3380068496206079,0.3380068496206079,1,0.3380068496206079,1,True,,,,,,,,,,,,,24,A,2023-09-20_08h27.09.144,exp3,2022.2.2,
low_opac_i,0.4,1,0.01,3,0.82,3.5,0.01,0,0.01,4,5,Invalid,2,6,16,start,lin,1,0,0,1,0,True,,,,,,,,,,,,,24,A,2023-09-20_08h27.09.144,exp3,2022.2.2,
high_opac_v,0.01,1,0.01,3,0.82,3.5,0.01,0,0.01,4,5,Valid,1,6,17,start,lin,0.11063612980155542,0.11063612980155542,1,0.11063612980155542,1,True,,,,,,,,,,,,,24,A,2023-09-20_08h27.09.144,exp3,2022.2.2,
low_opac_i,0.4,1,0.01,3,0.82,3.5,0.01,0,0.01,4,5,Invalid,2,7,18,start,lin,1,0,0,1,0,True,,,,,,,,,,,,,24,A,2023-09-20_08h27.09.144,exp3,2022.2.2,
high_opac_v,0.01,1,0.01,3,0.82,3.5,0.01,0,0.01,4,5,Valid,1,7,19,start,lin,0.09185663993836213,0.09185663993836213,1,0.09185663993836213,1,True,,,,,,,,,,,,,24,A,2023-09-20_08h27.09.144,exp3,2022.2.2,
low_opac_v,0.4,1,0.01,3,0.82,3.5,0.01,0,0.01,4,5,Valid,0,7,20,start,lin,0.31625773406172786,0,0,0.31625773406172786,0,True,,,,,,,,,,,,,24,A,2023-09-20_08h27.09.144,exp3,2022.2.2,
low_opac_v,0.4,1,0.01,3,0.82,3.5,0.01,0,0.01,4,5,Valid,0,8,21,start,lin,0.3780111959440348,0.3780111959440348,1,0.3780111959440348,1,True,,,,,,,,,,,,,24,A,2023-09-20_08h27.09.144,exp3,2022.2.2,
high_opac_v,0.01,1,0.01,3,0.82,3.5,0.01,0,0.01,4,5,Valid,1,8,22,start,lin,0.07642233336863379,0.07642233336863379,1,0.07642233336863379,1,True,,,,,,,,,,,,,24,A,2023-09-20_08h27.09.144,exp3,2022.2.2,
low_opac_i,0.4,1,0.01,3,0.82,3.5,0.01,0,0.01,4,5,Invalid,2,8,23,start,lin,1,0,0,1,0,True,,,,,,,,,,,,,24,A,2023-09-20_08h27.09.144,exp3,2022.2.2,
low_opac_v,0.4,1,0.01,3,0.82,3.5,0.01,0,0.01,4,5,Valid,0,9,24,start,lin,0.3638891141709189,0,1,0.3638891141709189,1,True,,,,,,,,,,,,,24,A,2023-09-20_08h27.09.144,exp3,2022.2.2,
high_opac_v,0.01,1,0.01,3,0.82,3.5,0.01,0,0.01,4,5,Valid,1,9,25,start,lin,0.06370293198626409,0.06370293198626409,1,0.06370293198626409,1,True,,,,,,,,,,,,,24,A,2023-09-20_08h27.09.144,exp3,2022.2.2,
low_opac_i,0.4,1,0.01,3,0.82,3.5,0.01,0,0.01,4,5,Invalid,2,9,26,start,lin,1,1,0,1,0,True,,,,,,,,,,,,,24,A,2023-09-20_08h27.09.144,exp3,2022.2.2,
low_opac_i,0.4,1,0.01,3,0.82,3.5,0.01,0,0.01,4,5,Invalid,2,10,27,start,lin,1,0,0,1,0,True,,,,,,,,,,,,,24,A,2023-09-20_08h27.09.144,exp3,2022.2.2,
high_opac_v,0.01,1,0.01,3,0.82,3.5,0.01,0,0.01,4,5,Valid,1,10,28,start,lin,0.05168557720398083,0.05168557720398083,1,0.05168557720398083,1,True,,,,,,,,,,,,,24,A,2023-09-20_08h27.09.144,exp3,2022.2.2,
low_opac_v,0.4,1,0.01,3,0.82,3.5,0.01,0,0.01,4,5,Valid,0,10,29,start,lin,0.3513735765743195,0.3513735765743195,1,0.3513735765743195,1,True,,,,,,,,,,,,,24,A,2023-09-20_08h27.09.144,exp3,2022.2.2,
low_opac_i,0.4,1,0.01,3,0.82,3.5,0.01,0,0.01,4,5,Invalid,2,11,30,start,lin,1,0,1,1,1,True,,,,,,,,,,,,,24,A,2023-09-20_08h27.09.144,exp3,2022.2.2,
low_opac_v,0.4,1,0.01,3,0.82,3.5,0.01,0,0.01,4,5,Valid,0,11,31,start,lin,0.3406177413211803,0.3406177413211803,1,0.3406177413211803,1,True,,,,,,,,,,,,,24,A,2023-09-20_08h27.09.144,exp3,2022.2.2,
high_opac_v,0.01,1,0.01,3,0.82,3.5,0.01,0,0.01,4,5,Valid,1,11,32,start,lin,0.04080994319705585,0.04080994319705585,0,0.04080994319705585,0,True,,,,,,,,,,,,,24,A,2023-09-20_08h27.09.144,exp3,2022.2.2,
low_opac_v,0.4,1,0.01,3,0.82,3.5,0.01,0,0.01,4,5,Valid,0,12,33,start,lin,0.3310362946843117,0,1,0.3310362946843117,1,True,,,,,,,,,,,,,24,A,2023-09-20_08h27.09.144,exp3,2022.2.2,
low_opac_i,0.4,1,0.01,3,0.82,3.5,0.01,0,0.01,4,5,Invalid,2,12,34,start,lin,1,1,0,1,0,True,,,,,,,,,,,,,24,A,2023-09-20_08h27.09.144,exp3,2022.2.2,
high_opac_v,0.01,1,0.01,3,0.82,3.5,0.01,0,0.01,4,5,Valid,1,12,35,start,lin,0.0766046583411357,0,0,0.0766046583411357,0,True,,,,,,,,,,,,,24,A,2023-09-20_08h27.09.144,exp3,2022.2.2,
low_opac_v,0.4,1,0.01,3,0.82,3.5,0.01,0,0.01,4,5,Valid,0,13,36,start,lin,0.3222668798572824,0.3222668798572824,0,0.3222668798572824,0,True,,,,,,,,,,,,,24,A,2023-09-20_08h27.09.144,exp3,2022.2.2,
high_opac_v,0.01,1,0.01,3,0.82,3.5,0.01,0,0.01,4,5,Valid,1,13,37,start,lin,0.10636920623061617,0,0,0.10636920623061617,0,True,,,,,,,,,,,,,24,A,2023-09-20_08h27.09.144,exp3,2022.2.2,
low_opac_i,0.4,1,0.01,3,0.82,3.5,0.01,0,0.01,4,5,Invalid,2,13,38,start,lin,1,0,1,1,1,True,,,,,,,,,,,,,24,A,2023-09-20_08h27.09.144,exp3,2022.2.2,
low_opac_v,0.4,1,0.01,3,0.82,3.5,0.01,0,0.01,4,5,Valid,0,14,39,start,lin,0.3517804075289159,0.3517804075289159,1,0.3517804075289159,1,True,,,,,,,,,,,,,24,A,2023-09-20_08h27.09.144,exp3,2022.2.2,
high_opac_v,0.01,1,0.01,3,0.82,3.5,0.01,0,0.01,4,5,Valid,1,14,40,start,lin,0.13414901433692242,0.13414901433692242,0,0.13414901433692242,0,True,,,,,,,,,,,,,24,A,2023-09-20_08h27.09.144,exp3,2022.2.2,
low_opac_i,0.4,1,0.01,3,0.82,3.5,0.01,0,0.01,4,5,Invalid,2,14,41,start,lin,1,1,0,1,0,True,,,,,,,,,,,,,24,A,2023-09-20_08h27.09.144,exp3,2022.2.2,
low_opac_v,0.4,1,0.01,3,0.82,3.5,0.01,0,0.01,4,5,Valid,0,15,42,start,lin,0.344779749584655,0.344779749584655,1,0.344779749584655,1,True,,,,,,,,,,,,,24,A,2023-09-20_08h27.09.144,exp3,2022.2.2,
low_opac_i,0.4,1,0.01,3,0.82,3.5,0.01,0,0.01,4,5,Invalid,2,15,43,start,lin,1,1,0,1,0,True,,,,,,,,,,,,,24,A,2023-09-20_08h27.09.144,exp3,2022.2.2,
high_opac_v,0.01,1,0.01,3,0.82,3.5,0.01,0,0.01,4,5,Valid,1,15,44,start,lin,0.1594204541754435,0,0,0.1594204541754435,0,True,,,,,,,,,,,,,24,A,2023-09-20_08h27.09.144,exp3,2022.2.2,
low_opac_v,0.4,1,0.01,3,0.82,3.5,0.01,0,0.01,4,5,Valid,0,16,45,start,lin,0.33813762628893085,0,1,0.33813762628893085,1,True,,,,,,,,,,,,,24,A,2023-09-20_08h27.09.144,exp3,2022.2.2,
low_opac_i,0.4,1,0.01,3,0.82,3.5,0.01,0,0.01,4,5,Invalid,2,16,46,start,lin,1,1,0,1,0,True,,,,,,,,,,,,,24,A,2023-09-20_08h27.09.144,exp3,2022.2.2,
high_opac_v,0.01,1,0.01,3,0.82,3.5,0.01,0,0.01,4,5,Valid,1,16,47,start,lin,0.18482653361939405,0,1,0.18482653361939405,1,True,,,,,,,,,,,,,24,A,2023-09-20_08h27.09.144,exp3,2022.2.2,
low_opac_i,0.4,1,0.01,3,0.82,3.5,0.01,0,0.01,4,5,Invalid,2,17,48,start,lin,1,1,1,1,1,True,,,,,,,,,,,,,24,A,2023-09-20_08h27.09.144,exp3,2022.2.2,
low_opac_v,0.4,1,0.01,3,0.82,3.5,0.01,0,0.01,4,5,Valid,0,17,49,start,lin,0.33228591789057194,0,1,0.33228591789057194,1,True,,,,,,,,,,,,,24,A,2023-09-20_08h27.09.144,exp3,2022.2.2,
high_opac_v,0.01,1,0.01,3,0.82,3.5,0.01,0,0.01,4,5,Valid,1,17,50,start,lin,0.17821654527779776,0.17821654527779776,1,0.17821654527779776,1,True,,,,,,,,,,,,,24,A,2023-09-20_08h27.09.144,exp3,2022.2.2,
low_opac_v,0.4,1,0.01,3,0.82,3.5,0.01,0,0.01,4,5,Valid,0,18,51,start,lin,0.3265631471399203,0.3265631471399203,1,0.3265631471399203,1,True,,,,,,,,,,,,,24,A,2023-09-20_08h27.09.144,exp3,2022.2.2,
high_opac_v,0.01,1,0.01,3,0.82,3.5,0.01,0,0.01,4,5,Valid,1,18,52,start,lin,0.17252871245994875,0.17252871245994875,1,0.17252871245994875,1,True,,,,,,,,,,,,,24,A,2023-09-20_08h27.09.144,exp3,2022.2.2,
low_opac_i,0.4,1,0.01,3,0.82,3.5,0.01,0,0.01,4,5,Invalid,2,18,53,start,lin,1,1,0,1,0,True,,,,,,,,,,,,,24,A,2023-09-20_08h27.09.144,exp3,2022.2.2,
low_opac_v,0.4,1,0.01,3,0.82,3.5,0.01,0,0.01,4,5,Valid,0,19,54,start,lin,0.32143083784686777,0.32143083784686777,1,0.32143083784686777,1,True,,,,,,,,,,,,,24,A,2023-09-20_08h27.09.144,exp3,2022.2.2,
high_opac_v,0.01,1,0.01,3,0.82,3.5,0.01,0,0.01,4,5,Valid,1,19,55,start,lin,0.167068133924558,0.167068133924558,1,0.167068133924558,1,True,,,,,,,,,,,,,24,A,2023-09-20_08h27.09.144,exp3,2022.2.2,
low_opac_i,0.4,1,0.01,3,0.82,3.5,0.01,0,0.01,4,5,Invalid,2,19,56,start,lin,1,0,0,1,0,True,,,,,,,,,,,,,24,A,2023-09-20_08h27.09.144,exp3,2022.2.2,
high_opac_v,0.01,1,0.01,3,0.82,3.5,0.01,0,0.01,4,5,Valid,1,20,57,start,lin,0.16224611663838948,0,0,0.16224611663838948,0,True,,,,,,,,,,,,,24,A,2023-09-20_08h27.09.144,exp3,2022.2.2,
low_opac_i,0.4,1,0.01,3,0.82,3.5,0.01,0,0.01,4,5,Invalid,2,20,58,start,lin,1,0,0,1,0,True,,,,,,,,,,,,,24,A,2023-09-20_08h27.09.144,exp3,2022.2.2,
low_opac_v,0.4,1,0.01,3,0.82,3.5,0.01,0,0.01,4,5,Valid,0,20,59,start,lin,0.31631620454683784,0,0,0.31631620454683784,0,True,,,,,,,,,,,,,24,A,2023-09-20_08h27.09.144,exp3,2022.2.2,
low_opac_i,0.4,1,0.01,3,0.82,3.5,0.01,0,0.01,4,5,Invalid,2,21,60,start,lin,1,0,1,1,1,True,,,,,,,,,,,,,24,A,2023-09-20_08h27.09.144,exp3,2022.2.2,
low_opac_v,0.4,1,0.01,3,0.82,3.5,0.01,0,0.01,4,5,Valid,0,21,61,start,lin,0.3354642259224959,0,0,0.3354642259224959,0,True,,,,,,,,,,,,,24,A,2023-09-20_08h27.09.144,exp3,2022.2.2,
high_opac_v,0.01,1,0.01,3,0.82,3.5,0.01,0,0.01,4,5,Valid,1,21,62,start,lin,0.18029912018788713,0.18029912018788713,1,0.18029912018788713,1,True,,,,,,,,,,,,,24,A,2023-09-20_08h27.09.144,exp3,2022.2.2,
high_opac_v,0.01,1,0.01,3,0.82,3.5,0.01,0,0.01,4,5,Valid,1,22,63,start,lin,0.17581162582863655,0,1,0.17581162582863655,1,True,,,,,,,,,,,,,24,A,2023-09-20_08h27.09.144,exp3,2022.2.2,
low_opac_i,0.4,1,0.01,3,0.82,3.5,0.01,0,0.01,4,5,Invalid,2,22,64,start,lin,1,0,1,1,1,True,,,,,,,,,,,,,24,A,2023-09-20_08h27.09.144,exp3,2022.2.2,
low_opac_v,0.4,1,0.01,3,0.82,3.5,0.01,0,0.01,4,5,Valid,0,22,65,start,lin,0.3530059476710682,0,0,0.3530059476710682,0,True,,,,,,,,,,,,,24,A,2023-09-20_08h27.09.144,exp3,2022.2.2,
low_opac_i,0.4,1,0.01,3,0.82,3.5,0.01,0,0.01,4,5,Invalid,2,23,66,start,lin,1,1,0,1,0,True,,,,,,,,,,,,,24,A,2023-09-20_08h27.09.144,exp3,2022.2.2,
high_opac_v,0.01,1,0.01,3,0.82,3.5,0.01,0,0.01,4,5,Valid,1,23,67,start,lin,0.17175244405178797,0.17175244405178797,0,0.17175244405178797,0,True,,,,,,,,,,,,,24,A,2023-09-20_08h27.09.144,exp3,2022.2.2,
low_opac_v,0.4,1,0.01,3,0.82,3.5,0.01,0,0.01,4,5,Valid,0,23,68,start,lin,0.3686413169489828,0,1,0.3686413169489828,1,True,,,,,,,,,,,,,24,A,2023-09-20_08h27.09.144,exp3,2022.2.2,
low_opac_v,0.4,1,0.01,3,0.82,3.5,0.01,0,0.01,4,5,Valid,0,24,69,start,lin,0.36486331733697286,0,1,0.36486331733697286,1,True,,,,,,,,,,,,,24,A,2023-09-20_08h27.09.144,exp3,2022.2.2,
low_opac_i,0.4,1,0.01,3,0.82,3.5,0.01,0,0.01,4,5,Invalid,2,24,70,start,lin,1,1,0,1,0,True,,,,,,,,,,,,,24,A,2023-09-20_08h27.09.144,exp3,2022.2.2,
high_opac_v,0.01,1,0.01,3,0.82,3.5,0.01,0,0.01,4,5,Valid,1,24,71,start,lin,0.18741541021889596,0.18741541021889596,1,0.18741541021889596,1,True,,,,,,,,,,,,,24,A,2023-09-20_08h27.09.144,exp3,2022.2.2,
low_opac_v,0.4,1,0.01,3,0.82,3.5,0.01,0,0.01,4,5,Valid,0,25,72,start,lin,0.3610663392236872,0,0,0.3610663392236872,0,True,,,,,,,,,,,,,24,A,2023-09-20_08h27.09.144,exp3,2022.2.2,
high_opac_v,0.01,1,0.01,3,0.82,3.5,0.01,0,0.01,4,5,Valid,1,25,73,start,lin,0.18365643602182083,0.18365643602182083,1,0.18365643602182083,1,True,,,,,,,,,,,,,24,A,2023-09-20_08h27.09.144,exp3,2022.2.2,
low_opac_i,0.4,1,0.01,3,0.82,3.5,0.01,0,0.01,4,5,Invalid,2,25,74,start,lin,1,0,1,1,1,True,,,,,,,,,,,,,24,A,2023-09-20_08h27.09.144,exp3,2022.2.2,
high_opac_v,0.01,1,0.01,3,0.82,3.5,0.01,0,0.01,4,5,Valid,1,26,75,start,lin,0.17986054627597373,0,1,0.17986054627597373,1,True,,,,,,,,,,,,,24,A,2023-09-20_08h27.09.144,exp3,2022.2.2,
low_opac_v,0.4,1,0.01,3,0.82,3.5,0.01,0,0.01,4,5,Valid,0,26,76,start,lin,0.3749109432497091,0,0,0.3749109432497091,0,True,,,,,,,,,,,,,24,A,2023-09-20_08h27.09.144,exp3,2022.2.2,
low_opac_i,0.4,1,0.01,3,0.82,3.5,0.01,0,0.01,4,5,Invalid,2,26,77,start,lin,1,0,0,1,0,True,,,,,,,,,,,,,24,A,2023-09-20_08h27.09.144,exp3,2022.2.2,
low_opac_v,0.4,1,0.01,3,0.82,3.5,0.01,0,0.01,4,5,Valid,0,27,78,start,lin,0.3878939955042721,0,0,0.3878939955042721,0,True,,,,,,,,,,,,,24,A,2023-09-20_08h27.09.144,exp3,2022.2.2,
low_opac_i,0.4,1,0.01,3,0.82,3.5,0.01,0,0.01,4,5,Invalid,2,27,79,start,lin,1,0,0,1,0,True,,,,,,,,,,,,,24,A,2023-09-20_08h27.09.144,exp3,2022.2.2,
high_opac_v,0.01,1,0.01,3,0.82,3.5,0.01,0,0.01,4,5,Valid,1,27,80,start,lin,0.1763817931127782,0.1763817931127782,1,0.1763817931127782,1,True,,,,,,,,,,,,,24,A,2023-09-20_08h27.09.144,exp3,2022.2.2,
high_opac_v,0.01,1,0.01,3,0.82,3.5,0.01,0,0.01,4,5,Valid,1,28,81,start,lin,0.17317523288168613,0.17317523288168613,1,0.17317523288168613,1,True,,,,,,,,,,,,,24,A,2023-09-20_08h27.09.144,exp3,2022.2.2,
low_opac_v,0.4,1,0.01,3,0.82,3.5,0.01,0,0.01,4,5,Valid,0,28,82,start,lin,0.40119276183038766,0,0,0.40119276183038766,0,True,,,,,,,,,,,,,24,A,2023-09-20_08h27.09.144,exp3,2022.2.2,
low_opac_i,0.4,1,0.01,3,0.82,3.5,0.01,0,0.01,4,5,Invalid,2,28,83,start,lin,1,1,0,1,0,True,,,,,,,,,,,,,24,A,2023-09-20_08h27.09.144,exp3,2022.2.2,
low_opac_i,0.4,1,0.01,3,0.82,3.5,0.01,0,0.01,4,5,Invalid,2,29,84,start,lin,1,0,0,1,0,True,,,,,,,,,,,,,24,A,2023-09-20_08h27.09.144,exp3,2022.2.2,
high_opac_v,0.01,1,0.01,3,0.82,3.5,0.01,0,0.01,4,5,Valid,1,29,85,start,lin,0.16988257204855103,0.16988257204855103,1,0.16988257204855103,1,True,,,,,,,,,,,,,24,A,2023-09-20_08h27.09.144,exp3,2022.2.2,
low_opac_v,0.4,1,0.01,3,0.82,3.5,0.01,0,0.01,4,5,Valid,0,29,86,start,lin,0.41389040735379146,0.41389040735379146,1,0.41389040735379146,1,True,,,,,,,,,,,,,24,A,2023-09-20_08h27.09.144,exp3,2022.2.2,
low_opac_v,0.4,1,0.01,3,0.82,3.5,0.01,0,0.01,4,5,Valid,0,30,87,start,lin,0.4106641912176945,0.4106641912176945,1,0.4106641912176945,1,True,,,,,,,,,,,,,24,A,2023-09-20_08h27.09.144,exp3,2022.2.2,
high_opac_v,0.01,1,0.01,3,0.82,3.5,0.01,0,0.01,4,5,Valid,1,30,88,start,lin,0.16682276709995747,0.16682276709995747,1,0.16682276709995747,1,True,,,,,,,,,,,,,24,A,2023-09-20_08h27.09.144,exp3,2022.2.2,
low_opac_i,0.4,1,0.01,3,0.82,3.5,0.01,0,0.01,4,5,Invalid,2,30,89,start,lin,1,1,0,1,0,True,,,,,,,,,,,,,24,A,2023-09-20_08h27.09.144,exp3,2022.2.2,
low_opac_v,0.4,1,0.01,3,0.82,3.5,0.01,0,0.01,4,5,Valid,0,31,90,start,lin,0.40764885652088534,0,0,0.40764885652088534,0,True,,,,,,,,,,,,,24,A,2023-09-20_08h27.09.144,exp3,2022.2.2,
high_opac_v,0.01,1,0.01,3,0.82,3.5,0.01,0,0.01,4,5,Valid,1,31,91,start,lin,0.16398159444432214,0.16398159444432214,1,0.16398159444432214,1,True,,,,,,,,,,,,,24,A,2023-09-20_08h27.09.144,exp3,2022.2.2,
low_opac_i,0.4,1,0.01,3,0.82,3.5,0.01,0,0.01,4,5,Invalid,2,31,92,start,lin,1,0,0,1,0,True,,,,,,,,,,,,,24,A,2023-09-20_08h27.09.144,exp3,2022.2.2,
high_opac_v,0.01,1,0.01,3,0.82,3.5,0.01,0,0.01,4,5,Valid,1,32,93,start,lin,0.16105200709434503,0,0,0.16105200709434503,0,True,,,,,,,,,,,,,24,A,2023-09-20_08h27.09.144,exp3,2022.2.2,
low_opac_v,0.4,1,0.01,3,0.82,3.5,0.01,0,0.01,4,5,Valid,0,32,94,start,lin,0.41939309554575577,0,0,0.41939309554575577,0,True,,,,,,,,,,,,,24,A,2023-09-20_08h27.09.144,exp3,2022.2.2,
low_opac_i,0.4,1,0.01,3,0.82,3.5,0.01,0,0.01,4,5,Invalid,2,32,95,start,lin,1,1,0,1,0,True,,,,,,,,,,,,,24,A,2023-09-20_08h27.09.144,exp3,2022.2.2,
low_opac_i,0.4,1,0.01,3,0.82,3.5,0.01,0,0.01,4,5,Invalid,2,33,96,start,lin,1,1,0,1,0,True,,,,,,,,,,,,,24,A,2023-09-20_08h27.09.144,exp3,2022.2.2,
high_opac_v,0.01,1,0.01,3,0.82,3.5,0.01,0,0.01,4,5,Valid,1,33,97,start,lin,0.17202599846167071,0.17202599846167071,1,0.17202599846167071,1,True,,,,,,,,,,,,,24,A,2023-09-20_08h27.09.144,exp3,2022.2.2,
low_opac_v,0.4,1,0.01,3,0.82,3.5,0.01,0,0.01,4,5,Valid,0,33,98,start,lin,0.4308193670869383,0,0,0.4308193670869383,0,True,,,,,,,,,,,,,24,A,2023-09-20_08h27.09.144,exp3,2022.2.2,
high_opac_v,0.01,1,0.01,3,0.82,3.5,0.01,0,0.01,4,5,Valid,1,34,99,start,lin,0.16930608631561278,0,0,0.16930608631561278,0,True,,,,,,,,,,,,,24,A,2023-09-20_08h27.09.144,exp3,2022.2.2,
low_opac_i,0.4,1,0.01,3,0.82,3.5,0.01,0,0.01,4,5,Invalid,2,34,100,start,lin,1,1,0,1,0,True,,,,,,,,,,,,,24,A,2023-09-20_08h27.09.144,exp3,2022.2.2,
low_opac_v,0.4,1,0.01,3,0.82,3.5,0.01,0,0.01,4,5,Valid,0,34,101,start,lin,0.44196647983415366,0,0,0.44196647983415366,0,True,,,,,,,,,,,,,24,A,2023-09-20_08h27.09.144,exp3,2022.2.2,
low_opac_v,0.4,1,0.01,3,0.82,3.5,0.01,0,0.01,4,5,Valid,0,35,102,start,lin,0.4528874205423714,0,0,0.4528874205423714,0,True,,,,,,,,,,,,,24,A,2023-09-20_08h27.09.144,exp3,2022.2.2,
low_opac_i,0.4,1,0.01,3,0.82,3.5,0.01,0,0.01,4,5,Invalid,2,35,103,start,lin,1,1,0,1,0,True,,,,,,,,,,,,,24,A,2023-09-20_08h27.09.144,exp3,2022.2.2,
high_opac_v,0.01,1,0.01,3,0.82,3.5,0.01,0,0.01,4,5,Valid,1,35,104,start,lin,0.1796984985126109,0.1796984985126109,1,0.1796984985126109,1,True,,,,,,,,,,,,,24,A,2023-09-20_08h27.09.144,exp3,2022.2.2,
high_opac_v,0.01,1,0.01,3,0.82,3.5,0.01,0,0.01,4,5,Valid,1,36,105,start,lin,0.1772166837555269,0.1772166837555269,1,0.1772166837555269,1,True,,,,,,,,,,,,,24,A,2023-09-20_08h27.09.144,exp3,2022.2.2,
low_opac_i,0.4,1,0.01,3,0.82,3.5,0.01,0,0.01,4,5,Invalid,2,36,106,start,lin,1,1,0,1,0,True,,,,,,,,,,,,,24,A,2023-09-20_08h27.09.144,exp3,2022.2.2,
low_opac_v,0.4,1,0.01,3,0.82,3.5,0.01,0,0.01,4,5,Valid,0,36,107,start,lin,0.4636291424171427,0.4636291424171427,1,0.4636291424171427,1,True,,,,,,,,,,,,,24,A,2023-09-20_08h27.09.144,exp3,2022.2.2,
low_opac_v,0.4,1,0.01,3,0.82,3.5,0.01,0,0.01,4,5,Valid,0,37,108,start,lin,0.4608608941464573,0.4608608941464573,1,0.4608608941464573,1,True,,,,,,,,,,,,,24,A,2023-09-20_08h27.09.144,exp3,2022.2.2,
low_opac_i,0.4,1,0.01,3,0.82,3.5,0.01,0,0.01,4,5,Invalid,2,37,109,start,lin,1,1,0,1,0,True,,,,,,,,,,,,,24,A,2023-09-20_08h27.09.144,exp3,2022.2.2,
high_opac_v,0.01,1,0.01,3,0.82,3.5,0.01,0,0.01,4,5,Valid,1,37,110,start,lin,0.1748923651567885,0,0,0.1748923651567885,0,True,,,,,,,,,,,,,24,A,2023-09-20_08h27.09.144,exp3,2022.2.2,
low_opac_i,0.4,1,0.01,3,0.82,3.5,0.01,0,0.01,4,5,Invalid,2,38,111,start,lin,1,1,0,1,0,True,,,,,,,,,,,,,24,A,2023-09-20_08h27.09.144,exp3,2022.2.2,
low_opac_v,0.4,1,0.01,3,0.82,3.5,0.01,0,0.01,4,5,Valid,0,38,112,start,lin,0.4582431795855871,0,0,0.4582431795855871,0,True,,,,,,,,,,,,,24,A,2023-09-20_08h27.09.144,exp3,2022.2.2,
high_opac_v,0.01,1,0.01,3,0.82,3.5,0.01,0,0.01,4,5,Valid,1,38,113,start,lin,0.1840372228254005,0.1840372228254005,1,0.1840372228254005,1,True,,,,,,,,,,,,,24,A,2023-09-20_08h27.09.144,exp3,2022.2.2,
high_opac_v,0.01,1,0.01,3,0.82,3.5,0.01,0,0.01,4,5,Valid,1,39,114,start,lin,0.18169771132864856,0.18169771132864856,1,0.18169771132864856,1,True,,,,,,,,,,,,,24,A,2023-09-20_08h27.09.144,exp3,2022.2.2,
low_opac_v,0.4,1,0.01,3,0.82,3.5,0.01,0,0.01,4,5,Valid,0,39,115,start,lin,0.46843704570499467,0,1,0.46843704570499467,1,True,,,,,,,,,,,,,24,A,2023-09-20_08h27.09.144,exp3,2022.2.2,
low_opac_i,0.4,1,0.01,3,0.82,3.5,0.01,0,0.01,4,5,Invalid,2,39,116,start,lin,1,0,0,1,0,True,,,,,,,,,,,,,24,A,2023-09-20_08h27.09.144,exp3,2022.2.2,
high_opac_v,0.01,1,0.01,3,0.82,3.5,0.01,0,0.01,4,5,Valid,1,40,117,start,lin,0.17942817669182537,0,1,0.17942817669182537,1,True,,,,,,,,,,,,,24,A,2023-09-20_08h27.09.144,exp3,2022.2.2,
low_opac_v,0.4,1,0.01,3,0.82,3.5,0.01,0,0.01,4,5,Valid,0,40,118,start,lin,0.46603178558079905,0,1,0.46603178558079905,1,True,,,,,,,,,,,,,24,A,2023-09-20_08h27.09.144,exp3,2022.2.2,
low_opac_i,0.4,1,0.01,3,0.82,3.5,0.01,0,0.01,4,5,Invalid,2,40,119,start,lin,1,0,1,1,1,True,,,,,,,,,,,,,24,A,2023-09-20_08h27.09.144,exp3,2022.2.2,
low_opac_i,0.4,1,0.01,3,0.82,3.5,0.01,0,0.01,4,5,Invalid,2,41,120,start,lin,1,0,0,1,0,True,,,,,,,,,,,,,24,A,2023-09-20_08h27.09.144,exp3,2022.2.2,
low_opac_v,0.4,1,0.01,3,0.82,3.5,0.01,0,0.01,4,5,Valid,0,41,121,start,lin,0.46376795194974674,0.46376795194974674,1,0.46376795194974674,1,True,,,,,,,,,,,,,24,A,2023-09-20_08h27.09.144,exp3,2022.2.2,
high_opac_v,0.01,1,0.01,3,0.82,3.5,0.01,0,0.01,4,5,Valid,1,41,122,start,lin,0.177291207163466,0.177291207163466,1,0.177291207163466,1,True,,,,,,,,,,,,,24,A,2023-09-20_08h27.09.144,exp3,2022.2.2,
high_opac_v,0.01,1,0.01,3,0.82,3.5,0.01,0,0.01,4,5,Valid,1,42,123,start,lin,0.17527639104560575,0.17527639104560575,1,0.17527639104560575,1,True,,,,,,,,,,,,,24,A,2023-09-20_08h27.09.144,exp3,2022.2.2,
low_opac_v,0.4,1,0.01,3,0.82,3.5,0.01,0,0.01,4,5,Valid,0,42,124,start,lin,0.4614107820367164,0,1,0.4614107820367164,1,True,,,,,,,,,,,,,24,A,2023-09-20_08h27.09.144,exp3,2022.2.2,
low_opac_i,0.4,1,0.01,3,0.82,3.5,0.01,0,0.01,4,5,Invalid,2,42,125,start,lin,1,0,0,1,0,True,,,,,,,,,,,,,24,A,2023-09-20_08h27.09.144,exp3,2022.2.2,
low_opac_v,0.4,1,0.01,3,0.82,3.5,0.01,0,0.01,4,5,Valid,0,43,126,start,lin,0.45913654010072463,0.45913654010072463,1,0.45913654010072463,1,True,,,,,,,,,,,,,24,A,2023-09-20_08h27.09.144,exp3,2022.2.2,
high_opac_v,0.01,1,0.01,3,0.82,3.5,0.01,0,0.01,4,5,Valid,1,43,127,start,lin,0.17335092549361109,0.17335092549361109,0,0.17335092549361109,0,True,,,,,,,,,,,,,24,A,2023-09-20_08h27.09.144,exp3,2022.2.2,
low_opac_i,0.4,1,0.01,3,0.82,3.5,0.01,0,0.01,4,5,Invalid,2,43,128,start,lin,1,0,1,1,1,True,,,,,,,,,,,,,24,A,2023-09-20_08h27.09.144,exp3,2022.2.2,
low_opac_v,0.4,1,0.01,3,0.82,3.5,0.01,0,0.01,4,5,Valid,0,44,129,start,lin,0.4570116626241573,0,1,0.4570116626241573,1,True,,,,,,,,,,,,,24,A,2023-09-20_08h27.09.144,exp3,2022.2.2,
high_opac_v,0.01,1,0.01,3,0.82,3.5,0.01,0,0.01,4,5,Valid,1,44,130,start,lin,0.1812237574853579,0.1812237574853579,1,0.1812237574853579,1,True,,,,,,,,,,,,,24,A,2023-09-20_08h27.09.144,exp3,2022.2.2,
low_opac_i,0.4,1,0.01,3,0.82,3.5,0.01,0,0.01,4,5,Invalid,2,44,131,start,lin,1,1,0,1,0,True,,,,,,,,,,,,,24,A,2023-09-20_08h27.09.144,exp3,2022.2.2,
high_opac_v,0.01,1,0.01,3,0.82,3.5,0.01,0,0.01,4,5,Valid,1,45,132,start,lin,0.17923608635926677,0,1,0.17923608635926677,1,True,,,,,,,,,,,,,24,A,2023-09-20_08h27.09.144,exp3,2022.2.2,
low_opac_i,0.4,1,0.01,3,0.82,3.5,0.01,0,0.01,4,5,Invalid,2,45,133,start,lin,1,0,1,1,1,True,,,,,,,,,,,,,24,A,2023-09-20_08h27.09.144,exp3,2022.2.2,
low_opac_v,0.4,1,0.01,3,0.82,3.5,0.01,0,0.01,4,5,Valid,0,45,134,start,lin,0.4550085659474882,0.4550085659474882,1,0.4550085659474882,1,True,,,,,,,,,,,,,24,A,2023-09-20_08h27.09.144,exp3,2022.2.2,
low_opac_i,0.4,1,0.01,3,0.82,3.5,0.01,0,0.01,4,5,Invalid,2,46,135,start,lin,1,1,0,1,0,True,,,,,,,,,,,,,24,A,2023-09-20_08h27.09.144,exp3,2022.2.2,
high_opac_v,0.01,1,0.01,3,0.82,3.5,0.01,0,0.01,4,5,Valid,1,46,136,start,lin,0.17735932064755808,0,1,0.17735932064755808,1,True,,,,,,,,,,,,,24,A,2023-09-20_08h27.09.144,exp3,2022.2.2,
low_opac_v,0.4,1,0.01,3,0.82,3.5,0.01,0,0.01,4,5,Valid,0,46,137,start,lin,0.4530943222911601,0.4530943222911601,1,0.4530943222911601,1,True,,,,,,,,,,,,,24,A,2023-09-20_08h27.09.144,exp3,2022.2.2,
low_opac_v,0.4,1,0.01,3,0.82,3.5,0.01,0,0.01,4,5,Valid,0,47,138,start,lin,0.4510736906260933,0,1,0.4510736906260933,1,True,,,,,,,,,,,,,24,A,2023-09-20_08h27.09.144,exp3,2022.2.2,
low_opac_i,0.4,1,0.01,3,0.82,3.5,0.01,0,0.01,4,5,Invalid,2,47,139,start,lin,1,0,1,1,1,True,,,,,,,,,,,,,24,A,2023-09-20_08h27.09.144,exp3,2022.2.2,
high_opac_v,0.01,1,0.01,3,0.82,3.5,0.01,0,0.01,4,5,Valid,1,47,140,start,lin,0.1755810202342528,0,0,0.1755810202342528,0,True,,,,,,,,,,,,,24,A,2023-09-20_08h27.09.144,exp3,2022.2.2,
low_opac_i,0.4,1,0.01,3,0.82,3.5,0.01,0,0.01,4,5,Invalid,2,48,141,start,lin,1,1,0,1,0,True,,,,,,,,,,,,,24,A,2023-09-20_08h27.09.144,exp3,2022.2.2,
high_opac_v,0.01,1,0.01,3,0.82,3.5,0.01,0,0.01,4,5,Valid,1,48,142,start,lin,0.18318301943891396,0,1,0.18318301943891396,1,True,,,,,,,,,,,,,24,A,2023-09-20_08h27.09.144,exp3,2022.2.2,
low_opac_v,0.4,1,0.01,3,0.82,3.5,0.01,0,0.01,4,5,Valid,0,48,143,start,lin,0.4491071057013506,0.4491071057013506,1,0.4491071057013506,1,True,,,,,,,,,,,,,24,A,2023-09-20_08h27.09.144,exp3,2022.2.2,
low_opac_i,0.4,1,0.01,3,0.82,3.5,0.01,0,0.01,4,5,Invalid,2,49,144,start,lin,1,0,1,1,1,True,,,,,,,,,,,,,24,A,2023-09-20_08h27.09.144,exp3,2022.2.2,
high_opac_v,0.01,1,0.01,3,0.82,3.5,0.01,0,0.01,4,5,Valid,1,49,145,start,lin,0.18138078922063175,0.18138078922063175,1,0.18138078922063175,1,True,,,,,,,,,,,,,24,A,2023-09-20_08h27.09.144,exp3,2022.2.2,
low_opac_v,0.4,1,0.01,3,0.82,3.5,0.01,0,0.01,4,5,Valid,0,49,146,start,lin,0.44725640713668935,0,1,0.44725640713668935,1,True,,,,,,,,,,,,,24,A,2023-09-20_08h27.09.144,exp3,2022.2.2,
high_opac_v,0.01,1,0.01,3,0.82,3.5,0.01,0,0.01,4,5,Valid,1,50,147,start,lin,0.17960745413385237,0,0,0.17960745413385237,0,True,,,,,,,,,,,,,24,A,2023-09-20_08h27.09.144,exp3,2022.2.2,
low_opac_i,0.4,1,0.01,3,0.82,3.5,0.01,0,0.01,4,5,Invalid,2,50,148,start,lin,1,1,0,1,0,True,,,,,,,,,,,,,24,A,2023-09-20_08h27.09.144,exp3,2022.2.2,
low_opac_v,0.4,1,0.01,3,0.82,3.5,0.01,0,0.01,4,5,Valid,0,50,149,start,lin,0.44550259401293396,0.44550259401293396,1,0.44550259401293396,1,True,,,,,,,,,,,,,24,A,2023-09-20_08h27.09.144,exp3,2022.2.2,
high_opac_v,0.01,1,0.01,3,0.82,3.5,0.01,0,0.01,4,5,Valid,1,51,150,start,lin,0.18649164878662147,0,1,0.18649164878662147,1,True,,,,,,,,,,,,,24,A,2023-09-20_08h27.09.144,exp3,2022.2.2,
low_opac_v,0.4,1,0.01,3,0.82,3.5,0.01,0,0.01,4,5,Valid,0,51,151,start,lin,0.4438210661847598,0,1,0.4438210661847598,1,True,,,,,,,,,,,,,24,A,2023-09-20_08h27.09.144,exp3,2022.2.2,
low_opac_i,0.4,1,0.01,3,0.82,3.5,0.01,0,0.01,4,5,Invalid,2,51,152,start,lin,1,0,1,1,1,True,,,,,,,,,,,,,24,A,2023-09-20_08h27.09.144,exp3,2022.2.2,
high_opac_v,0.01,1,0.01,3,0.82,3.5,0.01,0,0.01,4,5,Valid,1,52,153,start,lin,0.1849188621599311,0,1,0.1849188621599311,1,True,,,,,,,,,,,,,24,A,2023-09-20_08h27.09.144,exp3,2022.2.2,
low_opac_i,0.4,1,0.01,3,0.82,3.5,0.01,0,0.01,4,5,Invalid,2,52,154,start,lin,1,0,1,1,1,True,,,,,,,,,,,,,24,A,2023-09-20_08h27.09.144,exp3,2022.2.2,
low_opac_v,0.4,1,0.01,3,0.82,3.5,0.01,0,0.01,4,5,Valid,0,52,155,start,lin,0.44204410430679975,0.44204410430679975,1,0.44204410430679975,1,True,,,,,,,,,,,,,24,A,2023-09-20_08h27.09.144,exp3,2022.2.2,
low_opac_v,0.4,1,0.01,3,0.82,3.5,0.01,0,0.01,4,5,Valid,0,53,156,start,lin,0.440298530997966,0.440298530997966,1,0.440298530997966,1,True,,,,,,,,,,,,,24,A,2023-09-20_08h27.09.144,exp3,2022.2.2,
low_opac_i,0.4,1,0.01,3,0.82,3.5,0.01,0,0.01,4,5,Invalid,2,53,157,start,lin,1,1,0,1,0,True,,,,,,,,,,,,,24,A,2023-09-20_08h27.09.144,exp3,2022.2.2,
high_opac_v,0.01,1,0.01,3,0.82,3.5,0.01,0,0.01,4,5,Valid,1,53,158,start,lin,0.1832648375544136,0,1,0.1832648375544136,1,True,,,,,,,,,,,,,24,A,2023-09-20_08h27.09.144,exp3,2022.2.2,
high_opac_v,0.01,1,0.01,3,0.82,3.5,0.01,0,0.01,4,5,Valid,1,54,159,start,lin,0.18164844430602875,0.18164844430602875,1,0.18164844430602875,1,True,,,,,,,,,,,,,24,A,2023-09-20_08h27.09.144,exp3,2022.2.2,
low_opac_v,0.4,1,0.01,3,0.82,3.5,0.01,0,0.01,4,5,Valid,0,54,160,start,lin,0.43860525218951757,0,0,0.43860525218951757,0,True,,,,,,,,,,,,,24,A,2023-09-20_08h27.09.144,exp3,2022.2.2,
low_opac_i,0.4,1,0.01,3,0.82,3.5,0.01,0,0.01,4,5,Invalid,2,54,161,start,lin,1,0,0,1,0,True,,,,,,,,,,,,,24,A,2023-09-20_08h27.09.144,exp3,2022.2.2,
high_opac_v,0.01,1,0.01,3,0.82,3.5,0.01,0,0.01,4,5,Valid,1,55,162,start,lin,0.18005083599210292,0,1,0.18005083599210292,1,True,,,,,,,,,,,,,24,A,2023-09-20_08h27.09.144,exp3,2022.2.2,
low_opac_i,0.4,1,0.01,3,0.82,3.5,0.01,0,0.01,4,5,Invalid,2,55,163,start,lin,1,0,1,1,1,True,,,,,,,,,,,,,24,A,2023-09-20_08h27.09.144,exp3,2022.2.2,
low_opac_v,0.4,1,0.01,3,0.82,3.5,0.01,0,0.01,4,5,Valid,0,55,164,start,lin,0.44533705179488964,0,1,0.44533705179488964,1,True,,,,,,,,,,,,,24,A,2023-09-20_08h27.09.144,exp3,2022.2.2,
low_opac_i,0.4,1,0.01,3,0.82,3.5,0.01,0,0.01,4,5,Invalid,2,56,165,start,lin,1,0,1,1,1,True,,,,,,,,,,,,,24,A,2023-09-20_08h27.09.144,exp3,2022.2.2,
low_opac_v,0.4,1,0.01,3,0.82,3.5,0.01,0,0.01,4,5,Valid,0,56,166,start,lin,0.44383329330750987,0,1,0.44383329330750987,1,True,,,,,,,,,,,,,24,A,2023-09-20_08h27.09.144,exp3,2022.2.2,
high_opac_v,0.01,1,0.01,3,0.82,3.5,0.01,0,0.01,4,5,Valid,1,56,167,start,lin,0.17850420544705456,0,1,0.17850420544705456,1,True,,,,,,,,,,,,,24,A,2023-09-20_08h27.09.144,exp3,2022.2.2,
low_opac_i,0.4,1,0.01,3,0.82,3.5,0.01,0,0.01,4,5,Invalid,2,57,168,start,lin,1,1,0,1,0,True,,,,,,,,,,,,,24,A,2023-09-20_08h27.09.144,exp3,2022.2.2,
low_opac_v,0.4,1,0.01,3,0.82,3.5,0.01,0,0.01,4,5,Valid,0,57,169,start,lin,0.44223776962623196,0.44223776962623196,1,0.44223776962623196,1,True,,,,,,,,,,,,,24,A,2023-09-20_08h27.09.144,exp3,2022.2.2,
high_opac_v,0.01,1,0.01,3,0.82,3.5,0.01,0,0.01,4,5,Valid,1,57,170,start,lin,0.17703753855309134,0.17703753855309134,1,0.17703753855309134,1,True,,,,,,,,,,,,,24,A,2023-09-20_08h27.09.144,exp3,2022.2.2,
low_opac_v,0.4,1,0.01,3,0.82,3.5,0.01,0,0.01,4,5,Valid,0,58,171,start,lin,0.4406664876158163,0,1,0.4406664876158163,1,True,,,,,,,,,,,,,24,A,2023-09-20_08h27.09.144,exp3,2022.2.2,
low_opac_i,0.4,1,0.01,3,0.82,3.5,0.01,0,0.01,4,5,Invalid,2,58,172,start,lin,1,1,0,1,0,True,,,,,,,,,,,,,24,A,2023-09-20_08h27.09.144,exp3,2022.2.2,
high_opac_v,0.01,1,0.01,3,0.82,3.5,0.01,0,0.01,4,5,Valid,1,58,173,start,lin,0.17563361334889716,0.17563361334889716,1,0.17563361334889716,1,True,,,,,,,,,,,,,24,A,2023-09-20_08h27.09.144,exp3,2022.2.2,
low_opac_v,0.4,1,0.01,3,0.82,3.5,0.01,0,0.01,4,5,Valid,0,59,174,start,lin,0.4391208677109118,0,1,0.4391208677109118,1,True,,,,,,,,,,,,,24,A,2023-09-20_08h27.09.144,exp3,2022.2.2,
high_opac_v,0.01,1,0.01,3,0.82,3.5,0.01,0,0.01,4,5,Valid,1,59,175,start,lin,0.17427739973389506,0.17427739973389506,1,0.17427739973389506,1,True,,,,,,,,,,,,,24,A,2023-09-20_08h27.09.144,exp3,2022.2.2,
low_opac_i,0.4,1,0.01,3,0.82,3.5,0.01,0,0.01,4,5,Invalid,2,59,176,start,lin,1,0,1,1,1,True,,,,,,,,,,,,,24,A,2023-09-20_08h27.09.144,exp3,2022.2.2,
low_opac_v,0.4,1,0.01,3,0.82,3.5,0.01,0,0.01,4,5,Valid,0,60,177,start,lin,0.43765370852763885,0,1,0.43765370852763885,1,True,,,,,,,,,,,,,24,A,2023-09-20_08h27.09.144,exp3,2022.2.2,
high_opac_v,0.01,1,0.01,3,0.82,3.5,0.01,0,0.01,4,5,Valid,1,60,178,start,lin,0.17283681216862593,0.17283681216862593,1,0.17283681216862593,1,True,,,,,,,,,,,,,24,A,2023-09-20_08h27.09.144,exp3,2022.2.2,
low_opac_i,0.4,1,0.01,3,0.82,3.5,0.01,0,0.01,4,5,Invalid,2,60,179,start,lin,1,0,0,1,0,True,,,,,,,,,,,,,24,A,2023-09-20_08h27.09.144,exp3,2022.2.2,
high_opac_v,0.01,1,0.01,3,0.82,3.5,0.01,0,0.01,4,5,Valid,1,61,180,start,lin,0.17141807588752014,0.17141807588752014,1,0.17141807588752014,1,True,,,,,,,,,,,,,24,A,2023-09-20_08h27.09.144,exp3,2022.2.2,
low_opac_i,0.4,1,0.01,3,0.82,3.5,0.01,0,0.01,4,5,Invalid,2,61,181,start,lin,1,0,1,1,1,True,,,,,,,,,,,,,24,A,2023-09-20_08h27.09.144,exp3,2022.2.2,
low_opac_v,0.4,1,0.01,3,0.82,3.5,0.01,0,0.01,4,5,Valid,0,61,182,start,lin,0.4362542186871634,0,0,0.4362542186871634,0,True,,,,,,,,,,,,,24,A,2023-09-20_08h27.09.144,exp3,2022.2.2,
low_opac_v,0.4,1,0.01,3,0.82,3.5,0.01,0,0.01,4,5,Valid,0,62,183,start,lin,0.4422820474558381,0,0,0.4422820474558381,0,True,,,,,,,,,,,,,24,A,2023-09-20_08h27.09.144,exp3,2022.2.2,
high_opac_v,0.01,1,0.01,3,0.82,3.5,0.01,0,0.01,4,5,Valid,1,62,184,start,lin,0.17000716915636174,0.17000716915636174,1,0.17000716915636174,1,True,,,,,,,,,,,,,24,A,2023-09-20_08h27.09.144,exp3,2022.2.2,
low_opac_i,0.4,1,0.01,3,0.82,3.5,0.01,0,0.01,4,5,Invalid,2,62,185,start,lin,1,1,0,1,0,True,,,,,,,,,,,,,24,A,2023-09-20_08h27.09.144,exp3,2022.2.2,
low_opac_v,0.4,1,0.01,3,0.82,3.5,0.01,0,0.01,4,5,Valid,0,63,186,start,lin,0.4478288421156474,0,0,0.4478288421156474,0,True,,,,,,,,,,,,,24,A,2023-09-20_08h27.09.144,exp3,2022.2.2,
high_opac_v,0.01,1,0.01,3,0.82,3.5,0.01,0,0.01,4,5,Valid,1,63,187,start,lin,0.16863279249047072,0,0,0.16863279249047072,0,True,,,,,,,,,,,,,24,A,2023-09-20_08h27.09.144,exp3,2022.2.2,
low_opac_i,0.4,1,0.01,3,0.82,3.5,0.01,0,0.01,4,5,Invalid,2,63,188,start,lin,1,0,1,1,1,True,,,,,,,,,,,,,24,A,2023-09-20_08h27.09.144,exp3,2022.2.2,
low_opac_i,0.4,1,0.01,3,0.82,3.5,0.01,0,0.01,4,5,Invalid,2,64,189,start,lin,1,1,0,1,0,True,,,,,,,,,,,,,24,A,2023-09-20_08h27.09.144,exp3,2022.2.2,
high_opac_v,0.01,1,0.01,3,0.82,3.5,0.01,0,0.01,4,5,Valid,1,64,190,start,lin,0.17415822115113722,0,1,0.17415822115113722,1,True,,,,,,,,,,,,,24,A,2023-09-20_08h27.09.144,exp3,2022.2.2,
low_opac_v,0.4,1,0.01,3,0.82,3.5,0.01,0,0.01,4,5,Valid,0,64,191,start,lin,0.45360004256153325,0.45360004256153325,1,0.45360004256153325,1,True,,,,,,,,,,,,,24,A,2023-09-20_08h27.09.144,exp3,2022.2.2,
low_opac_v,0.4,1,0.01,3,0.82,3.5,0.01,0,0.01,4,5,Valid,0,65,192,start,lin,0.4522236800907596,0,1,0.4522236800907596,1,True,,,,,,,,,,,,,24,A,2023-09-20_08h27.09.144,exp3,2022.2.2,
high_opac_v,0.01,1,0.01,3,0.82,3.5,0.01,0,0.01,4,5,Valid,1,65,193,start,lin,0.17284076354055092,0.17284076354055092,1,0.17284076354055092,1,True,,,,,,,,,,,,,24,A,2023-09-20_08h27.09.144,exp3,2022.2.2,
low_opac_i,0.4,1,0.01,3,0.82,3.5,0.01,0,0.01,4,5,Invalid,2,65,194,start,lin,1,1,0,1,0,True,,,,,,,,,,,,,24,A,2023-09-20_08h27.09.144,exp3,2022.2.2,
low_opac_v,0.4,1,0.01,3,0.82,3.5,0.01,0,0.01,4,5,Valid,0,66,195,start,lin,0.4508625586857745,0,0,0.4508625586857745,0,True,,,,,,,,,,,,,24,A,2023-09-20_08h27.09.144,exp3,2022.2.2,
low_opac_i,0.4,1,0.01,3,0.82,3.5,0.01,0,0.01,4,5,Invalid,2,66,196,start,lin,1,1,0,1,0,True,,,,,,,,,,,,,24,A,2023-09-20_08h27.09.144,exp3,2022.2.2,
high_opac_v,0.01,1,0.01,3,0.82,3.5,0.01,0,0.01,4,5,Valid,1,66,197,start,lin,0.1715401860166261,0,1,0.1715401860166261,1,True,,,,,,,,,,,,,24,A,2023-09-20_08h27.09.144,exp3,2022.2.2,
low_opac_i,0.4,1,0.01,3,0.82,3.5,0.01,0,0.01,4,5,Invalid,2,67,198,start,lin,1,1,0,1,0,True,,,,,,,,,,,,,24,A,2023-09-20_08h27.09.144,exp3,2022.2.2,
high_opac_v,0.01,1,0.01,3,0.82,3.5,0.01,0,0.01,4,5,Valid,1,67,199,start,lin,0.17024478036463542,0.17024478036463542,1,0.17024478036463542,1,True,,,,,,,,,,,,,24,A,2023-09-20_08h27.09.144,exp3,2022.2.2,
low_opac_v,0.4,1,0.01,3,0.82,3.5,0.01,0,0.01,4,5,Valid,0,67,200,start,lin,0.45613679522101774,0,1,0.45613679522101774,1,True,,,,,,,,,,,,,24,A,2023-09-20_08h27.09.144,exp3,2022.2.2,
low_opac_v,0.4,1,0.01,3,0.82,3.5,0.01,0,0.01,4,5,Valid,0,68,201,start,lin,0.4549211370125646,0,0,0.4549211370125646,0,True,,,,,,,,,,,,,24,A,2023-09-20_08h27.09.144,exp3,2022.2.2,
high_opac_v,0.01,1,0.01,3,0.82,3.5,0.01,0,0.01,4,5,Valid,1,68,202,start,lin,0.16896844281260345,0.16896844281260345,1,0.16896844281260345,1,True,,,,,,,,,,,,,24,A,2023-09-20_08h27.09.144,exp3,2022.2.2,
low_opac_i,0.4,1,0.01,3,0.82,3.5,0.01,0,0.01,4,5,Invalid,2,68,203,start,lin,1,0,1,1,1,True,,,,,,,,,,,,,24,A,2023-09-20_08h27.09.144,exp3,2022.2.2,
low_opac_v,0.4,1,0.01,3,0.82,3.5,0.01,0,0.01,4,5,Valid,0,69,204,start,lin,0.4599210943603238,0,1,0.4599210943603238,1,True,,,,,,,,,,,,,24,A,2023-09-20_08h27.09.144,exp3,2022.2.2,
high_opac_v,0.01,1,0.01,3,0.82,3.5,0.01,0,0.01,4,5,Valid,1,69,205,start,lin,0.167752033478909,0.167752033478909,1,0.167752033478909,1,True,,,,,,,,,,,,,24,A,2023-09-20_08h27.09.144,exp3,2022.2.2,
low_opac_i,0.4,1,0.01,3,0.82,3.5,0.01,0,0.01,4,5,Invalid,2,69,206,start,lin,1,1,0,1,0,True,,,,,,,,,,,,,24,A,2023-09-20_08h27.09.144,exp3,2022.2.2,
low_opac_v,0.4,1,0.01,3,0.82,3.5,0.01,0,0.01,4,5,Valid,0,70,207,start,lin,0.4586474457502298,0,0,0.4586474457502298,0,True,,,,,,,,,,,,,24,A,2023-09-20_08h27.09.144,exp3,2022.2.2,
high_opac_v,0.01,1,0.01,3,0.82,3.5,0.01,0,0.01,4,5,Valid,1,70,208,start,lin,0.16658563786882666,0.16658563786882666,1,0.16658563786882666,1,True,,,,,,,,,,,,,24,A,2023-09-20_08h27.09.144,exp3,2022.2.2,
low_opac_i,0.4,1,0.01,3,0.82,3.5,0.01,0,0.01,4,5,Invalid,2,70,209,start,lin,1,1,1,1,1,True,,,,,,,,,,,,,24,A,2023-09-20_08h27.09.144,exp3,2022.2.2,
low_opac_i,0.4,1,0.01,3,0.82,3.5,0.01,0,0.01,4,5,Invalid,2,71,210,start,lin,1,1,0,1,0,True,,,,,,,,,,,,,24,A,2023-09-20_08h27.09.144,exp3,2022.2.2,
high_opac_v,0.01,1,0.01,3,0.82,3.5,0.01,0,0.01,4,5,Valid,1,71,211,start,lin,0.1654589207731111,0.1654589207731111,0,0.1654589207731111,0,True,,,,,,,,,,,,,24,A,2023-09-20_08h27.09.144,exp3,2022.2.2,
low_opac_v,0.4,1,0.01,3,0.82,3.5,0.01,0,0.01,4,5,Valid,0,71,212,start,lin,0.4638050424262532,0,1,0.4638050424262532,1,True,,,,,,,,,,,,,24,A,2023-09-20_08h27.09.144,exp3,2022.2.2,
low_opac_v,0.4,1,0.01,3,0.82,3.5,0.01,0,0.01,4,5,Valid,0,72,213,start,lin,0.46257141102586075,0.46257141102586075,1,0.46257141102586075,1,True,,,,,,,,,,,,,24,A,2023-09-20_08h27.09.144,exp3,2022.2.2,
high_opac_v,0.01,1,0.01,3,0.82,3.5,0.01,0,0.01,4,5,Valid,1,72,214,start,lin,0.1704481858905522,0,1,0.1704481858905522,1,True,,,,,,,,,,,,,24,A,2023-09-20_08h27.09.144,exp3,2022.2.2,
low_opac_i,0.4,1,0.01,3,0.82,3.5,0.01,0,0.01,4,5,Invalid,2,72,215,start,lin,1,1,0,1,0,True,,,,,,,,,,,,,24,A,2023-09-20_08h27.09.144,exp3,2022.2.2,
high_opac_v,0.01,1,0.01,3,0.82,3.5,0.01,0,0.01,4,5,Valid,1,73,216,start,lin,0.16925797620822555,0.16925797620822555,1,0.16925797620822555,1,True,,,,,,,,,,,,,24,A,2023-09-20_08h27.09.144,exp3,2022.2.2,
low_opac_v,0.4,1,0.01,3,0.82,3.5,0.01,0,0.01,4,5,Valid,0,73,217,start,lin,0.46135095842355145,0.46135095842355145,1,0.46135095842355145,1,True,,,,,,,,,,,,,24,A,2023-09-20_08h27.09.144,exp3,2022.2.2,
low_opac_i,0.4,1,0.01,3,0.82,3.5,0.01,0,0.01,4,5,Invalid,2,73,218,start,lin,1,1,0,1,0,True,,,,,,,,,,,,,24,A,2023-09-20_08h27.09.144,exp3,2022.2.2,
low_opac_v,0.4,1,0.01,3,0.82,3.5,0.01,0,0.01,4,5,Valid,0,74,219,start,lin,0.46013341447594397,0.46013341447594397,1,0.46013341447594397,1,True,,,,,,,,,,,,,24,A,2023-09-20_08h27.09.144,exp3,2022.2.2,
low_opac_i,0.4,1,0.01,3,0.82,3.5,0.01,0,0.01,4,5,Invalid,2,74,220,start,lin,1,1,1,1,1,True,,,,,,,,,,,,,24,A,2023-09-20_08h27.09.144,exp3,2022.2.2,
high_opac_v,0.01,1,0.01,3,0.82,3.5,0.01,0,0.01,4,5,Valid,1,74,221,start,lin,0.16811932576357952,0,1,0.16811932576357952,1,True,,,,,,,,,,,,,24,A,2023-09-20_08h27.09.144,exp3,2022.2.2,
low_opac_i,0.4,1,0.01,3,0.82,3.5,0.01,0,0.01,4,5,Invalid,2,75,222,start,lin,1,0,1,1,1,True,,,,,,,,,,,,,24,A,2023-09-20_08h27.09.144,exp3,2022.2.2,
high_opac_v,0.01,1,0.01,3,0.82,3.5,0.01,0,0.01,4,5,Valid,1,75,223,start,lin,0.1670279713982094,0,1,0.1670279713982094,1,True,,,,,,,,,,,,,24,A,2023-09-20_08h27.09.144,exp3,2022.2.2,
low_opac_v,0.4,1,0.01,3,0.82,3.5,0.01,0,0.01,4,5,Valid,0,75,224,start,lin,0.45894245081835017,0.45894245081835017,1,0.45894245081835017,1,True,,,,,,,,,,,,,24,A,2023-09-20_08h27.09.144,exp3,2022.2.2,
,,,,,,,,,,,,,,,,,,,,,,,,0,1158,Valid,noise,45,2,7.4004986000363715,1,3.0,12.613162799971178,True,2,24,A,2023-09-20_08h27.09.144,exp3,2022.2.2,
,,,,,,,,,,,,,,,,,,,,,,,,0,1716,Valid,signal,45,1,4.439892399997916,1,3.0,5.747562300006393,True,1,24,A,2023-09-20_08h27.09.144,exp3,2022.2.2,
,,,,,,,,,,,,,,,,,,,,,,,,0,2274,Valid,signal,-45,2,3.0050666999886744,0,2.0,4.312974400003441,True,1,24,A,2023-09-20_08h27.09.144,exp3,2022.2.2,
,,,,,,,,,,,,,,,,,,,,,,,,0,557,Valid,signal,-45,1,3.2225911999703385,1,4.0,4.530416800000239,True,1,24,A,2023-09-20_08h27.09.144,exp3,2022.2.2,
,,,,,,,,,,,,,,,,,,,,,,,,0,2274,Valid,signal,45,1,2.004689499968663,1,2.0,3.3127311000134796,True,1,24,A,2023-09-20_08h27.09.144,exp3,2022.2.2,
,,,,,,,,,,,,,,,,,,,,,,,,0,1716,Invalid,noise,45,1,4.006486100028269,0,1.0,5.314192300022114,True,1,24,A,2023-09-20_08h27.09.144,exp3,2022.2.2,
,,,,,,,,,,,,,,,,,,,,,,,,0,1158,Valid,noise,45,1,3.3714779000147246,0,2.0,4.67931039998075,True,1,24,A,2023-09-20_08h27.09.144,exp3,2022.2.2,
,,,,,,,,,,,,,,,,,,,,,,,,0,1158,Invalid,signal,-45,2,3.1855854999739677,0,1.0,15.218091299990192,True,2,24,A,2023-09-20_08h27.09.144,exp3,2022.2.2,
,,,,,,,,,,,,,,,,,,,,,,,,0,2274,Valid,noise,-45,2,2.1052961999666877,1,2.0,3.41313539998373,True,1,24,A,2023-09-20_08h27.09.144,exp3,2022.2.2,
,,,,,,,,,,,,,,,,,,,,,,,,0,1158,Valid,signal,45,1,1.821624200034421,1,4.0,3.129330600029789,True,1,24,A,2023-09-20_08h27.09.144,exp3,2022.2.2,
,,,,,,,,,,,,,,,,,,,,,,,,0,1158,Valid,noise,45,2,2.4724881000001915,1,4.0,3.7802773999865167,True,1,24,A,2023-09-20_08h27.09.144,exp3,2022.2.2,
,,,,,,,,,,,,,,,,,,,,,,,,0,1158,Valid,signal,-45,1,1.8887522000004537,1,4.0,3.196412599994801,True,1,24,A,2023-09-20_08h27.09.144,exp3,2022.2.2,
,,,,,,,,,,,,,,,,,,,,,,,,0,-1158,Valid,signal,45,1,2.70511430001352,1,4.0,4.012888099998236,True,1,24,A,2023-09-20_08h27.09.144,exp3,2022.2.2,
,,,,,,,,,,,,,,,,,,,,,,,,0,-557,Valid,signal,45,1,1.8881524000316858,1,4.0,3.196127700037323,True,1,24,A,2023-09-20_08h27.09.144,exp3,2022.2.2,
,,,,,,,,,,,,,,,,,,,,,,,,0,-1158,Valid,noise,45,2,1.3717123999958858,1,4.0,2.6796024999930523,True,1,24,A,2023-09-20_08h27.09.144,exp3,2022.2.2,
,,,,,,,,,,,,,,,,,,,,,,,,0,-2274,Valid,signal,45,2,1.7885785000398755,0,1.0,3.0966377000440843,True,1,24,A,2023-09-20_08h27.09.144,exp3,2022.2.2,
,,,,,,,,,,,,,,,,,,,,,,,,0,1716,Valid,signal,-45,1,1.8390952000045218,1,3.0,3.1468741999706253,True,1,24,A,2023-09-20_08h27.09.144,exp3,2022.2.2,
,,,,,,,,,,,,,,,,,,,,,,,,0,557,Valid,signal,-45,1,1.6371829999843612,1,4.0,2.945045400003437,True,1,24,A,2023-09-20_08h27.09.144,exp3,2022.2.2,
,,,,,,,,,,,,,,,,,,,,,,,,0,2274,Valid,signal,45,1,1.6888676000526175,1,4.0,2.99657139996998,True,1,24,A,2023-09-20_08h27.09.144,exp3,2022.2.2,
,,,,,,,,,,,,,,,,,,,,,,,,0,-1716,Valid,noise,-45,1,2.422232300043106,0,1.0,3.7297249999828637,True,1,24,A,2023-09-20_08h27.09.144,exp3,2022.2.2,
,,,,,,,,,,,,,,,,,,,,,,,,0,2274,Valid,signal,45,1,1.7716658000135794,1,3.0,3.0795142999850214,True,1,24,A,2023-09-20_08h27.09.144,exp3,2022.2.2,
,,,,,,,,,,,,,,,,,,,,,,,,0,2274,Invalid,noise,-45,1,3.222301400033757,0,2.0,4.530147299985401,True,1,24,A,2023-09-20_08h27.09.144,exp3,2022.2.2,
,,,,,,,,,,,,,,,,,,,,,,,,0,557,Valid,noise,-45,2,2.4891199999838136,1,3.0,3.796785100013949,True,1,24,A,2023-09-20_08h27.09.144,exp3,2022.2.2,
,,,,,,,,,,,,,,,,,,,,,,,,0,1158,Valid,signal,45,1,3.5892018000013195,1,3.0,4.896795899956487,True,1,24,A,2023-09-20_08h27.09.144,exp3,2022.2.2,
,,,,,,,,,,,,,,,,,,,,,,,,0,-2274,Valid,noise,-45,2,1.4384899999713525,1,2.0,2.745967400027439,True,1,24,A,2023-09-20_08h27.09.144,exp3,2022.2.2,
,,,,,,,,,,,,,,,,,,,,,,,,0,1716,Valid,noise,-45,2,2.905634199967608,1,2.0,4.213437900005374,True,1,24,A,2023-09-20_08h27.09.144,exp3,2022.2.2,
,,,,,,,,,,,,,,,,,,,,,,,,0,1716,Valid,signal,45,1,1.204463800007943,1,3.0,2.512327699980233,True,1,24,A,2023-09-20_08h27.09.144,exp3,2022.2.2,
,,,,,,,,,,,,,,,,,,,,,,,,0,557,Valid,signal,45,1,1.455177400028333,1,4.0,2.7629919999744743,True,1,24,A,2023-09-20_08h27.09.144,exp3,2022.2.2,
,,,,,,,,,,,,,,,,,,,,,,,,0,-2274,Valid,noise,45,2,1.4055484000127763,1,3.0,2.7131739999749698,True,1,24,A,2023-09-20_08h27.09.144,exp3,2022.2.2,
,,,,,,,,,,,,,,,,,,,,,,,,0,-557,Valid,noise,-45,2,1.6878840000135824,1,2.0,2.995651100005489,True,1,24,A,2023-09-20_08h27.09.144,exp3,2022.2.2,
,,,,,,,,,,,,,,,,,,,,,,,,0,-2274,Invalid,noise,45,2,3.173022300004959,1,2.0,4.480717699974775,True,1,24,A,2023-09-20_08h27.09.144,exp3,2022.2.2,
,,,,,,,,,,,,,,,,,,,,,,,,0,-1716,Valid,signal,-45,1,1.921622900001239,1,3.0,3.2293220999999903,True,1,24,A,2023-09-20_08h27.09.144,exp3,2022.2.2,
,,,,,,,,,,,,,,,,,,,,,,,,0,1716,Invalid,signal,-45,1,2.3552509999717586,1,3.0,3.662882599979639,True,1,24,A,2023-09-20_08h27.09.144,exp3,2022.2.2,
,,,,,,,,,,,,,,,,,,,,,,,,0,-1158,Valid,noise,45,2,2.222341199987568,1,2.0,3.530039100034628,True,1,24,A,2023-09-20_08h27.09.144,exp3,2022.2.2,
,,,,,,,,,,,,,,,,,,,,,,,,0,-1716,Valid,noise,45,2,4.639899500005413,1,2.0,5.947383699996863,True,1,24,A,2023-09-20_08h27.09.144,exp3,2022.2.2,
,,,,,,,,,,,,,,,,,,,,,,,,0,557,Invalid,noise,-45,2,2.0380219999933615,1,3.0,3.3458221000037156,True,1,24,A,2023-09-20_08h27.09.144,exp3,2022.2.2,
,,,,,,,,,,,,,,,,,,,,,,,,0,-2274,Valid,noise,-45,2,2.188293000042904,1,3.0,3.496102500008419,True,1,24,A,2023-09-20_08h27.09.144,exp3,2022.2.2,
,,,,,,,,,,,,,,,,,,,,,,,,0,-1716,Invalid,noise,-45,2,2.1721962000010535,1,2.0,3.480014399974607,True,1,24,A,2023-09-20_08h27.09.144,exp3,2022.2.2,
,,,,,,,,,,,,,,,,,,,,,,,,0,2274,Valid,signal,45,1,1.821544099948369,1,4.0,3.129338600032497,True,1,24,A,2023-09-20_08h27.09.144,exp3,2022.2.2,
,,,,,,,,,,,,,,,,,,,,,,,,0,-1158,Invalid,signal,45,1,1.8383056000457145,1,2.0,3.1462333999807015,True,1,24,A,2023-09-20_08h27.09.144,exp3,2022.2.2,
,,,,,,,,,,,,,,,,,,,,,,,,0,-557,Valid,noise,45,2,1.6885323000024073,1,3.0,2.996394199959468,True,1,24,A,2023-09-20_08h27.09.144,exp3,2022.2.2,
,,,,,,,,,,,,,,,,,,,,,,,,0,-1716,Valid,signal,45,1,1.6213379999971949,1,4.0,2.9292279999936,True,1,24,A,2023-09-20_08h27.09.144,exp3,2022.2.2,
,,,,,,,,,,,,,,,,,,,,,,,,0,-1716,Valid,noise,45,2,1.8550725000095554,1,3.0,3.1630317000090145,True,1,24,A,2023-09-20_08h27.09.144,exp3,2022.2.2,
,,,,,,,,,,,,,,,,,,,,,,,,0,-557,Valid,noise,-45,2,1.471505299967248,1,4.0,2.7795112000312656,True,1,24,A,2023-09-20_08h27.09.144,exp3,2022.2.2,
,,,,,,,,,,,,,,,,,,,,,,,,0,-557,Valid,noise,45,2,3.122901999973692,1,4.0,4.430551400000695,True,1,24,A,2023-09-20_08h27.09.144,exp3,2022.2.2,
,,,,,,,,,,,,,,,,,,,,,,,,0,1158,Valid,signal,45,1,2.0544255999848247,1,4.0,3.3623597000259906,True,1,24,A,2023-09-20_08h27.09.144,exp3,2022.2.2,
,,,,,,,,,,,,,,,,,,,,,,,,0,1158,Invalid,signal,45,1,1.9058110000332817,1,4.0,3.213466099987272,True,1,24,A,2023-09-20_08h27.09.144,exp3,2022.2.2,
,,,,,,,,,,,,,,,,,,,,,,,,0,2274,Valid,signal,45,1,1.4214979000389576,1,4.0,2.7292807000339963,True,1,24,A,2023-09-20_08h27.09.144,exp3,2022.2.2,
,,,,,,,,,,,,,,,,,,,,,,,,0,1716,Valid,noise,-45,2,1.7886770000332035,1,3.0,3.096585099992808,True,1,24,A,2023-09-20_08h27.09.144,exp3,2022.2.2,
,,,,,,,,,,,,,,,,,,,,,,,,0,557,Valid,signal,45,1,1.4680330000119284,1,4.0,4.596867899992503,True,2,24,A,2023-09-20_08h27.09.144,exp3,2022.2.2,
,,,,,,,,,,,,,,,,,,,,,,,,0,2274,Valid,noise,45,2,3.2059568999684416,1,3.0,4.513649299973622,True,1,24,A,2023-09-20_08h27.09.144,exp3,2022.2.2,
,,,,,,,,,,,,,,,,,,,,,,,,0,2274,Valid,noise,45,2,1.687793100019917,1,3.0,2.995785999984946,True,1,24,A,2023-09-20_08h27.09.144,exp3,2022.2.2,
,,,,,,,,,,,,,,,,,,,,,,,,0,1716,Valid,signal,-45,1,1.6047861000406556,1,4.0,2.912647300050594,True,1,24,A,2023-09-20_08h27.09.144,exp3,2022.2.2,
,,,,,,,,,,,,,,,,,,,,,,,,0,1716,Valid,noise,-45,2,2.57225239998661,1,2.0,3.880163600028027,True,1,24,A,2023-09-20_08h27.09.144,exp3,2022.2.2,
,,,,,,,,,,,,,,,,,,,,,,,,0,557,Valid,noise,45,2,1.704841699975077,1,3.0,3.012803999998141,True,1,24,A,2023-09-20_08h27.09.144,exp3,2022.2.2,
,,,,,,,,,,,,,,,,,,,,,,,,0,-1716,Valid,signal,45,1,4.189408599981107,1,4.0,5.497366300027352,True,1,24,A,2023-09-20_08h27.09.144,exp3,2022.2.2,
,,,,,,,,,,,,,,,,,,,,,,,,0,-1716,Valid,signal,45,1,1.3221720999572426,1,4.0,2.6298330000136048,True,1,24,A,2023-09-20_08h27.09.144,exp3,2022.2.2,
,,,,,,,,,,,,,,,,,,,,,,,,0,1158,Valid,noise,45,2,1.5383387000183575,1,4.0,2.8457779999589548,True,1,24,A,2023-09-20_08h27.09.144,exp3,2022.2.2,
,,,,,,,,,,,,,,,,,,,,,,,,0,2274,Valid,signal,-45,2,1.0880937000038102,0,4.0,2.3957613999955356,True,1,24,A,2023-09-20_08h27.09.144,exp3,2022.2.2,
,,,,,,,,,,,,,,,,,,,,,,,,0,-1158,Valid,signal,-45,1,1.4392656000563875,1,4.0,2.7469473000383005,True,1,24,A,2023-09-20_08h27.09.144,exp3,2022.2.2,
,,,,,,,,,,,,,,,,,,,,,,,,0,-2274,Valid,signal,-45,2,1.820971200009808,0,1.0,3.1288830999983475,True,1,24,A,2023-09-20_08h27.09.144,exp3,2022.2.2,
,,,,,,,,,,,,,,,,,,,,,,,,0,1158,Valid,signal,-45,1,1.4547531999996863,1,4.0,2.762824800040107,True,1,24,A,2023-09-20_08h27.09.144,exp3,2022.2.2,
,,,,,,,,,,,,,,,,,,,,,,,,0,2274,Valid,signal,-45,1,2.155387599952519,1,3.0,3.4632668999838643,True,1,24,A,2023-09-20_08h27.09.144,exp3,2022.2.2,
,,,,,,,,,,,,,,,,,,,,,,,,0,2274,Invalid,signal,45,1,2.839371600013692,1,2.0,4.147171500022523,True,1,24,A,2023-09-20_08h27.09.144,exp3,2022.2.2,
,,,,,,,,,,,,,,,,,,,,,,,,0,-2274,Valid,signal,45,1,2.1385909000528045,1,3.0,3.4464181000366807,True,1,24,A,2023-09-20_08h27.09.144,exp3,2022.2.2,
,,,,,,,,,,,,,,,,,,,,,,,,0,-1158,Valid,noise,-45,2,2.321972999954596,1,2.0,3.6297766999923624,True,1,24,A,2023-09-20_08h27.09.144,exp3,2022.2.2,
,,,,,,,,,,,,,,,,,,,,,,,,0,1716,Valid,signal,-45,1,1.7550543999532238,1,3.0,3.0629425999941304,True,1,24,A,2023-09-20_08h27.09.144,exp3,2022.2.2,
,,,,,,,,,,,,,,,,,,,,,,,,0,2274,Invalid,noise,45,1,3.5390476000029594,0,4.0,4.84713940002257,True,1,24,A,2023-09-20_08h27.09.144,exp3,2022.2.2,
,,,,,,,,,,,,,,,,,,,,,,,,0,-1716,Valid,signal,-45,1,1.5711507000378333,1,3.0,2.8789468000177294,True,1,24,A,2023-09-20_08h27.09.144,exp3,2022.2.2,
,,,,,,,,,,,,,,,,,,,,,,,,0,-1716,Valid,noise,45,1,1.9223214000230655,0,2.0,3.2299040000070818,True,1,24,A,2023-09-20_08h27.09.144,exp3,2022.2.2,
,,,,,,,,,,,,,,,,,,,,,,,,0,-2274,Valid,signal,-45,1,1.3541818000376225,1,3.0,2.6623750000144355,True,1,24,A,2023-09-20_08h27.09.144,exp3,2022.2.2,
,,,,,,,,,,,,,,,,,,,,,,,,0,1158,Valid,signal,-45,1,1.1883836000342853,1,3.0,2.49617700005183,True,1,24,A,2023-09-20_08h27.09.144,exp3,2022.2.2,
,,,,,,,,,,,,,,,,,,,,,,,,0,557,Valid,noise,45,2,2.272068999998737,1,4.0,3.5800292000058107,True,1,24,A,2023-09-20_08h27.09.144,exp3,2022.2.2,
,,,,,,,,,,,,,,,,,,,,,,,,0,-557,Valid,signal,45,1,1.272024700010661,1,4.0,2.579665999975987,True,1,24,A,2023-09-20_08h27.09.144,exp3,2022.2.2,
,,,,,,,,,,,,,,,,,,,,,,,,0,-557,Invalid,noise,45,2,2.221938400005456,1,4.0,3.52974919998087,True,1,24,A,2023-09-20_08h27.09.144,exp3,2022.2.2,
,,,,,,,,,,,,,,,,,,,,,,,,0,-1158,Valid,signal,-45,1,1.2218141999910586,1,4.0,2.5295902999932878,True,1,24,A,2023-09-20_08h27.09.144,exp3,2022.2.2,
,,,,,,,,,,,,,,,,,,,,,,,,0,1158,Valid,noise,45,2,1.4375559999607503,1,4.0,2.7455112000461668,True,1,24,A,2023-09-20_08h27.09.144,exp3,2022.2.2,
,,,,,,,,,,,,,,,,,,,,,,,,0,1158,Invalid,noise,45,2,2.9229037000332028,1,3.0,4.230657299980521,True,1,24,A,2023-09-20_08h27.09.144,exp3,2022.2.2,
,,,,,,,,,,,,,,,,,,,,,,,,0,557,Valid,noise,-45,2,1.7712703999713995,1,3.0,3.07931830000598,True,1,24,A,2023-09-20_08h27.09.144,exp3,2022.2.2,
,,,,,,,,,,,,,,,,,,,,,,,,0,-1158,Valid,signal,-45,1,1.4220496999914758,1,4.0,2.729527399991639,True,1,24,A,2023-09-20_08h27.09.144,exp3,2022.2.2,
,,,,,,,,,,,,,,,,,,,,,,,,0,-1158,Valid,signal,45,1,1.6878193999873474,1,4.0,2.9958790999953635,True,1,24,A,2023-09-20_08h27.09.144,exp3,2022.2.2,
,,,,,,,,,,,,,,,,,,,,,,,,0,-2274,Valid,signal,45,1,1.6556400999543257,1,2.0,2.9636331999790855,True,1,24,A,2023-09-20_08h27.09.144,exp3,2022.2.2,
,,,,,,,,,,,,,,,,,,,,,,,,0,557,Valid,signal,-45,1,1.4711979000130668,1,4.0,2.779067900031805,True,1,24,A,2023-09-20_08h27.09.144,exp3,2022.2.2,
,,,,,,,,,,,,,,,,,,,,,,,,0,-1716,Valid,signal,-45,1,1.2546168999979272,1,4.0,2.5624810000299476,True,1,24,A,2023-09-20_08h27.09.144,exp3,2022.2.2,
,,,,,,,,,,,,,,,,,,,,,,,,0,-557,Invalid,signal,45,1,1.9725576000055298,1,4.0,3.280205200018827,True,1,24,A,2023-09-20_08h27.09.144,exp3,2022.2.2,
,,,,,,,,,,,,,,,,,,,,,,,,0,-557,Valid,signal,45,1,1.5548981999745592,1,4.0,2.862770300009288,True,1,24,A,2023-09-20_08h27.09.144,exp3,2022.2.2,
,,,,,,,,,,,,,,,,,,,,,,,,0,-1716,Invalid,noise,-45,2,2.3217403999879025,1,2.0,3.629606499976944,True,1,24,A,2023-09-20_08h27.09.144,exp3,2022.2.2,
,,,,,,,,,,,,,,,,,,,,,,,,0,-557,Valid,signal,45,1,1.6890611000126228,1,4.0,2.9966773000196554,True,1,24,A,2023-09-20_08h27.09.144,exp3,2022.2.2,
,,,,,,,,,,,,,,,,,,,,,,,,0,1158,Valid,noise,-45,2,1.3877814000006765,1,3.0,2.695538600033615,True,1,24,A,2023-09-20_08h27.09.144,exp3,2022.2.2,
,,,,,,,,,,,,,,,,,,,,,,,,0,2274,Valid,noise,45,2,3.8899765000096522,1,3.0,5.197759400005452,True,1,24,A,2023-09-20_08h27.09.144,exp3,2022.2.2,
,,,,,,,,,,,,,,,,,,,,,,,,0,1716,Valid,noise,-45,2,2.0216125000151806,1,3.0,3.329665199969895,True,1,24,A,2023-09-20_08h27.09.144,exp3,2022.2.2,
,,,,,,,,,,,,,,,,,,,,,,,,0,-2274,Valid,noise,-45,2,1.5879724000114948,1,3.0,2.8957002999959514,True,1,24,A,2023-09-20_08h27.09.144,exp3,2022.2.2,
,,,,,,,,,,,,,,,,,,,,,,,,0,-557,Valid,noise,-45,2,1.1048631999874488,1,3.0,2.4126108999480493,True,1,24,A,2023-09-20_08h27.09.144,exp3,2022.2.2,
,,,,,,,,,,,,,,,,,,,,,,,,0,1716,Valid,noise,45,2,1.337808899988886,1,3.0,2.645734799967613,True,1,24,A,2023-09-20_08h27.09.144,exp3,2022.2.2,
,,,,,,,,,,,,,,,,,,,,,,,,0,1716,Valid,signal,45,1,1.1558060999959707,1,4.0,2.46343209996121,True,1,24,A,2023-09-20_08h27.09.144,exp3,2022.2.2,
,,,,,,,,,,,,,,,,,,,,,,,,0,-1158,Valid,signal,-45,1,2.238647799997125,1,4.0,3.5466427999781445,True,1,24,A,2023-09-20_08h27.09.144,exp3,2022.2.2,
,,,,,,,,,,,,,,,,,,,,,,,,0,-557,Valid,signal,45,1,1.4043609999935143,1,4.0,2.712189399986528,True,1,24,A,2023-09-20_08h27.09.144,exp3,2022.2.2,
,,,,,,,,,,,,,,,,,,,,,,,,0,1716,Valid,noise,-45,2,1.504723499994725,1,2.0,2.8126501999795437,True,1,24,A,2023-09-20_08h27.09.144,exp3,2022.2.2,
,,,,,,,,,,,,,,,,,,,,,,,,0,-1716,Valid,noise,-45,1,4.239129599998705,0,2.0,5.546995799988508,True,1,24,A,2023-09-20_08h27.09.144,exp3,2022.2.2,
,,,,,,,,,,,,,,,,,,,,,,,,0,-2274,Valid,signal,-45,1,1.6724627999938093,1,2.0,2.980115200043656,True,1,24,A,2023-09-20_08h27.09.144,exp3,2022.2.2,
,,,,,,,,,,,,,,,,,,,,,,,,0,-1158,Valid,noise,-45,2,2.472231700026896,1,1.0,3.7800377999665216,True,1,24,A,2023-09-20_08h27.09.144,exp3,2022.2.2,
,,,,,,,,,,,,,,,,,,,,,,,,0,1716,Valid,noise,-45,2,1.6711667000199668,1,2.0,2.9789731000200845,True,1,24,A,2023-09-20_08h27.09.144,exp3,2022.2.2,
,,,,,,,,,,,,,,,,,,,,,,,,0,-557,Valid,noise,-45,2,7.007144400035031,1,3.0,8.314855400007218,True,1,24,A,2023-09-20_08h27.09.144,exp3,2022.2.2,
,,,,,,,,,,,,,,,,,,,,,,,,0,-1716,Valid,signal,-45,1,2.45502569997916,1,3.0,3.7628490999923088,True,1,24,A,2023-09-20_08h27.09.144,exp3,2022.2.2,
,,,,,,,,,,,,,,,,,,,,,,,,0,1158,Valid,signal,-45,1,1.8062177000101656,1,3.0,3.1137734000221826,True,1,24,A,2023-09-20_08h27.09.144,exp3,2022.2.2,
,,,,,,,,,,,,,,,,,,,,,,,,0,557,Valid,noise,45,2,2.387988900009077,1,4.0,3.6957177000003867,True,1,24,A,2023-09-20_08h27.09.144,exp3,2022.2.2,
,,,,,,,,,,,,,,,,,,,,,,,,0,-2274,Valid,noise,45,2,1.354836400016211,1,2.0,2.662894100008998,True,1,24,A,2023-09-20_08h27.09.144,exp3,2022.2.2,
,,,,,,,,,,,,,,,,,,,,,,,,0,-1716,Valid,noise,-45,2,1.4220586000010371,1,3.0,2.729690500011202,True,1,24,A,2023-09-20_08h27.09.144,exp3,2022.2.2,
,,,,,,,,,,,,,,,,,,,,,,,,0,2274,Valid,signal,-45,2,1.3221222999854945,0,3.0,2.6298971999785863,True,1,24,A,2023-09-20_08h27.09.144,exp3,2022.2.2,
,,,,,,,,,,,,,,,,,,,,,,,,0,1158,Invalid,noise,-45,2,2.204304000013508,1,2.0,3.512396699981764,True,1,24,A,2023-09-20_08h27.09.144,exp3,2022.2.2,
,,,,,,,,,,,,,,,,,,,,,,,,0,1716,Valid,signal,-45,1,1.288126600033138,1,4.0,2.595993900031317,True,1,24,A,2023-09-20_08h27.09.144,exp3,2022.2.2,
,,,,,,,,,,,,,,,,,,,,,,,,0,-1158,Valid,noise,-45,1,2.639428799971938,0,1.0,3.94703959999606,True,1,24,A,2023-09-20_08h27.09.144,exp3,2022.2.2,
,,,,,,,,,,,,,,,,,,,,,,,,0,557,Valid,noise,45,2,1.7378262999700382,1,4.0,3.0458532000193372,True,1,24,A,2023-09-20_08h27.09.144,exp3,2022.2.2,
,,,,,,,,,,,,,,,,,,,,,,,,0,-1158,Invalid,noise,-45,2,1.821968799980823,1,3.0,3.129829499986954,True,1,24,A,2023-09-20_08h27.09.144,exp3,2022.2.2,
,,,,,,,,,,,,,,,,,,,,,,,,0,-557,Valid,signal,-45,1,1.1378158999723382,1,4.0,2.445764100004453,True,1,24,A,2023-09-20_08h27.09.144,exp3,2022.2.2,
,,,,,,,,,,,,,,,,,,,,,,,,0,557,Invalid,signal,-45,1,2.005182099994272,1,4.0,3.312999200017657,True,1,24,A,2023-09-20_08h27.09.144,exp3,2022.2.2,
,,,,,,,,,,,,,,,,,,,,,,,,0,-1158,Valid,noise,45,2,1.9385807999642566,1,3.0,3.2465183999738656,True,1,24,A,2023-09-20_08h27.09.144,exp3,2022.2.2,
,,,,,,,,,,,,,,,,,,,,,,,,0,557,Valid,signal,-45,1,1.1216844999580644,1,4.0,2.429454799974337,True,1,24,A,2023-09-20_08h27.09.144,exp3,2022.2.2,
,,,,,,,,,,,,,,,,,,,,,,,,0,557,Invalid,noise,-45,2,1.7880176000180654,1,3.0,3.095999499957543,True,1,24,A,2023-09-20_08h27.09.144,exp3,2022.2.2,
,,,,,,,,,,,,,,,,,,,,,,,,0,-1158,Valid,signal,45,1,1.8721632999950089,1,4.0,3.179954799998086,True,1,24,A,2023-09-20_08h27.09.144,exp3,2022.2.2,
,,,,,,,,,,,,,,,,,,,,,,,,0,-557,Valid,signal,45,1,1.0215836999705061,1,4.0,2.3295067000435665,True,1,24,A,2023-09-20_08h27.09.144,exp3,2022.2.2,
,,,,,,,,,,,,,,,,,,,,,,,,0,1716,Invalid,signal,-45,1,1.8386202999972738,1,4.0,3.1465008999803104,True,1,24,A,2023-09-20_08h27.09.144,exp3,2022.2.2,
,,,,,,,,,,,,,,,,,,,,,,,,0,-1716,Valid,noise,-45,2,2.1714591999771073,1,3.0,3.479507800017018,True,1,24,A,2023-09-20_08h27.09.144,exp3,2022.2.2,
,,,,,,,,,,,,,,,,,,,,,,,,0,-557,Invalid,noise,-45,2,1.5550535999936983,1,3.0,2.862920099985786,True,1,24,A,2023-09-20_08h27.09.144,exp3,2022.2.2,
,,,,,,,,,,,,,,,,,,,,,,,,0,2274,Valid,noise,45,2,1.546162299986463,1,3.0,4.664287899970077,True,2,24,A,2023-09-20_08h27.09.144,exp3,2022.2.2,
,,,,,,,,,,,,,,,,,,,,,,,,0,-1158,Invalid,noise,-45,2,1.8044770999695174,1,3.0,3.112166100007016,True,1,24,A,2023-09-20_08h27.09.144,exp3,2022.2.2,
,,,,,,,,,,,,,,,,,,,,,,,,0,1158,Valid,noise,45,2,1.5719382999814115,1,3.0,2.8797128000296652,True,1,24,A,2023-09-20_08h27.09.144,exp3,2022.2.2,
,,,,,,,,,,,,,,,,,,,,,,,,0,-2274,Valid,signal,45,2,1.4052879000082612,0,3.0,2.713039199996274,True,1,24,A,2023-09-20_08h27.09.144,exp3,2022.2.2,
,,,,,,,,,,,,,,,,,,,,,,,,0,-1716,Invalid,signal,45,1,1.738861599995289,1,4.0,3.046463499951642,True,1,24,A,2023-09-20_08h27.09.144,exp3,2022.2.2,
,,,,,,,,,,,,,,,,,,,,,,,,0,1158,Valid,noise,45,2,1.6213751999894157,1,3.0,2.9291332000284456,True,1,24,A,2023-09-20_08h27.09.144,exp3,2022.2.2,
,,,,,,,,,,,,,,,,,,,,,,,,0,-1158,Valid,noise,45,2,3.18886500003282,1,3.0,4.496816300030332,True,1,24,A,2023-09-20_08h27.09.144,exp3,2022.2.2,
,,,,,,,,,,,,,,,,,,,,,,,,0,-557,Invalid,signal,-45,1,1.3548856999841519,1,4.0,2.662875299982261,True,1,24,A,2023-09-20_08h27.09.144,exp3,2022.2.2,
,,,,,,,,,,,,,,,,,,,,,,,,0,557,Valid,signal,-45,1,1.3713058999856003,1,4.0,2.6793469000258483,True,1,24,A,2023-09-20_08h27.09.144,exp3,2022.2.2,
,,,,,,,,,,,,,,,,,,,,,,,,0,-557,Valid,noise,-45,2,1.588671899982728,1,3.0,2.896543800015934,True,1,24,A,2023-09-20_08h27.09.144,exp3,2022.2.2,
,,,,,,,,,,,,,,,,,,,,,,,,0,2274,Valid,noise,-45,1,1.5380405999603681,0,2.0,2.8459509999956936,True,1,24,A,2023-09-20_08h27.09.144,exp3,2022.2.2,
,,,,,,,,,,,,,,,,,,,,,,,,0,-1716,Valid,signal,45,1,1.7217802999657579,1,3.0,3.0296392999589443,True,1,24,A,2023-09-20_08h27.09.144,exp3,2022.2.2,
,,,,,,,,,,,,,,,,,,,,,,,,0,-1716,Valid,noise,-45,2,2.705406600027345,1,4.0,4.0134657000307925,True,1,24,A,2023-09-20_08h27.09.144,exp3,2022.2.2,
,,,,,,,,,,,,,,,,,,,,,,,,0,-2274,Invalid,signal,-45,1,1.8890213000122458,1,3.0,3.196602999989409,True,1,24,A,2023-09-20_08h27.09.144,exp3,2022.2.2,
,,,,,,,,,,,,,,,,,,,,,,,,0,-2274,Valid,signal,45,2,1.888158600020688,0,3.0,3.1959592000348493,True,1,24,A,2023-09-20_08h27.09.144,exp3,2022.2.2,
,,,,,,,,,,,,,,,,,,,,,,,,0,557,Valid,signal,45,1,2.0222963000414893,1,4.0,3.3302190999966115,True,1,24,A,2023-09-20_08h27.09.144,exp3,2022.2.2,
,,,,,,,,,,,,,,,,,,,,,,,,0,-2274,Valid,signal,45,2,2.5719559999997728,0,2.0,3.8794460999779403,True,1,24,A,2023-09-20_08h27.09.144,exp3,2022.2.2,
,,,,,,,,,,,,,,,,,,,,,,,,0,557,Valid,signal,45,1,2.188752500049304,1,4.0,3.4963338000234216,True,1,24,A,2023-09-20_08h27.09.144,exp3,2022.2.2,
,,,,,,,,,,,,,,,,,,,,,,,,0,-2274,Invalid,noise,45,1,2.0049130999832414,0,3.0,3.312738700013142,True,1,24,A,2023-09-20_08h27.09.144,exp3,2022.2.2,
,,,,,,,,,,,,,,,,,,,,,,,,0,557,Invalid,signal,-45,2,3.2227815000223927,0,1.0,4.530464300012682,True,1,24,A,2023-09-20_08h27.09.144,exp3,2022.2.2,
,,,,,,,,,,,,,,,,,,,,,,,,0,-1716,Invalid,signal,45,1,3.8054421999840997,1,4.0,5.113200299965683,True,1,24,A,2023-09-20_08h27.09.144,exp3,2022.2.2,
,,,,,,,,,,,,,,,,,,,,,,,,0,1158,Valid,signal,-45,1,1.7053835000260733,1,4.0,3.0131938999984413,True,1,24,A,2023-09-20_08h27.09.144,exp3,2022.2.2,
,,,,,,,,,,,,,,,,,,,,,,,,0,-2274,Valid,noise,-45,2,2.739049999974668,1,4.0,4.04670550004812,True,1,24,A,2023-09-20_08h27.09.144,exp3,2022.2.2,
,,,,,,,,,,,,,,,,,,,,,,,,0,-1158,Invalid,signal,-45,1,1.4552458999678493,1,4.0,2.763051899964921,True,1,24,A,2023-09-20_08h27.09.144,exp3,2022.2.2,
,,,,,,,,,,,,,,,,,,,,,,,,0,1716,Valid,signal,-45,1,2.5049085000064224,1,4.0,3.8128034999826923,True,1,24,A,2023-09-20_08h27.09.144,exp3,2022.2.2,
,,,,,,,,,,,,,,,,,,,,,,,,0,-1158,Valid,noise,-45,2,1.2881333999685012,1,3.0,2.5961282000062056,True,1,24,A,2023-09-20_08h27.09.144,exp3,2022.2.2,
,,,,,,,,,,,,,,,,,,,,,,,,0,-2274,Valid,noise,45,2,1.405302400002256,1,3.0,2.7130797000136226,True,1,24,A,2023-09-20_08h27.09.144,exp3,2022.2.2,
,,,,,,,,,,,,,,,,,,,,,,,,0,557,Valid,noise,45,2,1.2715865999925882,1,3.0,2.579207100032363,True,1,24,A,2023-09-20_08h27.09.144,exp3,2022.2.2,
,,,,,,,,,,,,,,,,,,,,,,,,0,-2274,Valid,noise,-45,2,2.1719579999917187,1,3.0,3.479680599994026,True,1,24,A,2023-09-20_08h27.09.144,exp3,2022.2.2,
,,,,,,,,,,,,,,,,,,,,,,,,0,557,Valid,noise,-45,2,1.487792800005991,1,4.0,2.795636700000614,True,1,24,A,2023-09-20_08h27.09.144,exp3,2022.2.2,
,,,,,,,,,,,,,,,,,,,,,,,,0,-1158,Valid,noise,-45,2,1.3888704999699257,1,4.0,2.6967106999945827,True,1,24,A,2023-09-20_08h27.09.144,exp3,2022.2.2,
,,,,,,,,,,,,,,,,,,,,,,,,0,1716,Invalid,noise,-45,2,1.588484299951233,1,3.0,2.8963692999677733,True,1,24,A,2023-09-20_08h27.09.144,exp3,2022.2.2,
,,,,,,,,,,,,,,,,,,,,,,,,0,2274,Valid,noise,45,2,1.3046215000213124,1,3.0,2.612406399974134,True,1,24,A,2023-09-20_08h27.09.144,exp3,2022.2.2,
,,,,,,,,,,,,,,,,,,,,,,,,0,-557,Valid,signal,45,1,1.188385100045707,1,4.0,2.496181099966634,True,1,24,A,2023-09-20_08h27.09.144,exp3,2022.2.2,
,,,,,,,,,,,,,,,,,,,,,,,,0,-2274,Invalid,signal,-45,1,2.2216280000284314,1,2.0,3.5297485000337474,True,1,24,A,2023-09-20_08h27.09.144,exp3,2022.2.2,
,,,,,,,,,,,,,,,,,,,,,,,,0,1158,Valid,noise,45,2,1.9051192999468185,1,3.0,3.213254300004337,True,1,24,A,2023-09-20_08h27.09.144,exp3,2022.2.2,
,,,,,,,,,,,,,,,,,,,,,,,,0,1716,Valid,noise,45,2,0.8694649999961257,1,3.0,4.4634856000193395,True,2,24,A,2023-09-20_08h27.09.144,exp3,2022.2.2,
,,,,,,,,,,,,,,,,,,,,,,,,0,-1716,Valid,signal,45,1,1.1548800999880768,1,4.0,2.462730100029148,True,1,24,A,2023-09-20_08h27.09.144,exp3,2022.2.2,
,,,,,,,,,,,,,,,,,,,,,,,,0,2274,Invalid,signal,45,2,3.239374400000088,0,1.0,4.547041799989529,True,1,24,A,2023-09-20_08h27.09.144,exp3,2022.2.2,
,,,,,,,,,,,,,,,,,,,,,,,,0,-1716,Valid,noise,45,2,2.5218686999869533,1,3.0,3.829712900042068,True,1,24,A,2023-09-20_08h27.09.144,exp3,2022.2.2,
,,,,,,,,,,,,,,,,,,,,,,,,0,557,Valid,noise,45,2,1.2001866000355221,1,3.0,5.213989400013816,True,2,24,A,2023-09-20_08h27.09.144,exp3,2022.2.2,
,,,,,,,,,,,,,,,,,,,,,,,,0,-557,Valid,signal,45,1,1.3381305999937467,1,4.0,2.646142299985513,True,1,24,A,2023-09-20_08h27.09.144,exp3,2022.2.2,
,,,,,,,,,,,,,,,,,,,,,,,,0,-2274,Valid,noise,45,2,1.45497369999066,1,3.0,2.7629276999505237,True,1,24,A,2023-09-20_08h27.09.144,exp3,2022.2.2,
,,,,,,,,,,,,,,,,,,,,,,,,0,2274,Valid,noise,-45,2,3.1726926999981515,1,3.0,4.48050190001959,True,1,24,A,2023-09-20_08h27.09.144,exp3,2022.2.2,
,,,,,,,,,,,,,,,,,,,,,,,,0,-1158,Valid,signal,-45,1,1.52128529996844,1,4.0,2.829251600021962,True,1,24,A,2023-09-20_08h27.09.144,exp3,2022.2.2,
,,,,,,,,,,,,,,,,,,,,,,,,0,-557,Valid,noise,45,2,1.2552806999883614,1,4.0,2.562893099966459,True,1,24,A,2023-09-20_08h27.09.144,exp3,2022.2.2,
,,,,,,,,,,,,,,,,,,,,,,,,0,1158,Valid,signal,45,1,1.5213762000203133,1,4.0,2.8292389000416733,True,1,24,A,2023-09-20_08h27.09.144,exp3,2022.2.2,
,,,,,,,,,,,,,,,,,,,,,,,,0,1716,Valid,noise,45,1,6.50727060000645,0,2.0,7.81505350000225,True,1,24,A,2023-09-20_08h27.09.144,exp3,2022.2.2,
,,,,,,,,,,,,,,,,,,,,,,,,0,-1158,Valid,signal,45,1,1.1216651999857277,1,4.0,2.4295671999570914,True,1,24,A,2023-09-20_08h27.09.144,exp3,2022.2.2,
,,,,,,,,,,,,,,,,,,,,,,,,0,-557,Valid,noise,45,2,1.304981899971608,1,3.0,2.6129892999888398,True,1,24,A,2023-09-20_08h27.09.144,exp3,2022.2.2,
,,,,,,,,,,,,,,,,,,,,,,,,0,1716,Valid,signal,45,1,1.2047646999708377,1,4.0,2.512487300031353,True,1,24,A,2023-09-20_08h27.09.144,exp3,2022.2.2,
,,,,,,,,,,,,,,,,,,,,,,,,0,2274,Valid,noise,45,2,1.3033415999962017,1,4.0,4.763859600003343,True,2,24,A,2023-09-20_08h27.09.144,exp3,2022.2.2,
,,,,,,,,,,,,,,,,,,,,,,,,1,-1158,Invalid,signal,-45,1,6.050171299953945,1,3.0,7.358526199997868,True,1,24,A,2023-09-20_08h27.09.144,exp3,2022.2.2,
,,,,,,,,,,,,,,,,,,,,,,,,2,-1158,Invalid,noise,45,2,2.1203964999876916,1,3.0,3.428777099994477,True,1,24,A,2023-09-20_08h27.09.144,exp3,2022.2.2,
,,,,,,,,,,,,,,,,,,,,,,,,3,-2274,Invalid,noise,-45,2,1.788240699970629,1,3.0,3.0964129000203684,True,1,24,A,2023-09-20_08h27.09.144,exp3,2022.2.2,
,,,,,,,,,,,,,,,,,,,,,,,,4,-1158,Valid,signal,-45,1,1.121946300030686,1,4.0,2.429970199998934,True,1,24,A,2023-09-20_08h27.09.144,exp3,2022.2.2,
,,,,,,,,,,,,,,,,,,,,,,,,5,557,Valid,noise,45,2,1.2039171000360511,1,4.0,2.5120455999858677,True,1,24,A,2023-09-20_08h27.09.144,exp3,2022.2.2,
,,,,,,,,,,,,,,,,,,,,,,,,6,-1716,Invalid,signal,45,1,1.6055749999941327,1,4.0,2.9135550999781117,True,1,24,A,2023-09-20_08h27.09.144,exp3,2022.2.2,
,,,,,,,,,,,,,,,,,,,,,,,,7,-1158,Invalid,noise,-45,1,3.1876714999671094,0,2.0,4.496114200039301,True,1,24,A,2023-09-20_08h27.09.144,exp3,2022.2.2,
,,,,,,,,,,,,,,,,,,,,,,,,8,1716,Valid,noise,-45,2,2.255349999992177,1,2.0,3.5633338000043295,True,1,24,A,2023-09-20_08h27.09.144,exp3,2022.2.2,
,,,,,,,,,,,,,,,,,,,,,,,,9,-1158,Valid,noise,45,2,2.1884877999546006,1,2.0,3.496364699967671,True,1,24,A,2023-09-20_08h27.09.144,exp3,2022.2.2,
,,,,,,,,,,,,,,,,,,,,,,,,10,1158,Valid,noise,-45,2,1.654815099958796,1,3.0,2.963125200010836,True,1,24,A,2023-09-20_08h27.09.144,exp3,2022.2.2,
,,,,,,,,,,,,,,,,,,,,,,,,11,-557,Invalid,signal,45,1,1.5718987999716774,1,4.0,2.8799408999620937,True,1,24,A,2023-09-20_08h27.09.144,exp3,2022.2.2,
,,,,,,,,,,,,,,,,,,,,,,,,12,1158,Valid,signal,45,1,1.4040211999672465,1,4.0,2.7123009999631904,True,1,24,A,2023-09-20_08h27.09.144,exp3,2022.2.2,
,,,,,,,,,,,,,,,,,,,,,,,,13,1158,Valid,signal,-45,1,2.1379901000182144,1,4.0,3.4462538000079803,True,1,24,A,2023-09-20_08h27.09.144,exp3,2022.2.2,
,,,,,,,,,,,,,,,,,,,,,,,,14,557,Valid,signal,45,1,1.0049325000145473,1,4.0,2.3131715999916196,True,1,24,A,2023-09-20_08h27.09.144,exp3,2022.2.2,
,,,,,,,,,,,,,,,,,,,,,,,,15,1716,Valid,signal,45,1,1.2049884000443853,1,4.0,2.512776000017766,True,1,24,A,2023-09-20_08h27.09.144,exp3,2022.2.2,
,,,,,,,,,,,,,,,,,,,,,,,,16,1716,Valid,noise,-45,2,1.2371198000037111,1,4.0,2.545367599988822,True,1,24,A,2023-09-20_08h27.09.144,exp3,2022.2.2,
,,,,,,,,,,,,,,,,,,,,,,,,17,2274,Valid,signal,45,1,1.255588500003796,1,3.0,2.5633599999709986,True,1,24,A,2023-09-20_08h27.09.144,exp3,2022.2.2,
,,,,,,,,,,,,,,,,,,,,,,,,18,1158,Valid,noise,-45,2,1.6210991999832913,1,3.0,2.929087200027425,True,1,24,A,2023-09-20_08h27.09.144,exp3,2022.2.2,
,,,,,,,,,,,,,,,,,,,,,,,,19,-557,Valid,noise,45,2,1.154023299983237,1,4.0,2.4622872000327334,True,1,24,A,2023-09-20_08h27.09.144,exp3,2022.2.2,
,,,,,,,,,,,,,,,,,,,,,,,,20,1716,Valid,signal,45,1,1.9720146000036038,1,4.0,3.280009499983862,True,1,24,A,2023-09-20_08h27.09.144,exp3,2022.2.2,
,,,,,,,,,,,,,,,,,,,,,,,,21,557,Valid,signal,-45,2,2.4715961999609135,0,1.0,3.779630700009875,True,1,24,A,2023-09-20_08h27.09.144,exp3,2022.2.2,
,,,,,,,,,,,,,,,,,,,,,,,,22,-2274,Valid,noise,-45,2,1.2047696000081487,1,3.0,2.513001399987843,True,1,24,A,2023-09-20_08h27.09.144,exp3,2022.2.2,
,,,,,,,,,,,,,,,,,,,,,,,,23,-1158,Valid,noise,45,2,4.172104700002819,1,2.0,5.4804313000058755,True,1,24,A,2023-09-20_08h27.09.144,exp3,2022.2.2,
,,,,,,,,,,,,,,,,,,,,,,,,24,557,Invalid,signal,45,1,2.3226385000161827,1,4.0,3.630596400005743,True,1,24,A,2023-09-20_08h27.09.144,exp3,2022.2.2,
,,,,,,,,,,,,,,,,,,,,,,,,25,-1716,Invalid,signal,-45,1,2.1044254999724217,1,4.0,3.412676099978853,True,1,24,A,2023-09-20_08h27.09.144,exp3,2022.2.2,
,,,,,,,,,,,,,,,,,,,,,,,,26,-1158,Valid,noise,-45,2,1.4046533000073396,1,4.0,2.7127524000243284,True,1,24,A,2023-09-20_08h27.09.144,exp3,2022.2.2,
,,,,,,,,,,,,,,,,,,,,,,,,27,1716,Invalid,signal,45,1,1.2880869999644347,1,4.0,2.5960490999859758,True,1,24,A,2023-09-20_08h27.09.144,exp3,2022.2.2,
,,,,,,,,,,,,,,,,,,,,,,,,28,-1716,Valid,signal,-45,1,1.087575499957893,1,4.0,2.395897399983369,True,1,24,A,2023-09-20_08h27.09.144,exp3,2022.2.2,
,,,,,,,,,,,,,,,,,,,,,,,,29,2274,Valid,noise,45,2,1.5046221999800764,1,3.0,2.8127259999746457,True,1,24,A,2023-09-20_08h27.09.144,exp3,2022.2.2,
,,,,,,,,,,,,,,,,,,,,,,,,30,-1716,Valid,signal,45,1,1.0878283999627456,1,4.0,2.396083500003442,True,1,24,A,2023-09-20_08h27.09.144,exp3,2022.2.2,
,,,,,,,,,,,,,,,,,,,,,,,,31,-557,Valid,signal,45,1,1.104280200030189,1,4.0,2.412776500044856,True,1,24,A,2023-09-20_08h27.09.144,exp3,2022.2.2,
,,,,,,,,,,,,,,,,,,,,,,,,32,-557,Valid,signal,45,1,0.8210278000333346,1,4.0,2.129353699972853,True,1,24,A,2023-09-20_08h27.09.144,exp3,2022.2.2,
,,,,,,,,,,,,,,,,,,,,,,,,33,-2274,Valid,noise,45,2,1.2048968999879435,1,3.0,2.5128279999480583,True,1,24,A,2023-09-20_08h27.09.144,exp3,2022.2.2,
,,,,,,,,,,,,,,,,,,,,,,,,34,-1158,Valid,noise,45,2,1.9210269000031985,1,3.0,3.2293820999911986,True,1,24,A,2023-09-20_08h27.09.144,exp3,2022.2.2,
,,,,,,,,,,,,,,,,,,,,,,,,35,1158,Valid,noise,-45,2,1.1876339999726042,1,3.0,2.495887200057041,True,1,24,A,2023-09-20_08h27.09.144,exp3,2022.2.2,
,,,,,,,,,,,,,,,,,,,,,,,,36,-557,Valid,noise,-45,2,1.2214079999830574,1,3.0,2.5296332000289112,True,1,24,A,2023-09-20_08h27.09.144,exp3,2022.2.2,
,,,,,,,,,,,,,,,,,,,,,,,,37,-2274,Invalid,signal,45,1,1.505077200010419,1,3.0,2.813257400004659,True,1,24,A,2023-09-20_08h27.09.144,exp3,2022.2.2,
,,,,,,,,,,,,,,,,,,,,,,,,38,557,Valid,noise,45,2,0.8012009999947622,1,4.0,4.613370899984147,True,2,24,A,2023-09-20_08h27.09.144,exp3,2022.2.2,
,,,,,,,,,,,,,,,,,,,,,,,,39,557,Invalid,noise,-45,2,1.8477211999706924,1,4.0,6.297086699982174,True,2,24,A,2023-09-20_08h27.09.144,exp3,2022.2.2,
,,,,,,,,,,,,,,,,,,,,,,,,40,-2274,Valid,signal,-45,1,1.3051423000288196,1,2.0,2.6132678000140004,True,1,24,A,2023-09-20_08h27.09.144,exp3,2022.2.2,
,,,,,,,,,,,,,,,,,,,,,,,,41,-1716,Valid,noise,-45,2,1.420903799997177,1,3.0,2.7291724999668077,True,1,24,A,2023-09-20_08h27.09.144,exp3,2022.2.2,
,,,,,,,,,,,,,,,,,,,,,,,,42,1158,Valid,noise,-45,2,1.1215838000061922,1,3.0,2.429587699996773,True,1,24,A,2023-09-20_08h27.09.144,exp3,2022.2.2,
,,,,,,,,,,,,,,,,,,,,,,,,43,-557,Invalid,noise,45,2,1.2875837000319734,1,3.0,2.595792400010396,True,1,24,A,2023-09-20_08h27.09.144,exp3,2022.2.2,
,,,,,,,,,,,,,,,,,,,,,,,,44,557,Valid,noise,-45,2,1.6716737000388093,1,4.0,2.9799388999817893,True,1,24,A,2023-09-20_08h27.09.144,exp3,2022.2.2,
,,,,,,,,,,,,,,,,,,,,,,,,45,-1716,Valid,noise,-45,2,1.2541907000122592,1,4.0,2.5623224999872036,True,1,24,A,2023-09-20_08h27.09.144,exp3,2022.2.2,
,,,,,,,,,,,,,,,,,,,,,,,,46,-1158,Valid,signal,-45,1,1.5380759999970905,1,4.0,2.846359199960716,True,1,24,A,2023-09-20_08h27.09.144,exp3,2022.2.2,
,,,,,,,,,,,,,,,,,,,,,,,,47,-1158,Valid,signal,-45,1,1.1713126000249758,1,4.0,2.4794163000187837,True,1,24,A,2023-09-20_08h27.09.144,exp3,2022.2.2,
,,,,,,,,,,,,,,,,,,,,,,,,48,-2274,Valid,signal,-45,1,1.6545096000190824,1,4.0,2.9628254999988712,True,1,24,A,2023-09-20_08h27.09.144,exp3,2022.2.2,
,,,,,,,,,,,,,,,,,,,,,,,,49,2274,Valid,noise,45,2,1.4213910999824293,1,3.0,2.7295763999572955,True,1,24,A,2023-09-20_08h27.09.144,exp3,2022.2.2,
,,,,,,,,,,,,,,,,,,,,,,,,50,2274,Valid,noise,-45,2,1.1156270999927074,1,3.0,4.497158200014383,True,2,24,A,2023-09-20_08h27.09.144,exp3,2022.2.2,
,,,,,,,,,,,,,,,,,,,,,,,,51,1158,Valid,signal,45,1,1.3713653999730013,1,4.0,2.6795110999955796,True,1,24,A,2023-09-20_08h27.09.144,exp3,2022.2.2,
,,,,,,,,,,,,,,,,,,,,,,,,52,-2274,Valid,noise,-45,2,1.4876271999673918,1,3.0,2.7958476000349037,True,1,24,A,2023-09-20_08h27.09.144,exp3,2022.2.2,
,,,,,,,,,,,,,,,,,,,,,,,,53,557,Valid,signal,45,1,2.371584799955599,1,4.0,3.67986800003564,True,1,24,A,2023-09-20_08h27.09.144,exp3,2022.2.2,
,,,,,,,,,,,,,,,,,,,,,,,,54,1158,Invalid,noise,45,2,1.6546511999913491,1,3.0,2.962787800002843,True,1,24,A,2023-09-20_08h27.09.144,exp3,2022.2.2,
,,,,,,,,,,,,,,,,,,,,,,,,55,557,Invalid,signal,45,1,1.9550505999941379,1,4.0,3.263243099965621,True,1,24,A,2023-09-20_08h27.09.144,exp3,2022.2.2,
,,,,,,,,,,,,,,,,,,,,,,,,56,1158,Valid,signal,-45,1,1.3217380999703892,1,4.0,2.6300132000469603,True,1,24,A,2023-09-20_08h27.09.144,exp3,2022.2.2,
,,,,,,,,,,,,,,,,,,,,,,,,57,-2274,Valid,noise,45,2,3.2547186000156216,1,2.0,4.562741700035986,True,1,24,A,2023-09-20_08h27.09.144,exp3,2022.2.2,
,,,,,,,,,,,,,,,,,,,,,,,,58,-1716,Invalid,noise,-45,2,6.023827500001062,1,2.0,7.331953800050542,True,1,24,A,2023-09-20_08h27.09.144,exp3,2022.2.2,
,,,,,,,,,,,,,,,,,,,,,,,,59,-1716,Valid,noise,-45,2,1.8547737000044435,1,3.0,3.1626691999845207,True,1,24,A,2023-09-20_08h27.09.144,exp3,2022.2.2,
,,,,,,,,,,,,,,,,,,,,,,,,60,-557,Valid,noise,-45,2,2.129442300007213,1,4.0,6.964674999995623,True,3,24,A,2023-09-20_08h27.09.144,exp3,2022.2.2,
,,,,,,,,,,,,,,,,,,,,,,,,61,-1158,Valid,signal,45,1,1.0712379000033252,1,4.0,2.3794317999854684,True,1,24,A,2023-09-20_08h27.09.144,exp3,2022.2.2,
,,,,,,,,,,,,,,,,,,,,,,,,62,1158,Valid,noise,45,2,1.237019499996677,1,3.0,2.545422099996358,True,1,24,A,2023-09-20_08h27.09.144,exp3,2022.2.2,
,,,,,,,,,,,,,,,,,,,,,,,,63,557,Valid,noise,45,2,1.3052849000087008,1,4.0,2.6132644999888726,True,1,24,A,2023-09-20_08h27.09.144,exp3,2022.2.2,
,,,,,,,,,,,,,,,,,,,,,,,,64,2274,Valid,signal,-45,2,1.254374900017865,0,3.0,2.5623062000377104,True,1,24,A,2023-09-20_08h27.09.144,exp3,2022.2.2,
,,,,,,,,,,,,,,,,,,,,,,,,65,2274,Valid,noise,-45,2,1.2880998000036925,1,3.0,2.59622040000977,True,1,24,A,2023-09-20_08h27.09.144,exp3,2022.2.2,
,,,,,,,,,,,,,,,,,,,,,,,,66,1158,Valid,noise,-45,2,0.9204327000188641,1,3.0,2.2287060000235215,True,1,24,A,2023-09-20_08h27.09.144,exp3,2022.2.2,
,,,,,,,,,,,,,,,,,,,,,,,,67,-1716,Valid,noise,45,2,1.0880775999976322,1,3.0,2.3967482000007294,True,1,24,A,2023-09-20_08h27.09.144,exp3,2022.2.2,
,,,,,,,,,,,,,,,,,,,,,,,,68,557,Valid,signal,45,1,0.870611899998039,1,4.0,2.1786711999448016,True,1,24,A,2023-09-20_08h27.09.144,exp3,2022.2.2,
,,,,,,,,,,,,,,,,,,,,,,,,69,-1716,Valid,signal,-45,1,1.3877094000345096,1,4.0,2.695806099975016,True,1,24,A,2023-09-20_08h27.09.144,exp3,2022.2.2,
,,,,,,,,,,,,,,,,,,,,,,,,70,-1716,Valid,signal,45,1,0.988255999982357,1,4.0,2.296474299975671,True,1,24,A,2023-09-20_08h27.09.144,exp3,2022.2.2,
,,,,,,,,,,,,,,,,,,,,,,,,71,1716,Invalid,signal,45,1,1.3378737000166439,1,4.0,2.6461911000078544,True,1,24,A,2023-09-20_08h27.09.144,exp3,2022.2.2,
,,,,,,,,,,,,,,,,,,,,,,,,72,-2274,Valid,signal,45,2,2.3215747000067495,0,2.0,3.629792899999302,True,1,24,A,2023-09-20_08h27.09.144,exp3,2022.2.2,
,,,,,,,,,,,,,,,,,,,,,,,,73,-1716,Valid,noise,-45,1,1.9888577000238001,0,2.0,3.296860500006005,True,1,24,A,2023-09-20_08h27.09.144,exp3,2022.2.2,
,,,,,,,,,,,,,,,,,,,,,,,,74,557,Invalid,noise,45,2,1.1874170000082813,1,4.0,2.495726900000591,True,1,24,A,2023-09-20_08h27.09.144,exp3,2022.2.2,
,,,,,,,,,,,,,,,,,,,,,,,,75,-1716,Valid,signal,-45,1,1.105032499996014,1,3.0,2.4132168000214733,True,1,24,A,2023-09-20_08h27.09.144,exp3,2022.2.2,
,,,,,,,,,,,,,,,,,,,,,,,,76,-1158,Valid,signal,-45,1,1.736893599969335,1,2.0,3.0453386000008322,True,1,24,A,2023-09-20_08h27.09.144,exp3,2022.2.2,
,,,,,,,,,,,,,,,,,,,,,,,,77,557,Valid,signal,-45,1,1.1382161999936216,1,3.0,2.446237600001041,True,1,24,A,2023-09-20_08h27.09.144,exp3,2022.2.2,
,,,,,,,,,,,,,,,,,,,,,,,,78,2274,Invalid,noise,-45,1,1.9212711000000127,0,3.0,3.2295267000445165,True,1,24,A,2023-09-20_08h27.09.144,exp3,2022.2.2,
,,,,,,,,,,,,,,,,,,,,,,,,79,1158,Invalid,signal,-45,1,1.338614200009033,1,4.0,2.646656700002495,True,1,24,A,2023-09-20_08h27.09.144,exp3,2022.2.2,
,,,,,,,,,,,,,,,,,,,,,,,,80,2274,Valid,noise,45,2,1.4880276000476442,1,3.0,2.79615189996548,True,1,24,A,2023-09-20_08h27.09.144,exp3,2022.2.2,
,,,,,,,,,,,,,,,,,,,,,,,,81,-557,Valid,noise,45,2,1.2377440999844112,1,4.0,2.545645100006368,True,1,24,A,2023-09-20_08h27.09.144,exp3,2022.2.2,
,,,,,,,,,,,,,,,,,,,,,,,,82,557,Valid,noise,-45,2,0.6983132000314072,1,4.0,4.463113799982239,True,2,24,A,2023-09-20_08h27.09.144,exp3,2022.2.2,
,,,,,,,,,,,,,,,,,,,,,,,,83,-1716,Valid,noise,45,2,0.8377343000029214,1,4.0,2.146011400036514,True,1,24,A,2023-09-20_08h27.09.144,exp3,2022.2.2,
,,,,,,,,,,,,,,,,,,,,,,,,84,-1158,Valid,noise,-45,2,1.021482499956619,1,4.0,2.3295281999744475,True,1,24,A,2023-09-20_08h27.09.144,exp3,2022.2.2,
,,,,,,,,,,,,,,,,,,,,,,,,85,557,Valid,signal,-45,1,1.0935366000048816,1,4.0,4.2799746000091545,True,2,24,A,2023-09-20_08h27.09.144,exp3,2022.2.2,
,,,,,,,,,,,,,,,,,,,,,,,,86,1716,Valid,signal,-45,1,1.0715708000352606,1,4.0,2.379620200023055,True,1,24,A,2023-09-20_08h27.09.144,exp3,2022.2.2,
,,,,,,,,,,,,,,,,,,,,,,,,87,2274,Valid,noise,-45,2,1.5210899999947287,1,4.0,2.8292978000245057,True,1,24,A,2023-09-20_08h27.09.144,exp3,2022.2.2,
,,,,,,,,,,,,,,,,,,,,,,,,88,-557,Valid,noise,45,2,0.9208221000153571,1,4.0,2.22906470001908,True,1,24,A,2023-09-20_08h27.09.144,exp3,2022.2.2,
,,,,,,,,,,,,,,,,,,,,,,,,89,1716,Valid,signal,-45,1,1.8053197999834083,1,4.0,3.113484499976039,True,1,24,A,2023-09-20_08h27.09.144,exp3,2022.2.2,
,,,,,,,,,,,,,,,,,,,,,,,,90,1716,Valid,noise,-45,2,1.704918000032194,1,4.0,3.0127945999847725,True,1,24,A,2023-09-20_08h27.09.144,exp3,2022.2.2,
,,,,,,,,,,,,,,,,,,,,,,,,91,2274,Valid,noise,-45,2,4.838558599993121,1,4.0,6.146755199995823,True,1,24,A,2023-09-20_08h27.09.144,exp3,2022.2.2,
,,,,,,,,,,,,,,,,,,,,,,,,92,1158,Valid,noise,45,2,1.0214362999540754,1,4.0,2.329572700022254,True,1,24,A,2023-09-20_08h27.09.144,exp3,2022.2.2,
,,,,,,,,,,,,,,,,,,,,,,,,93,2274,Valid,signal,-45,2,0.9706978999893181,0,4.0,2.2790927999885753,True,1,24,A,2023-09-20_08h27.09.144,exp3,2022.2.2,
,,,,,,,,,,,,,,,,,,,,,,,,94,-1716,Valid,noise,45,2,0.7846494000405073,1,3.0,6.164078800007701,True,3,24,A,2023-09-20_08h27.09.144,exp3,2022.2.2,
,,,,,,,,,,,,,,,,,,,,,,,,95,557,Valid,noise,45,2,1.1884325999999419,1,3.0,2.4964164999546483,True,1,24,A,2023-09-20_08h27.09.144,exp3,2022.2.2,
,,,,,,,,,,,,,,,,,,,,,,,,96,1716,Valid,noise,45,2,1.0207395000034012,1,3.0,2.3285460000042804,True,1,24,A,2023-09-20_08h27.09.144,exp3,2022.2.2,
,,,,,,,,,,,,,,,,,,,,,,,,97,1716,Valid,signal,45,1,1.2233691000146791,1,3.0,4.1973044000333175,True,2,24,A,2023-09-20_08h27.09.144,exp3,2022.2.2,
,,,,,,,,,,,,,,,,,,,,,,,,98,2274,Invalid,signal,-45,1,1.3483497999841347,1,4.0,5.263251399970613,True,2,24,A,2023-09-20_08h27.09.144,exp3,2022.2.2,
,,,,,,,,,,,,,,,,,,,,,,,,99,1158,Valid,signal,-45,1,1.962988100014627,1,4.0,5.080797400034498,True,2,24,A,2023-09-20_08h27.09.144,exp3,2022.2.2,
,,,,,,,,,,,,,,,,,,,,,,,,100,2274,Valid,noise,45,2,2.8875406999723054,1,2.0,4.196147500013467,True,1,24,A,2023-09-20_08h27.09.144,exp3,2022.2.2,
,,,,,,,,,,,,,,,,,,,,,,,,101,557,Valid,noise,-45,2,2.538345900014974,1,3.0,3.84670220001135,True,1,24,A,2023-09-20_08h27.09.144,exp3,2022.2.2,
,,,,,,,,,,,,,,,,,,,,,,,,102,1716,Valid,signal,-45,1,1.287846699997317,1,4.0,2.5959471000242047,True,1,24,A,2023-09-20_08h27.09.144,exp3,2022.2.2,
,,,,,,,,,,,,,,,,,,,,,,,,103,1158,Valid,signal,45,1,1.1711311000399292,1,4.0,2.4794519999995828,True,1,24,A,2023-09-20_08h27.09.144,exp3,2022.2.2,
,,,,,,,,,,,,,,,,,,,,,,,,104,1716,Invalid,noise,45,2,1.8106293000164442,1,4.0,7.048133499978576,True,3,24,A,2023-09-20_08h27.09.144,exp3,2022.2.2,
,,,,,,,,,,,,,,,,,,,,,,,,105,-557,Valid,noise,45,2,1.8881786999991164,1,4.0,3.1961950000259094,True,1,24,A,2023-09-20_08h27.09.144,exp3,2022.2.2,
,,,,,,,,,,,,,,,,,,,,,,,,106,2274,Valid,signal,-45,1,2.305099599994719,1,2.0,3.6129864000249654,True,1,24,A,2023-09-20_08h27.09.144,exp3,2022.2.2,
,,,,,,,,,,,,,,,,,,,,,,,,107,-2274,Valid,noise,45,2,1.4385729000205174,1,3.0,2.7463771000038832,True,1,24,A,2023-09-20_08h27.09.144,exp3,2022.2.2,
,,,,,,,,,,,,,,,,,,,,,,,,108,-1158,Valid,signal,-45,1,0.953792100015562,1,3.0,2.2619238000479527,True,1,24,A,2023-09-20_08h27.09.144,exp3,2022.2.2,
,,,,,,,,,,,,,,,,,,,,,,,,109,-1158,Valid,noise,45,2,1.387827499944251,1,4.0,2.696095100021921,True,1,24,A,2023-09-20_08h27.09.144,exp3,2022.2.2,
,,,,,,,,,,,,,,,,,,,,,,,,110,-2274,Valid,signal,45,1,1.4712593999574892,1,2.0,2.7792902000364847,True,1,24,A,2023-09-20_08h27.09.144,exp3,2022.2.2,
,,,,,,,,,,,,,,,,,,,,,,,,111,2274,Valid,signal,45,1,1.635720600024797,1,3.0,7.798234099987894,True,2,24,A,2023-09-20_08h27.09.144,exp3,2022.2.2,
,,,,,,,,,,,,,,,,,,,,,,,,112,-1158,Valid,signal,-45,1,1.2379383000079542,1,3.0,2.54614120000042,True,1,24,A,2023-09-20_08h27.09.144,exp3,2022.2.2,
,,,,,,,,,,,,,,,,,,,,,,,,113,-2274,Valid,signal,45,2,1.3712983999866992,0,3.0,2.679444900015369,True,1,24,A,2023-09-20_08h27.09.144,exp3,2022.2.2,
,,,,,,,,,,,,,,,,,,,,,,,,114,-1716,Valid,signal,45,1,1.4882433000020683,1,4.0,2.7965476000099443,True,1,24,A,2023-09-20_08h27.09.144,exp3,2022.2.2,
,,,,,,,,,,,,,,,,,,,,,,,,115,-2274,Valid,signal,-45,1,1.2547153999912553,1,4.0,2.5626959999790415,True,1,24,A,2023-09-20_08h27.09.144,exp3,2022.2.2,
,,,,,,,,,,,,,,,,,,,,,,,,116,-557,Valid,signal,-45,1,1.0956746999872848,1,4.0,5.88033399998676,True,3,24,A,2023-09-20_08h27.09.144,exp3,2022.2.2,
,,,,,,,,,,,,,,,,,,,,,,,,117,-2274,Valid,signal,45,2,1.6543774000019766,0,3.0,2.9627608999726363,True,1,24,A,2023-09-20_08h27.09.144,exp3,2022.2.2,
,,,,,,,,,,,,,,,,,,,,,,,,118,-557,Valid,noise,-45,2,1.1831573999952525,1,3.0,14.618642200017348,True,6,24,A,2023-09-20_08h27.09.144,exp3,2022.2.2,
,,,,,,,,,,,,,,,,,,,,,,,,119,-557,Valid,signal,45,1,1.0703418000484817,1,4.0,2.378508599998895,True,1,24,A,2023-09-20_08h27.09.144,exp3,2022.2.2,
,,,,,,,,,,,,,,,,,,,,,,,,120,-1158,Valid,noise,45,2,1.3052720000268891,1,3.0,2.6131991999573074,True,1,24,A,2023-09-20_08h27.09.144,exp3,2022.2.2,
,,,,,,,,,,,,,,,,,,,,,,,,121,-2274,Valid,signal,45,2,2.60457809997024,0,2.0,3.9130789000191726,True,1,24,A,2023-09-20_08h27.09.144,exp3,2022.2.2,
,,,,,,,,,,,,,,,,,,,,,,,,122,-2274,Invalid,signal,-45,2,2.9388374999980442,0,1.0,4.2468795999884605,True,1,24,A,2023-09-20_08h27.09.144,exp3,2022.2.2,
,,,,,,,,,,,,,,,,,,,,,,,,123,-1158,Valid,signal,-45,1,1.288349999987986,1,4.0,2.5962709999876097,True,1,24,A,2023-09-20_08h27.09.144,exp3,2022.2.2,
,,,,,,,,,,,,,,,,,,,,,,,,124,1716,Valid,signal,-45,1,5.263883600011468,1,4.0,12.699787200021092,True,4,24,A,2023-09-20_08h27.09.144,exp3,2022.2.2,
,,,,,,,,,,,,,,,,,,,,,,,,125,-557,Invalid,signal,-45,1,1.7211794999893755,1,4.0,3.0295284999883734,True,1,24,A,2023-09-20_08h27.09.144,exp3,2022.2.2,
,,,,,,,,,,,,,,,,,,,,,,,,126,-557,Valid,signal,45,1,1.0211439999984577,1,4.0,2.3294287999742664,True,1,24,A,2023-09-20_08h27.09.144,exp3,2022.2.2,
,,,,,,,,,,,,,,,,,,,,,,,,127,-1158,Invalid,signal,45,1,1.1244660999509506,1,4.0,5.630685299984179,True,2,24,A,2023-09-20_08h27.09.144,exp3,2022.2.2,
,,,,,,,,,,,,,,,,,,,,,,,,128,1158,Valid,signal,45,1,1.1683976000058465,1,4.0,6.447014200035483,True,3,24,A,2023-09-20_08h27.09.144,exp3,2022.2.2,
,,,,,,,,,,,,,,,,,,,,,,,,129,1716,Valid,noise,45,2,2.422160799964331,1,2.0,3.7302548000006936,True,1,24,A,2023-09-20_08h27.09.144,exp3,2022.2.2,
,,,,,,,,,,,,,,,,,,,,,,,,130,2274,Valid,signal,-45,1,1.2034694000030868,1,3.0,8.981568299990613,True,4,24,A,2023-09-20_08h27.09.144,exp3,2022.2.2,
,,,,,,,,,,,,,,,,,,,,,,,,131,-1716,Invalid,noise,-45,2,1.6385299999965355,1,2.0,2.9465722999884747,True,1,24,A,2023-09-20_08h27.09.144,exp3,2022.2.2,
,,,,,,,,,,,,,,,,,,,,,,,,132,1716,Valid,noise,-45,2,1.6183269000030123,1,2.0,6.914197400037665,True,3,24,A,2023-09-20_08h27.09.144,exp3,2022.2.2,
,,,,,,,,,,,,,,,,,,,,,,,,133,-1716,Valid,signal,-45,1,1.146952900046017,1,3.0,4.346994900028221,True,2,24,A,2023-09-20_08h27.09.144,exp3,2022.2.2,
,,,,,,,,,,,,,,,,,,,,,,,,134,-2274,Valid,noise,-45,2,1.4046926000155509,1,3.0,2.712965299957432,True,1,24,A,2023-09-20_08h27.09.144,exp3,2022.2.2,
,,,,,,,,,,,,,,,,,,,,,,,,135,-1716,Valid,signal,-45,1,1.4554162999847904,1,4.0,11.266082299989648,True,6,24,A,2023-09-20_08h27.09.144,exp3,2022.2.2,
,,,,,,,,,,,,,,,,,,,,,,,,136,2274,Valid,signal,45,1,1.8551177000044845,1,2.0,3.163495500048157,True,1,24,A,2023-09-20_08h27.09.144,exp3,2022.2.2,
,,,,,,,,,,,,,,,,,,,,,,,,137,-557,Valid,signal,-45,1,1.2446718999999575,1,3.0,5.046649599971715,True,2,24,A,2023-09-20_08h27.09.144,exp3,2022.2.2,
,,,,,,,,,,,,,,,,,,,,,,,,138,2274,Valid,signal,-45,2,2.2380281999940053,0,3.0,3.5461521999677643,True,1,24,A,2023-09-20_08h27.09.144,exp3,2022.2.2,
,,,,,,,,,,,,,,,,,,,,,,,,139,-1716,Valid,signal,45,1,1.8458747999975458,1,4.0,6.547600999998394,True,3,24,A,2023-09-20_08h27.09.144,exp3,2022.2.2,
,,,,,,,,,,,,,,,,,,,,,,,,140,557,Valid,signal,45,1,1.2872319999733008,1,4.0,2.5955838999943808,True,1,24,A,2023-09-20_08h27.09.144,exp3,2022.2.2,
,,,,,,,,,,,,,,,,,,,,,,,,141,557,Valid,noise,45,2,1.478997000027448,1,3.0,10.099637900013477,True,4,24,A,2023-09-20_08h27.09.144,exp3,2022.2.2,
,,,,,,,,,,,,,,,,,,,,,,,,142,-557,Valid,noise,-45,2,1.0541593999951147,1,4.0,2.3623614000389352,True,1,24,A,2023-09-20_08h27.09.144,exp3,2022.2.2,
,,,,,,,,,,,,,,,,,,,,,,,,143,2274,Valid,noise,45,2,1.417133399983868,1,2.0,9.948843299993314,True,4,24,A,2023-09-20_08h27.09.144,exp3,2022.2.2,
,,,,,,,,,,,,,,,,,,,,,,,,144,2274,Invalid,signal,45,2,2.2388081999961287,0,3.0,3.5471712999860756,True,1,24,A,2023-09-20_08h27.09.144,exp3,2022.2.2,
,,,,,,,,,,,,,,,,,,,,,,,,145,557,Valid,noise,45,2,1.7850075999740511,1,3.0,5.129644499975257,True,2,24,A,2023-09-20_08h27.09.144,exp3,2022.2.2,
,,,,,,,,,,,,,,,,,,,,,,,,146,2274,Invalid,noise,45,2,1.3728022999712266,1,3.0,6.6147402000497095,True,2,24,A,2023-09-20_08h27.09.144,exp3,2022.2.2,
,,,,,,,,,,,,,,,,,,,,,,,,147,-2274,Valid,noise,45,2,1.854187400022056,1,3.0,3.16254770004889,True,1,24,A,2023-09-20_08h27.09.144,exp3,2022.2.2,
,,,,,,,,,,,,,,,,,,,,,,,,148,-2274,Valid,signal,45,1,1.3710842999862507,1,2.0,2.6792265999829397,True,1,24,A,2023-09-20_08h27.09.144,exp3,2022.2.2,
,,,,,,,,,,,,,,,,,,,,,,,,149,-557,Valid,signal,-45,1,2.124848400009796,1,4.0,5.414375499996822,True,2,24,A,2023-09-20_08h27.09.144,exp3,2022.2.2,
,,,,,,,,,,,,,,,,,,,,,,,,150,-1158,Valid,signal,45,1,0.9711342999944463,1,4.0,2.279226699960418,True,1,24,A,2023-09-20_08h27.09.144,exp3,2022.2.2,
,,,,,,,,,,,,,,,,,,,,,,,,151,-1158,Valid,noise,-45,1,1.6050812999601476,0,4.0,5.063051100005396,True,2,24,A,2023-09-20_08h27.09.144,exp3,2022.2.2,
,,,,,,,,,,,,,,,,,,,,,,,,152,-2274,Invalid,noise,45,2,5.657091600005515,1,2.0,6.965003499994054,True,1,24,A,2023-09-20_08h27.09.144,exp3,2022.2.2,
,,,,,,,,,,,,,,,,,,,,,,,,153,-557,Valid,signal,-45,1,1.0705300000263378,1,4.0,2.378776099998504,True,1,24,A,2023-09-20_08h27.09.144,exp3,2022.2.2,
,,,,,,,,,,,,,,,,,,,,,,,,154,1158,Invalid,signal,-45,1,1.7220450000022538,1,4.0,3.0299473000341095,True,1,24,A,2023-09-20_08h27.09.144,exp3,2022.2.2,
,,,,,,,,,,,,,,,,,,,,,,,,155,1158,Valid,signal,45,1,1.8882628999999724,1,4.0,3.1962122000404634,True,1,24,A,2023-09-20_08h27.09.144,exp3,2022.2.2,
,,,,,,,,,,,,,,,,,,,,,,,,156,1716,Invalid,noise,45,1,1.47177439997904,0,3.0,2.779832099971827,True,1,24,A,2023-09-20_08h27.09.144,exp3,2022.2.2,
,,,,,,,,,,,,,,,,,,,,,,,,157,-1158,Valid,noise,-45,2,1.3382848000037484,1,3.0,2.6461750000016764,True,1,24,A,2023-09-20_08h27.09.144,exp3,2022.2.2,
,,,,,,,,,,,,,,,,,,,,,,,,158,1158,Valid,noise,45,2,1.5037567000254057,1,3.0,2.812091399973724,True,1,24,A,2023-09-20_08h27.09.144,exp3,2022.2.2,
,,,,,,,,,,,,,,,,,,,,,,,,159,1716,Valid,noise,-45,2,1.1744759999564849,1,3.0,12.15017529996112,True,6,24,A,2023-09-20_08h27.09.144,exp3,2022.2.2,
,,,,,,,,,,,,,,,,,,,,,,,,160,-1716,Valid,noise,-45,2,1.0544693999690935,1,3.0,2.3625122999656014,True,1,24,A,2023-09-20_08h27.09.144,exp3,2022.2.2,
,,,,,,,,,,,,,,,,,,,,,,,,161,-2274,Valid,noise,-45,2,1.604098999989219,1,2.0,2.9124770000344142,True,1,24,A,2023-09-20_08h27.09.144,exp3,2022.2.2,
,,,,,,,,,,,,,,,,,,,,,,,,162,-557,Invalid,noise,45,2,1.7251350000151433,1,3.0,10.482931400008965,True,5,24,A,2023-09-20_08h27.09.144,exp3,2022.2.2,
,,,,,,,,,,,,,,,,,,,,,,,,163,-557,Valid,signal,-45,1,1.1038650999544188,1,4.0,2.4123652999987826,True,1,24,A,2023-09-20_08h27.09.144,exp3,2022.2.2,
,,,,,,,,,,,,,,,,,,,,,,,,164,557,Valid,signal,45,1,1.3038722000201233,1,4.0,2.6122805000049993,True,1,24,A,2023-09-20_08h27.09.144,exp3,2022.2.2,
,,,,,,,,,,,,,,,,,,,,,,,,165,1716,Valid,signal,45,1,1.6459554000175558,1,4.0,9.39957469998626,True,5,24,A,2023-09-20_08h27.09.144,exp3,2022.2.2,
,,,,,,,,,,,,,,,,,,,,,,,,166,1158,Valid,signal,-45,1,1.337986300000921,1,4.0,2.6460093000205234,True,1,24,A,2023-09-20_08h27.09.144,exp3,2022.2.2,
,,,,,,,,,,,,,,,,,,,,,,,,167,2274,Valid,signal,-45,1,1.3602776000043377,1,3.0,5.346625000005588,True,2,24,A,2023-09-20_08h27.09.144,exp3,2022.2.2,
,,,,,,,,,,,,,,,,,,,,,,,,168,1716,Valid,noise,45,1,1.387500899960287,0,2.0,2.6958681999822147,True,1,24,A,2023-09-20_08h27.09.144,exp3,2022.2.2,
,,,,,,,,,,,,,,,,,,,,,,,,169,1158,Invalid,noise,45,2,2.1384206999791786,1,2.0,3.4465796999866143,True,1,24,A,2023-09-20_08h27.09.144,exp3,2022.2.2,
,,,,,,,,,,,,,,,,,,,,,,,,170,-2274,Valid,noise,45,2,1.7670948000159115,1,2.0,5.264069800032303,True,2,24,A,2023-09-20_08h27.09.144,exp3,2022.2.2,
,,,,,,,,,,,,,,,,,,,,,,,,171,557,Valid,signal,-45,1,1.5257666000397876,1,4.0,8.09820690000197,True,4,24,A,2023-09-20_08h27.09.144,exp3,2022.2.2,
,,,,,,,,,,,,,,,,,,,,,,,,172,1716,Valid,noise,45,2,1.4713899999624118,1,4.0,10.31575760000851,True,5,24,A,2023-09-20_08h27.09.144,exp3,2022.2.2,
,,,,,,,,,,,,,,,,,,,,,,,,173,1716,Valid,signal,-45,1,1.3217918000300415,1,3.0,2.6300029000267386,True,1,24,A,2023-09-20_08h27.09.144,exp3,2022.2.2,
,,,,,,,,,,,,,,,,,,,,,,,,174,-557,Valid,noise,45,2,1.3874524000566453,1,3.0,2.695745299977716,True,1,24,A,2023-09-20_08h27.09.144,exp3,2022.2.2,
,,,,,,,,,,,,,,,,,,,,,,,,175,1158,Valid,noise,-45,2,3.12175519997254,1,3.0,4.430043999978807,True,1,24,A,2023-09-20_08h27.09.144,exp3,2022.2.2,
,,,,,,,,,,,,,,,,,,,,,,,,176,-1716,Valid,noise,45,2,1.1047014000359923,1,3.0,6.080868599994574,True,3,24,A,2023-09-20_08h27.09.144,exp3,2022.2.2,
,,,,,,,,,,,,,,,,,,,,,,,,2,-557,Valid,noise,45,2,1.939025399973616,1,4.0,3.24771960004,True,1,24,A,2023-09-20_08h27.09.144,exp3,2022.2.2,
,,,,,,,,,,,,,,,,,,,,,,,,4,-1716,Valid,noise,45,2,1.4370951000018977,1,4.0,2.745946500042919,True,1,24,A,2023-09-20_08h27.09.144,exp3,2022.2.2,
,,,,,,,,,,,,,,,,,,,,,,,,6,-557,Valid,signal,-45,1,1.1041966999764554,1,4.0,2.412613100023009,True,1,24,A,2023-09-20_08h27.09.144,exp3,2022.2.2,
,,,,,,,,,,,,,,,,,,,,,,,,8,-557,Valid,noise,45,2,0.937373899971135,1,3.0,2.2460093999980018,True,1,24,A,2023-09-20_08h27.09.144,exp3,2022.2.2,
,,,,,,,,,,,,,,,,,,,,,,,,10,1158,Invalid,noise,45,2,2.3212670999928378,1,3.0,3.6299194999737665,True,1,24,A,2023-09-20_08h27.09.144,exp3,2022.2.2,
,,,,,,,,,,,,,,,,,,,,,,,,12,-2274,Invalid,noise,-45,2,1.9707668999908492,1,2.0,3.279459199984558,True,1,24,A,2023-09-20_08h27.09.144,exp3,2022.2.2,
,,,,,,,,,,,,,,,,,,,,,,,,14,-2274,Valid,noise,-45,2,1.6211695999954827,1,3.0,2.9297883000108413,True,1,24,A,2023-09-20_08h27.09.144,exp3,2022.2.2,
,,,,,,,,,,,,,,,,,,,,,,,,16,-557,Valid,noise,45,2,1.50425830000313,1,3.0,2.812687899975572,True,1,24,A,2023-09-20_08h27.09.144,exp3,2022.2.2,
,,,,,,,,,,,,,,,,,,,,,,,,18,557,Valid,noise,45,2,0.9711014000349678,1,3.0,2.2793988999910653,True,1,24,A,2023-09-20_08h27.09.144,exp3,2022.2.2,
,,,,,,,,,,,,,,,,,,,,,,,,20,-1158,Valid,noise,45,2,1.1543333999579772,1,3.0,2.4627527000266127,True,1,24,A,2023-09-20_08h27.09.144,exp3,2022.2.2,
,,,,,,,,,,,,,,,,,,,,,,,,22,1716,Valid,noise,-45,2,0.9710735999979079,1,3.0,2.2793435000348836,True,1,24,A,2023-09-20_08h27.09.144,exp3,2022.2.2,
,,,,,,,,,,,,,,,,,,,,,,,,24,-1716,Invalid,signal,45,1,1.653948399994988,1,3.0,2.962482300004922,True,1,24,A,2023-09-20_08h27.09.144,exp3,2022.2.2,
,,,,,,,,,,,,,,,,,,,,,,,,26,1158,Valid,signal,45,1,1.2878815000294708,1,4.0,2.5963378999731503,True,1,24,A,2023-09-20_08h27.09.144,exp3,2022.2.2,
,,,,,,,,,,,,,,,,,,,,,,,,28,-1716,Valid,signal,-45,1,1.269987499981653,1,4.0,2.578599200001918,True,1,24,A,2023-09-20_08h27.09.144,exp3,2022.2.2,
,,,,,,,,,,,,,,,,,,,,,,,,30,-557,Valid,noise,-45,2,1.087594699987676,1,3.0,2.3960209999931976,True,1,24,A,2023-09-20_08h27.09.144,exp3,2022.2.2,
,,,,,,,,,,,,,,,,,,,,,,,,32,1716,Invalid,signal,-45,1,1.1877523000002839,1,4.0,2.4961683999863453,True,1,24,A,2023-09-20_08h27.09.144,exp3,2022.2.2,
,,,,,,,,,,,,,,,,,,,,,,,,34,2274,Valid,noise,45,2,1.404322799993679,1,3.0,2.7127172999898903,True,1,24,A,2023-09-20_08h27.09.144,exp3,2022.2.2,
,,,,,,,,,,,,,,,,,,,,,,,,36,-1716,Valid,noise,45,1,1.3376431000069715,0,3.0,2.6461534000118263,True,1,24,A,2023-09-20_08h27.09.144,exp3,2022.2.2,
,,,,,,,,,,,,,,,,,,,,,,,,38,-2274,Valid,noise,-45,2,2.33813549997285,1,3.0,3.6467893999652006,True,1,24,A,2023-09-20_08h27.09.144,exp3,2022.2.2,
,,,,,,,,,,,,,,,,,,,,,,,,40,557,Valid,noise,45,2,1.7542913000215776,1,3.0,3.0628813999937847,True,1,24,A,2023-09-20_08h27.09.144,exp3,2022.2.2,
,,,,,,,,,,,,,,,,,,,,,,,,42,557,Valid,signal,45,1,1.1537345999968238,1,4.0,2.4625228000222705,True,1,24,A,2023-09-20_08h27.09.144,exp3,2022.2.2,
,,,,,,,,,,,,,,,,,,,,,,,,44,1158,Valid,signal,45,1,0.8374314000247978,1,4.0,2.145750500028953,True,1,24,A,2023-09-20_08h27.09.144,exp3,2022.2.2,
,,,,,,,,,,,,,,,,,,,,,,,,46,-1716,Valid,signal,45,1,3.1718917000107467,1,4.0,4.480261600052472,True,1,24,A,2023-09-20_08h27.09.144,exp3,2022.2.2,
,,,,,,,,,,,,,,,,,,,,,,,,48,1158,Valid,noise,-45,2,1.22099739999976,1,4.0,2.5295278999838047,True,1,24,A,2023-09-20_08h27.09.144,exp3,2022.2.2,
,,,,,,,,,,,,,,,,,,,,,,,,50,-2274,Valid,signal,-45,1,1.0539462000015192,1,3.0,2.362612100027036,True,1,24,A,2023-09-20_08h27.09.144,exp3,2022.2.2,
,,,,,,,,,,,,,,,,,,,,,,,,52,-2274,Valid,signal,-45,1,1.815157699980773,1,3.0,5.480447800015099,True,2,24,A,2023-09-20_08h27.09.144,exp3,2022.2.2,
,,,,,,,,,,,,,,,,,,,,,,,,54,1158,Invalid,signal,45,1,1.4210892000119202,1,4.0,2.729685200029053,True,1,24,A,2023-09-20_08h27.09.144,exp3,2022.2.2,
,,,,,,,,,,,,,,,,,,,,,,,,56,-1158,Valid,signal,-45,1,0.8540183000150137,1,4.0,2.162698900036048,True,1,24,A,2023-09-20_08h27.09.144,exp3,2022.2.2,
,,,,,,,,,,,,,,,,,,,,,,,,58,2274,Valid,noise,45,2,1.1880488999886438,1,3.0,2.496454000007361,True,1,24,A,2023-09-20_08h27.09.144,exp3,2022.2.2,
,,,,,,,,,,,,,,,,,,,,,,,,60,557,Invalid,signal,-45,1,1.3539070999831893,1,4.0,2.6625174999935552,True,1,24,A,2023-09-20_08h27.09.144,exp3,2022.2.2,
,,,,,,,,,,,,,,,,,,,,,,,,62,2274,Valid,signal,45,2,1.418811299954541,0,2.0,5.246829500014428,True,2,24,A,2023-09-20_08h27.09.144,exp3,2022.2.2,
,,,,,,,,,,,,,,,,,,,,,,,,64,-1716,Valid,noise,-45,2,1.087861999985762,1,3.0,2.3962943000369705,True,1,24,A,2023-09-20_08h27.09.144,exp3,2022.2.2,
,,,,,,,,,,,,,,,,,,,,,,,,66,-2274,Invalid,noise,45,2,2.521318000042811,1,3.0,3.8297997000045143,True,1,24,A,2023-09-20_08h27.09.144,exp3,2022.2.2,
,,,,,,,,,,,,,,,,,,,,,,,,68,2274,Invalid,noise,-45,2,1.9042126999702305,1,3.0,3.212782899965532,True,1,24,A,2023-09-20_08h27.09.144,exp3,2022.2.2,
,,,,,,,,,,,,,,,,,,,,,,,,70,-557,Invalid,noise,45,2,1.0544094000360928,1,3.0,2.36285560001852,True,1,24,A,2023-09-20_08h27.09.144,exp3,2022.2.2,
,,,,,,,,,,,,,,,,,,,,,,,,72,1158,Valid,signal,45,1,1.4537026999751106,1,4.0,2.762376500002574,True,1,24,A,2023-09-20_08h27.09.144,exp3,2022.2.2,
,,,,,,,,,,,,,,,,,,,,,,,,74,-1716,Valid,signal,45,1,1.40454260003753,1,4.0,2.7129625999950804,True,1,24,A,2023-09-20_08h27.09.144,exp3,2022.2.2,
,,,,,,,,,,,,,,,,,,,,,,,,76,2274,Valid,noise,-45,2,1.9214124999707565,1,4.0,3.229777800035663,True,1,24,A,2023-09-20_08h27.09.144,exp3,2022.2.2,
,,,,,,,,,,,,,,,,,,,,,,,,78,-2274,Valid,noise,45,2,2.4214026000117883,1,3.0,3.729870499984827,True,1,24,A,2023-09-20_08h27.09.144,exp3,2022.2.2,
,,,,,,,,,,,,,,,,,,,,,,,,80,-1158,Valid,signal,-45,1,0.8704066000063904,1,4.0,2.179111899982672,True,1,24,A,2023-09-20_08h27.09.144,exp3,2022.2.2,
,,,,,,,,,,,,,,,,,,,,,,,,82,557,Invalid,signal,45,1,1.4047373000066727,1,4.0,2.7131739999749698,True,1,24,A,2023-09-20_08h27.09.144,exp3,2022.2.2,
,,,,,,,,,,,,,,,,,,,,,,,,84,1716,Valid,signal,-45,1,2.2541692999657243,1,4.0,3.562647200014908,True,1,24,A,2023-09-20_08h27.09.144,exp3,2022.2.2,
,,,,,,,,,,,,,,,,,,,,,,,,86,1716,Invalid,signal,45,1,0.8710040999576449,1,4.0,2.179321700008586,True,1,24,A,2023-09-20_08h27.09.144,exp3,2022.2.2,
,,,,,,,,,,,,,,,,,,,,,,,,88,2274,Valid,signal,45,1,0.8869220000342466,1,4.0,2.1958055999712087,True,1,24,A,2023-09-20_08h27.09.144,exp3,2022.2.2,
,,,,,,,,,,,,,,,,,,,,,,,,90,1158,Valid,signal,45,1,0.9041183000081219,1,4.0,2.2124514000024647,True,1,24,A,2023-09-20_08h27.09.144,exp3,2022.2.2,
,,,,,,,,,,,,,,,,,,,,,,,,92,-1158,Valid,signal,45,1,0.7706383999902755,1,4.0,2.0792469000443816,True,1,24,A,2023-09-20_08h27.09.144,exp3,2022.2.2,
,,,,,,,,,,,,,,,,,,,,,,,,94,-2274,Valid,noise,45,2,1.7713305999641307,1,4.0,3.0797550000133924,True,1,24,A,2023-09-20_08h27.09.144,exp3,2022.2.2,
,,,,,,,,,,,,,,,,,,,,,,,,96,557,Valid,signal,45,1,2.0747506999759935,1,4.0,5.063534900022205,True,2,24,A,2023-09-20_08h27.09.144,exp3,2022.2.2,
,,,,,,,,,,,,,,,,,,,,,,,,98,557,Valid,noise,-45,2,1.0216291000251658,1,3.0,2.330108400026802,True,1,24,A,2023-09-20_08h27.09.144,exp3,2022.2.2,
,,,,,,,,,,,,,,,,,,,,,,,,100,2274,Valid,signal,-45,1,1.6666876999661326,1,4.0,6.530847800022457,True,3,24,A,2023-09-20_08h27.09.144,exp3,2022.2.2,
,,,,,,,,,,,,,,,,,,,,,,,,102,-1158,Valid,noise,-45,2,2.8884757999912836,1,3.0,4.196748599992134,True,1,24,A,2023-09-20_08h27.09.144,exp3,2022.2.2,
,,,,,,,,,,,,,,,,,,,,,,,,104,1716,Valid,noise,-45,2,1.3374954999890178,1,3.0,2.6459533000015654,True,1,24,A,2023-09-20_08h27.09.144,exp3,2022.2.2,
,,,,,,,,,,,,,,,,,,,,,,,,106,-2274,Valid,signal,-45,1,1.0543474999722093,1,4.0,2.362674900039565,True,1,24,A,2023-09-20_08h27.09.144,exp3,2022.2.2,
,,,,,,,,,,,,,,,,,,,,,,,,108,2274,Valid,signal,45,1,0.9709572000429034,1,4.0,2.27931890002219,True,1,24,A,2023-09-20_08h27.09.144,exp3,2022.2.2,
,,,,,,,,,,,,,,,,,,,,,,,,110,557,Valid,noise,45,2,1.8706701999763027,1,2.0,3.1790361999883316,True,1,24,A,2023-09-20_08h27.09.144,exp3,2022.2.2,
,,,,,,,,,,,,,,,,,,,,,,,,112,1716,Valid,signal,-45,1,0.7637335000326857,1,4.0,3.7296085999696516,True,2,24,A,2023-09-20_08h27.09.144,exp3,2022.2.2,
,,,,,,,,,,,,,,,,,,,,,,,,114,557,Valid,signal,-45,1,1.8545609000138938,1,4.0,3.1630838999990374,True,1,24,A,2023-09-20_08h27.09.144,exp3,2022.2.2,
,,,,,,,,,,,,,,,,,,,,,,,,116,557,Valid,noise,-45,2,1.0548043999588117,1,3.0,2.3631014000275172,True,1,24,A,2023-09-20_08h27.09.144,exp3,2022.2.2,
,,,,,,,,,,,,,,,,,,,,,,,,118,-1716,Valid,noise,-45,2,1.1597682000137866,1,4.0,8.781520900025498,True,5,24,A,2023-09-20_08h27.09.144,exp3,2022.2.2,
,,,,,,,,,,,,,,,,,,,,,,,,120,-2274,Valid,signal,45,1,1.552976300008595,1,4.0,7.114703800005373,True,3,24,A,2023-09-20_08h27.09.144,exp3,2022.2.2,
,,,,,,,,,,,,,,,,,,,,,,,,122,1716,Invalid,noise,-45,2,1.004648800007999,1,3.0,2.3128270999877714,True,1,24,A,2023-09-20_08h27.09.144,exp3,2022.2.2,
,,,,,,,,,,,,,,,,,,,,,,,,124,557,Invalid,noise,45,2,2.887251499982085,1,3.0,4.195868400041945,True,1,24,A,2023-09-20_08h27.09.144,exp3,2022.2.2,
,,,,,,,,,,,,,,,,,,,,,,,,126,1716,Valid,noise,45,2,1.0041987999575213,1,3.0,2.312621899996884,True,1,24,A,2023-09-20_08h27.09.144,exp3,2022.2.2,
,,,,,,,,,,,,,,,,,,,,,,,,128,2274,Invalid,signal,45,2,1.1708839000202715,0,3.0,2.4795722999842837,True,1,24,A,2023-09-20_08h27.09.144,exp3,2022.2.2,
,,,,,,,,,,,,,,,,,,,,,,,,130,-2274,Valid,signal,-45,2,2.4871550000389107,0,3.0,6.064241399988532,True,2,24,A,2023-09-20_08h27.09.144,exp3,2022.2.2,
