trials.label,trials.startVal,trials.maxVal,trials.minVal,trials.startValSd,trials.pthreshold,trials.beta,trials.delta,trials.gamma,trials.grain,trials.stepSize,trials.range,trials.cue,trials.thisIndex,trials.thisRepN,trials.thisN,trials.direction,trials.stepType,trials.intensity,signalOpacity,level,trials.response,stair_eye_ok,nTrial,position,validity,Stimulus,orientation,response_key,response_rt,response_correct,confidence,confidence_rt,eye_ok,participant,session,date,expName,psychopyVersion,
high_opac_v,0.01,1,0.01,3,0.82,3.5,0.01,0,0.01,4,5,Valid,1,1,0,start,lin,0.01,0,0.01,1,True,,,,,,,,,,,,6,A,2023-09-01_09h14.05.678,exp3,2022.2.2,
low_opac_i,0.4,1,0.01,3,0.82,3.5,0.01,0,0.01,4,5,Invalid,2,1,1,start,lin,0.4,0.4,0.4,1,True,,,,,,,,,,,,6,A,2023-09-01_09h14.05.678,exp3,2022.2.2,
low_opac_v,0.4,1,0.01,3,0.82,3.5,0.01,0,0.01,4,5,Valid,0,1,2,start,lin,0.4,0,0.4,1,True,,,,,,,,,,,,6,A,2023-09-01_09h14.05.678,exp3,2022.2.2,
low_opac_i,0.4,1,0.01,3,0.82,3.5,0.01,0,0.01,4,5,Invalid,2,2,3,start,lin,0.01,0,0.01,1,True,,,,,,,,,,,,6,A,2023-09-01_09h14.05.678,exp3,2022.2.2,
low_opac_v,0.4,1,0.01,3,0.82,3.5,0.01,0,0.01,4,5,Valid,0,2,4,start,lin,0.01,0.01,0.01,0,True,,,,,,,,,,,,6,A,2023-09-01_09h14.05.678,exp3,2022.2.2,
high_opac_v,0.01,1,0.01,3,0.82,3.5,0.01,0,0.01,4,5,Valid,1,2,5,start,lin,0.01,0,0.01,1,True,,,,,,,,,,,,6,A,2023-09-01_09h14.05.678,exp3,2022.2.2,
high_opac_v,0.01,1,0.01,3,0.82,3.5,0.01,0,0.01,4,5,Valid,1,3,6,start,lin,0.01,0,0.01,1,True,,,,,,,,,,,,6,A,2023-09-01_09h14.05.678,exp3,2022.2.2,
low_opac_v,0.4,1,0.01,3,0.82,3.5,0.01,0,0.01,4,5,Valid,0,3,7,start,lin,0.3144098688205103,0.3144098688205103,0.3144098688205103,1,True,,,,,,,,,,,,6,A,2023-09-01_09h14.05.678,exp3,2022.2.2,
low_opac_i,0.4,1,0.01,3,0.82,3.5,0.01,0,0.01,4,5,Invalid,2,3,8,start,lin,0.01,0.01,0.01,0,True,,,,,,,,,,,,6,A,2023-09-01_09h14.05.678,exp3,2022.2.2,
low_opac_i,0.4,1,0.01,3,0.82,3.5,0.01,0,0.01,4,5,Invalid,2,4,9,start,lin,0.11291000027026754,0,0.11291000027026754,1,True,,,,,,,,,,,,6,A,2023-09-01_09h14.05.678,exp3,2022.2.2,
low_opac_v,0.4,1,0.01,3,0.82,3.5,0.01,0,0.01,4,5,Valid,0,4,10,start,lin,0.23561159539411833,0,0.23561159539411833,1,True,,,,,,,,,,,,6,A,2023-09-01_09h14.05.678,exp3,2022.2.2,
high_opac_v,0.01,1,0.01,3,0.82,3.5,0.01,0,0.01,4,5,Valid,1,4,11,start,lin,0.01,0,0.01,1,True,,,,,,,,,,,,6,A,2023-09-01_09h14.05.678,exp3,2022.2.2,
high_opac_v,0.01,1,0.01,3,0.82,3.5,0.01,0,0.01,4,5,Valid,1,5,12,start,lin,0.01,0,0.01,1,True,,,,,,,,,,,,6,A,2023-09-01_09h14.05.678,exp3,2022.2.2,
low_opac_i,0.4,1,0.01,3,0.82,3.5,0.01,0,0.01,4,5,Invalid,2,5,13,start,lin,0.055546079649276214,0.055546079649276214,0.055546079649276214,0,True,,,,,,,,,,,,6,A,2023-09-01_09h14.05.678,exp3,2022.2.2,
low_opac_v,0.4,1,0.01,3,0.82,3.5,0.01,0,0.01,4,5,Valid,0,5,14,start,lin,0.1841780991895161,0,0.1841780991895161,1,True,,,,,,,,,,,,6,A,2023-09-01_09h14.05.678,exp3,2022.2.2,
low_opac_v,0.4,1,0.01,3,0.82,3.5,0.01,0,0.01,4,5,Valid,0,6,15,start,lin,0.14081453445857006,0.14081453445857006,0.14081453445857006,1,True,,,,,,,,,,,,6,A,2023-09-01_09h14.05.678,exp3,2022.2.2,
low_opac_i,0.4,1,0.01,3,0.82,3.5,0.01,0,0.01,4,5,Invalid,2,6,16,start,lin,0.16915316766928282,0,0.16915316766928282,1,True,,,,,,,,,,,,6,A,2023-09-01_09h14.05.678,exp3,2022.2.2,
high_opac_v,0.01,1,0.01,3,0.82,3.5,0.01,0,0.01,4,5,Valid,1,6,17,start,lin,0.01,0.01,0.01,0,True,,,,,,,,,,,,6,A,2023-09-01_09h14.05.678,exp3,2022.2.2,
high_opac_v,0.01,1,0.01,3,0.82,3.5,0.01,0,0.01,4,5,Valid,1,7,18,start,lin,0.01,0.01,0.01,0,True,,,,,,,,,,,,6,A,2023-09-01_09h14.05.678,exp3,2022.2.2,
low_opac_v,0.4,1,0.01,3,0.82,3.5,0.01,0,0.01,4,5,Valid,0,7,19,start,lin,0.10410764613410528,0.10410764613410528,0.10410764613410528,1,True,,,,,,,,,,,,6,A,2023-09-01_09h14.05.678,exp3,2022.2.2,
low_opac_i,0.4,1,0.01,3,0.82,3.5,0.01,0,0.01,4,5,Invalid,2,7,20,start,lin,0.14521080678131015,0,0.14521080678131015,1,True,,,,,,,,,,,,6,A,2023-09-01_09h14.05.678,exp3,2022.2.2,
high_opac_v,0.01,1,0.01,3,0.82,3.5,0.01,0,0.01,4,5,Valid,1,8,21,start,lin,0.04257094025112948,0,0.04257094025112948,1,True,,,,,,,,,,,,6,A,2023-09-01_09h14.05.678,exp3,2022.2.2,
low_opac_v,0.4,1,0.01,3,0.82,3.5,0.01,0,0.01,4,5,Valid,0,8,22,start,lin,0.06939770050553568,0.06939770050553568,0.06939770050553568,0,True,,,,,,,,,,,,6,A,2023-09-01_09h14.05.678,exp3,2022.2.2,
low_opac_i,0.4,1,0.01,3,0.82,3.5,0.01,0,0.01,4,5,Invalid,2,8,23,start,lin,0.12730956115660075,0,0.12730956115660075,1,True,,,,,,,,,,,,6,A,2023-09-01_09h14.05.678,exp3,2022.2.2,
high_opac_v,0.01,1,0.01,3,0.82,3.5,0.01,0,0.01,4,5,Valid,1,9,24,start,lin,0.029174320101899374,0,0.029174320101899374,1,True,,,,,,,,,,,,6,A,2023-09-01_09h14.05.678,exp3,2022.2.2,
low_opac_v,0.4,1,0.01,3,0.82,3.5,0.01,0,0.01,4,5,Valid,0,9,25,start,lin,0.15355165060147863,0,0.15355165060147863,1,True,,,,,,,,,,,,6,A,2023-09-01_09h14.05.678,exp3,2022.2.2,
low_opac_i,0.4,1,0.01,3,0.82,3.5,0.01,0,0.01,4,5,Invalid,2,9,26,start,lin,0.11237162559530067,0.11237162559530067,0.11237162559530067,1,True,,,,,,,,,,,,6,A,2023-09-01_09h14.05.678,exp3,2022.2.2,
high_opac_v,0.01,1,0.01,3,0.82,3.5,0.01,0,0.01,4,5,Valid,1,10,27,start,lin,0.017037907981176666,0.017037907981176666,0.017037907981176666,0,True,,,,,,,,,,,,6,A,2023-09-01_09h14.05.678,exp3,2022.2.2,
low_opac_i,0.4,1,0.01,3,0.82,3.5,0.01,0,0.01,4,5,Invalid,2,10,28,start,lin,0.0990055231818932,0.0990055231818932,0.0990055231818932,1,True,,,,,,,,,,,,6,A,2023-09-01_09h14.05.678,exp3,2022.2.2,
low_opac_v,0.4,1,0.01,3,0.82,3.5,0.01,0,0.01,4,5,Valid,0,10,29,start,lin,0.1380266354329187,0.1380266354329187,0.1380266354329187,1,True,,,,,,,,,,,,6,A,2023-09-01_09h14.05.678,exp3,2022.2.2,
low_opac_v,0.4,1,0.01,3,0.82,3.5,0.01,0,0.01,4,5,Valid,0,11,30,start,lin,0.125004370058504,0,0.125004370058504,1,True,,,,,,,,,,,,6,A,2023-09-01_09h14.05.678,exp3,2022.2.2,
high_opac_v,0.01,1,0.01,3,0.82,3.5,0.01,0,0.01,4,5,Valid,1,11,31,start,lin,0.05780493068975666,0,0.05780493068975666,1,True,,,,,,,,,,,,6,A,2023-09-01_09h14.05.678,exp3,2022.2.2,
low_opac_i,0.4,1,0.01,3,0.82,3.5,0.01,0,0.01,4,5,Invalid,2,11,32,start,lin,0.08742720975672519,0.08742720975672519,0.08742720975672519,1,True,,,,,,,,,,,,6,A,2023-09-01_09h14.05.678,exp3,2022.2.2,
low_opac_i,0.4,1,0.01,3,0.82,3.5,0.01,0,0.01,4,5,Invalid,2,12,33,start,lin,0.07700123801093589,0.07700123801093589,0.07700123801093589,1,True,,,,,,,,,,,,6,A,2023-09-01_09h14.05.678,exp3,2022.2.2,
low_opac_v,0.4,1,0.01,3,0.82,3.5,0.01,0,0.01,4,5,Valid,0,12,34,start,lin,0.11364174704197288,0.11364174704197288,0.11364174704197288,1,True,,,,,,,,,,,,6,A,2023-09-01_09h14.05.678,exp3,2022.2.2,
high_opac_v,0.01,1,0.01,3,0.82,3.5,0.01,0,0.01,4,5,Valid,1,12,35,start,lin,0.04996190531078847,0.04996190531078847,0.04996190531078847,1,True,,,,,,,,,,,,6,A,2023-09-01_09h14.05.678,exp3,2022.2.2,
low_opac_i,0.4,1,0.01,3,0.82,3.5,0.01,0,0.01,4,5,Invalid,2,13,36,start,lin,0.06732372455594193,0,0.06732372455594193,1,True,,,,,,,,,,,,6,A,2023-09-01_09h14.05.678,exp3,2022.2.2,
high_opac_v,0.01,1,0.01,3,0.82,3.5,0.01,0,0.01,4,5,Valid,1,13,37,start,lin,0.04273178043090958,0,0.04273178043090958,1,True,,,,,,,,,,,,6,A,2023-09-01_09h14.05.678,exp3,2022.2.2,
low_opac_v,0.4,1,0.01,3,0.82,3.5,0.01,0,0.01,4,5,Valid,0,13,38,start,lin,0.1025611489866346,0,0.1025611489866346,1,True,,,,,,,,,,,,6,A,2023-09-01_09h14.05.678,exp3,2022.2.2,
high_opac_v,0.01,1,0.01,3,0.82,3.5,0.01,0,0.01,4,5,Valid,1,14,39,start,lin,0.03590059592645203,0.03590059592645203,0.03590059592645203,0,True,,,,,,,,,,,,6,A,2023-09-01_09h14.05.678,exp3,2022.2.2,
low_opac_v,0.4,1,0.01,3,0.82,3.5,0.01,0,0.01,4,5,Valid,0,14,40,start,lin,0.09239202259273654,0.09239202259273654,0.09239202259273654,1,True,,,,,,,,,,,,6,A,2023-09-01_09h14.05.678,exp3,2022.2.2,
low_opac_i,0.4,1,0.01,3,0.82,3.5,0.01,0,0.01,4,5,Invalid,2,14,41,start,lin,0.05811332258622098,0.05811332258622098,0.05811332258622098,1,True,,,,,,,,,,,,6,A,2023-09-01_09h14.05.678,exp3,2022.2.2,
low_opac_v,0.4,1,0.01,3,0.82,3.5,0.01,0,0.01,4,5,Valid,0,15,42,start,lin,0.08285711200237861,0.08285711200237861,0.08285711200237861,1,True,,,,,,,,,,,,6,A,2023-09-01_09h14.05.678,exp3,2022.2.2,
low_opac_i,0.4,1,0.01,3,0.82,3.5,0.01,0,0.01,4,5,Invalid,2,15,43,start,lin,0.049151391884964035,0.049151391884964035,0.049151391884964035,1,True,,,,,,,,,,,,6,A,2023-09-01_09h14.05.678,exp3,2022.2.2,
high_opac_v,0.01,1,0.01,3,0.82,3.5,0.01,0,0.01,4,5,Valid,1,15,44,start,lin,0.0604346544120464,0,0.0604346544120464,1,True,,,,,,,,,,,,6,A,2023-09-01_09h14.05.678,exp3,2022.2.2,
high_opac_v,0.01,1,0.01,3,0.82,3.5,0.01,0,0.01,4,5,Valid,1,16,45,start,lin,0.05479752937164189,0,0.05479752937164189,1,True,,,,,,,,,,,,6,A,2023-09-01_09h14.05.678,exp3,2022.2.2,
low_opac_i,0.4,1,0.01,3,0.82,3.5,0.01,0,0.01,4,5,Invalid,2,16,46,start,lin,0.04023257247275713,0.04023257247275713,0.04023257247275713,0,True,,,,,,,,,,,,6,A,2023-09-01_09h14.05.678,exp3,2022.2.2,
low_opac_v,0.4,1,0.01,3,0.82,3.5,0.01,0,0.01,4,5,Valid,0,16,47,start,lin,0.07374460112000703,0.07374460112000703,0.07374460112000703,1,True,,,,,,,,,,,,6,A,2023-09-01_09h14.05.678,exp3,2022.2.2,
low_opac_i,0.4,1,0.01,3,0.82,3.5,0.01,0,0.01,4,5,Invalid,2,17,48,start,lin,0.07170396438825988,0.07170396438825988,0.07170396438825988,1,True,,,,,,,,,,,,6,A,2023-09-01_09h14.05.678,exp3,2022.2.2,
low_opac_v,0.4,1,0.01,3,0.82,3.5,0.01,0,0.01,4,5,Valid,0,17,49,start,lin,0.06488065532506188,0.06488065532506188,0.06488065532506188,1,True,,,,,,,,,,,,6,A,2023-09-01_09h14.05.678,exp3,2022.2.2,
high_opac_v,0.01,1,0.01,3,0.82,3.5,0.01,0,0.01,4,5,Valid,1,17,50,start,lin,0.04934388616446452,0,0.04934388616446452,1,True,,,,,,,,,,,,6,A,2023-09-01_09h14.05.678,exp3,2022.2.2,
low_opac_i,0.4,1,0.01,3,0.82,3.5,0.01,0,0.01,4,5,Invalid,2,18,51,start,lin,0.06571775782969741,0.06571775782969741,0.06571775782969741,1,True,,,,,,,,,,,,6,A,2023-09-01_09h14.05.678,exp3,2022.2.2,
low_opac_v,0.4,1,0.01,3,0.82,3.5,0.01,0,0.01,4,5,Valid,0,18,52,start,lin,0.05610863707446062,0,0.05610863707446062,1,True,,,,,,,,,,,,6,A,2023-09-01_09h14.05.678,exp3,2022.2.2,
high_opac_v,0.01,1,0.01,3,0.82,3.5,0.01,0,0.01,4,5,Valid,1,18,53,start,lin,0.044478197778529606,0,0.044478197778529606,1,True,,,,,,,,,,,,6,A,2023-09-01_09h14.05.678,exp3,2022.2.2,
high_opac_v,0.01,1,0.01,3,0.82,3.5,0.01,0,0.01,4,5,Valid,1,19,54,start,lin,0.03966939355791394,0,0.03966939355791394,0,True,,,,,,,,,,,,6,A,2023-09-01_09h14.05.678,exp3,2022.2.2,
low_opac_v,0.4,1,0.01,3,0.82,3.5,0.01,0,0.01,4,5,Valid,0,19,55,start,lin,0.04804368098123607,0.04804368098123607,0.04804368098123607,0,True,,,,,,,,,,,,6,A,2023-09-01_09h14.05.678,exp3,2022.2.2,
low_opac_i,0.4,1,0.01,3,0.82,3.5,0.01,0,0.01,4,5,Invalid,2,19,56,start,lin,0.06034194963359618,0.06034194963359618,0.06034194963359618,1,True,,,,,,,,,,,,6,A,2023-09-01_09h14.05.678,exp3,2022.2.2,
low_opac_i,0.4,1,0.01,3,0.82,3.5,0.01,0,0.01,4,5,Invalid,2,20,57,start,lin,0.05499291800379141,0,0.05499291800379141,1,True,,,,,,,,,,,,6,A,2023-09-01_09h14.05.678,exp3,2022.2.2,
high_opac_v,0.01,1,0.01,3,0.82,3.5,0.01,0,0.01,4,5,Valid,1,20,58,start,lin,0.05699293394674237,0.05699293394674237,0.05699293394674237,0,True,,,,,,,,,,,,6,A,2023-09-01_09h14.05.678,exp3,2022.2.2,
low_opac_v,0.4,1,0.01,3,0.82,3.5,0.01,0,0.01,4,5,Valid,0,20,59,start,lin,0.07789255822765129,0.07789255822765129,0.07789255822765129,1,True,,,,,,,,,,,,6,A,2023-09-01_09h14.05.678,exp3,2022.2.2,
low_opac_v,0.4,1,0.01,3,0.82,3.5,0.01,0,0.01,4,5,Valid,0,21,60,start,lin,0.07247098982864897,0,0.07247098982864897,0,True,,,,,,,,,,,,6,A,2023-09-01_09h14.05.678,exp3,2022.2.2,
low_opac_i,0.4,1,0.01,3,0.82,3.5,0.01,0,0.01,4,5,Invalid,2,21,61,start,lin,0.049676216304105625,0.049676216304105625,0.049676216304105625,0,True,,,,,,,,,,,,6,A,2023-09-01_09h14.05.678,exp3,2022.2.2,
high_opac_v,0.01,1,0.01,3,0.82,3.5,0.01,0,0.01,4,5,Valid,1,21,62,start,lin,0.07370604424968057,0.07370604424968057,0.07370604424968057,1,True,,,,,,,,,,,,6,A,2023-09-01_09h14.05.678,exp3,2022.2.2,
high_opac_v,0.01,1,0.01,3,0.82,3.5,0.01,0,0.01,4,5,Valid,1,22,63,start,lin,0.06960935874783675,0,0.06960935874783675,1,True,,,,,,,,,,,,6,A,2023-09-01_09h14.05.678,exp3,2022.2.2,
low_opac_v,0.4,1,0.01,3,0.82,3.5,0.01,0,0.01,4,5,Valid,0,22,64,start,lin,0.09251465009744952,0,0.09251465009744952,1,True,,,,,,,,,,,,6,A,2023-09-01_09h14.05.678,exp3,2022.2.2,
low_opac_i,0.4,1,0.01,3,0.82,3.5,0.01,0,0.01,4,5,Invalid,2,22,65,start,lin,0.06871477318462976,0.06871477318462976,0.06871477318462976,0,True,,,,,,,,,,,,6,A,2023-09-01_09h14.05.678,exp3,2022.2.2,
high_opac_v,0.01,1,0.01,3,0.82,3.5,0.01,0,0.01,4,5,Valid,1,23,66,start,lin,0.06587889400617282,0.06587889400617282,0.06587889400617282,0,True,,,,,,,,,,,,6,A,2023-09-01_09h14.05.678,exp3,2022.2.2,
low_opac_v,0.4,1,0.01,3,0.82,3.5,0.01,0,0.01,4,5,Valid,0,23,67,start,lin,0.08774701119486666,0,0.08774701119486666,1,True,,,,,,,,,,,,6,A,2023-09-01_09h14.05.678,exp3,2022.2.2,
low_opac_i,0.4,1,0.01,3,0.82,3.5,0.01,0,0.01,4,5,Invalid,2,23,68,start,lin,0.08564919549626543,0,0.08564919549626543,1,True,,,,,,,,,,,,6,A,2023-09-01_09h14.05.678,exp3,2022.2.2,
high_opac_v,0.01,1,0.01,3,0.82,3.5,0.01,0,0.01,4,5,Valid,1,24,69,start,lin,0.08057287956686982,0,0.08057287956686982,1,True,,,,,,,,,,,,6,A,2023-09-01_09h14.05.678,exp3,2022.2.2,
low_opac_i,0.4,1,0.01,3,0.82,3.5,0.01,0,0.01,4,5,Invalid,2,24,70,start,lin,0.08185452861839626,0,0.08185452861839626,1,True,,,,,,,,,,,,6,A,2023-09-01_09h14.05.678,exp3,2022.2.2,
low_opac_v,0.4,1,0.01,3,0.82,3.5,0.01,0,0.01,4,5,Valid,0,24,71,start,lin,0.08341611152305084,0.08341611152305084,0.08341611152305084,1,True,,,,,,,,,,,,6,A,2023-09-01_09h14.05.678,exp3,2022.2.2,
low_opac_v,0.4,1,0.01,3,0.82,3.5,0.01,0,0.01,4,5,Valid,0,25,72,start,lin,0.07903972150500427,0.07903972150500427,0.07903972150500427,0,True,,,,,,,,,,,,6,A,2023-09-01_09h14.05.678,exp3,2022.2.2,
high_opac_v,0.01,1,0.01,3,0.82,3.5,0.01,0,0.01,4,5,Valid,1,25,73,start,lin,0.07709248880936498,0.07709248880936498,0.07709248880936498,1,True,,,,,,,,,,,,6,A,2023-09-01_09h14.05.678,exp3,2022.2.2,
low_opac_i,0.4,1,0.01,3,0.82,3.5,0.01,0,0.01,4,5,Invalid,2,25,74,start,lin,0.07799332832666378,0,0.07799332832666378,1,True,,,,,,,,,,,,6,A,2023-09-01_09h14.05.678,exp3,2022.2.2,
low_opac_v,0.4,1,0.01,3,0.82,3.5,0.01,0,0.01,4,5,Valid,0,26,75,start,lin,0.09515386966468259,0,0.09515386966468259,1,True,,,,,,,,,,,,6,A,2023-09-01_09h14.05.678,exp3,2022.2.2,
high_opac_v,0.01,1,0.01,3,0.82,3.5,0.01,0,0.01,4,5,Valid,1,26,76,start,lin,0.07389936630105585,0.07389936630105585,0.07389936630105585,1,True,,,,,,,,,,,,6,A,2023-09-01_09h14.05.678,exp3,2022.2.2,
low_opac_i,0.4,1,0.01,3,0.82,3.5,0.01,0,0.01,4,5,Invalid,2,26,77,start,lin,0.07445170969112042,0.07445170969112042,0.07445170969112042,1,True,,,,,,,,,,,,6,A,2023-09-01_09h14.05.678,exp3,2022.2.2,
low_opac_v,0.4,1,0.01,3,0.82,3.5,0.01,0,0.01,4,5,Valid,0,27,78,start,lin,0.09157748253849618,0.09157748253849618,0.09157748253849618,0,True,,,,,,,,,,,,6,A,2023-09-01_09h14.05.678,exp3,2022.2.2,
high_opac_v,0.01,1,0.01,3,0.82,3.5,0.01,0,0.01,4,5,Valid,1,27,79,start,lin,0.07063482506183105,0,0.07063482506183105,1,True,,,,,,,,,,,,6,A,2023-09-01_09h14.05.678,exp3,2022.2.2,
low_opac_i,0.4,1,0.01,3,0.82,3.5,0.01,0,0.01,4,5,Invalid,2,27,80,start,lin,0.07084896149422892,0,0.07084896149422892,1,True,,,,,,,,,,,,6,A,2023-09-01_09h14.05.678,exp3,2022.2.2,
low_opac_i,0.4,1,0.01,3,0.82,3.5,0.01,0,0.01,4,5,Invalid,2,28,81,start,lin,0.06745068924438435,0.06745068924438435,0.06745068924438435,1,True,,,,,,,,,,,,6,A,2023-09-01_09h14.05.678,exp3,2022.2.2,
high_opac_v,0.01,1,0.01,3,0.82,3.5,0.01,0,0.01,4,5,Valid,1,28,82,start,lin,0.0675699249413311,0,0.0675699249413311,1,True,,,,,,,,,,,,6,A,2023-09-01_09h14.05.678,exp3,2022.2.2,
low_opac_v,0.4,1,0.01,3,0.82,3.5,0.01,0,0.01,4,5,Valid,0,28,83,start,lin,0.10568220389226712,0,0.10568220389226712,1,True,,,,,,,,,,,,6,A,2023-09-01_09h14.05.678,exp3,2022.2.2,
low_opac_v,0.4,1,0.01,3,0.82,3.5,0.01,0,0.01,4,5,Valid,0,29,84,start,lin,0.10244603823796095,0.10244603823796095,0.10244603823796095,1,True,,,,,,,,,,,,6,A,2023-09-01_09h14.05.678,exp3,2022.2.2,
low_opac_i,0.4,1,0.01,3,0.82,3.5,0.01,0,0.01,4,5,Invalid,2,29,85,start,lin,0.06430538165044258,0.06430538165044258,0.06430538165044258,1,True,,,,,,,,,,,,6,A,2023-09-01_09h14.05.678,exp3,2022.2.2,
high_opac_v,0.01,1,0.01,3,0.82,3.5,0.01,0,0.01,4,5,Valid,1,29,86,start,lin,0.06473614161740378,0.06473614161740378,0.06473614161740378,1,True,,,,,,,,,,,,6,A,2023-09-01_09h14.05.678,exp3,2022.2.2,
low_opac_i,0.4,1,0.01,3,0.82,3.5,0.01,0,0.01,4,5,Invalid,2,30,87,start,lin,0.06107283165064259,0,0.06107283165064259,0,True,,,,,,,,,,,,6,A,2023-09-01_09h14.05.678,exp3,2022.2.2,
high_opac_v,0.01,1,0.01,3,0.82,3.5,0.01,0,0.01,4,5,Valid,1,30,88,start,lin,0.06182860126652415,0,0.06182860126652415,0,True,,,,,,,,,,,,6,A,2023-09-01_09h14.05.678,exp3,2022.2.2,
low_opac_v,0.4,1,0.01,3,0.82,3.5,0.01,0,0.01,4,5,Valid,0,30,89,start,lin,0.09910513798184012,0,0.09910513798184012,1,True,,,,,,,,,,,,6,A,2023-09-01_09h14.05.678,exp3,2022.2.2,
low_opac_i,0.4,1,0.01,3,0.82,3.5,0.01,0,0.01,4,5,Invalid,2,31,90,start,lin,0.07310029009933067,0.07310029009933067,0.07310029009933067,0,True,,,,,,,,,,,,6,A,2023-09-01_09h14.05.678,exp3,2022.2.2,
low_opac_v,0.4,1,0.01,3,0.82,3.5,0.01,0,0.01,4,5,Valid,0,31,91,start,lin,0.09600232798738312,0,0.09600232798738312,1,True,,,,,,,,,,,,6,A,2023-09-01_09h14.05.678,exp3,2022.2.2,
high_opac_v,0.01,1,0.01,3,0.82,3.5,0.01,0,0.01,4,5,Valid,1,31,92,start,lin,0.07263969984782138,0.07263969984782138,0.07263969984782138,0,True,,,,,,,,,,,,6,A,2023-09-01_09h14.05.678,exp3,2022.2.2,
low_opac_v,0.4,1,0.01,3,0.82,3.5,0.01,0,0.01,4,5,Valid,0,32,93,start,lin,0.0931023912997444,0,0.0931023912997444,1,True,,,,,,,,,,,,6,A,2023-09-01_09h14.05.678,exp3,2022.2.2,
low_opac_i,0.4,1,0.01,3,0.82,3.5,0.01,0,0.01,4,5,Invalid,2,32,94,start,lin,0.08428747859897234,0.08428747859897234,0.08428747859897234,1,True,,,,,,,,,,,,6,A,2023-09-01_09h14.05.678,exp3,2022.2.2,
high_opac_v,0.01,1,0.01,3,0.82,3.5,0.01,0,0.01,4,5,Valid,1,32,95,start,lin,0.08304863891759864,0,0.08304863891759864,1,True,,,,,,,,,,,,6,A,2023-09-01_09h14.05.678,exp3,2022.2.2,
high_opac_v,0.01,1,0.01,3,0.82,3.5,0.01,0,0.01,4,5,Valid,1,33,96,start,lin,0.08041809851544263,0.08041809851544263,0.08041809851544263,0,True,,,,,,,,,,,,6,A,2023-09-01_09h14.05.678,exp3,2022.2.2,
low_opac_v,0.4,1,0.01,3,0.82,3.5,0.01,0,0.01,4,5,Valid,0,33,97,start,lin,0.09008888324487802,0,0.09008888324487802,1,True,,,,,,,,,,,,6,A,2023-09-01_09h14.05.678,exp3,2022.2.2,
low_opac_i,0.4,1,0.01,3,0.82,3.5,0.01,0,0.01,4,5,Invalid,2,33,98,start,lin,0.08148528406247618,0,0.08148528406247618,1,True,,,,,,,,,,,,6,A,2023-09-01_09h14.05.678,exp3,2022.2.2,
high_opac_v,0.01,1,0.01,3,0.82,3.5,0.01,0,0.01,4,5,Valid,1,34,99,start,lin,0.09038321540859323,0,0.09038321540859323,1,True,,,,,,,,,,,,6,A,2023-09-01_09h14.05.678,exp3,2022.2.2,
low_opac_i,0.4,1,0.01,3,0.82,3.5,0.01,0,0.01,4,5,Invalid,2,34,100,start,lin,0.07879143101261749,0,0.07879143101261749,1,True,,,,,,,,,,,,6,A,2023-09-01_09h14.05.678,exp3,2022.2.2,
low_opac_v,0.4,1,0.01,3,0.82,3.5,0.01,0,0.01,4,5,Valid,0,34,101,start,lin,0.08723486474061004,0.08723486474061004,0.08723486474061004,1,True,,,,,,,,,,,,6,A,2023-09-01_09h14.05.678,exp3,2022.2.2,
low_opac_i,0.4,1,0.01,3,0.82,3.5,0.01,0,0.01,4,5,Invalid,2,35,102,start,lin,0.07627303574464778,0.07627303574464778,0.07627303574464778,1,True,,,,,,,,,,,,6,A,2023-09-01_09h14.05.678,exp3,2022.2.2,
low_opac_v,0.4,1,0.01,3,0.82,3.5,0.01,0,0.01,4,5,Valid,0,35,103,start,lin,0.08456939775965688,0,0.08456939775965688,1,True,,,,,,,,,,,,6,A,2023-09-01_09h14.05.678,exp3,2022.2.2,
high_opac_v,0.01,1,0.01,3,0.82,3.5,0.01,0,0.01,4,5,Valid,1,35,104,start,lin,0.08794511661059935,0.08794511661059935,0.08794511661059935,0,True,,,,,,,,,,,,6,A,2023-09-01_09h14.05.678,exp3,2022.2.2,
high_opac_v,0.01,1,0.01,3,0.82,3.5,0.01,0,0.01,4,5,Valid,1,36,105,start,lin,0.09755526109220235,0.09755526109220235,0.09755526109220235,1,True,,,,,,,,,,,,6,A,2023-09-01_09h14.05.678,exp3,2022.2.2,
low_opac_v,0.4,1,0.01,3,0.82,3.5,0.01,0,0.01,4,5,Valid,0,36,106,start,lin,0.08181028572593457,0,0.08181028572593457,1,True,,,,,,,,,,,,6,A,2023-09-01_09h14.05.678,exp3,2022.2.2,
low_opac_i,0.4,1,0.01,3,0.82,3.5,0.01,0,0.01,4,5,Invalid,2,36,107,start,lin,0.07389806767050466,0,0.07389806767050466,0,True,,,,,,,,,,,,6,A,2023-09-01_09h14.05.678,exp3,2022.2.2,
high_opac_v,0.01,1,0.01,3,0.82,3.5,0.01,0,0.01,4,5,Valid,1,37,108,start,lin,0.09533786634342886,0,0.09533786634342886,1,True,,,,,,,,,,,,6,A,2023-09-01_09h14.05.678,exp3,2022.2.2,
low_opac_v,0.4,1,0.01,3,0.82,3.5,0.01,0,0.01,4,5,Valid,0,37,109,start,lin,0.07914081250583904,0,0.07914081250583904,1,True,,,,,,,,,,,,6,A,2023-09-01_09h14.05.678,exp3,2022.2.2,
low_opac_i,0.4,1,0.01,3,0.82,3.5,0.01,0,0.01,4,5,Invalid,2,37,110,start,lin,0.08337877840060287,0,0.08337877840060287,1,True,,,,,,,,,,,,6,A,2023-09-01_09h14.05.678,exp3,2022.2.2,
high_opac_v,0.01,1,0.01,3,0.82,3.5,0.01,0,0.01,4,5,Valid,1,38,111,start,lin,0.09323127874658134,0.09323127874658134,0.09323127874658134,1,True,,,,,,,,,,,,6,A,2023-09-01_09h14.05.678,exp3,2022.2.2,
low_opac_v,0.4,1,0.01,3,0.82,3.5,0.01,0,0.01,4,5,Valid,0,38,112,start,lin,0.07662246521315141,0.07662246521315141,0.07662246521315141,1,True,,,,,,,,,,,,6,A,2023-09-01_09h14.05.678,exp3,2022.2.2,
low_opac_i,0.4,1,0.01,3,0.82,3.5,0.01,0,0.01,4,5,Invalid,2,38,113,start,lin,0.08099948184884115,0,0.08099948184884115,1,True,,,,,,,,,,,,6,A,2023-09-01_09h14.05.678,exp3,2022.2.2,
high_opac_v,0.01,1,0.01,3,0.82,3.5,0.01,0,0.01,4,5,Valid,1,39,114,start,lin,0.09101819468937368,0,0.09101819468937368,1,True,,,,,,,,,,,,6,A,2023-09-01_09h14.05.678,exp3,2022.2.2,
low_opac_i,0.4,1,0.01,3,0.82,3.5,0.01,0,0.01,4,5,Invalid,2,39,115,start,lin,0.07869534416240931,0,0.07869534416240931,1,True,,,,,,,,,,,,6,A,2023-09-01_09h14.05.678,exp3,2022.2.2,
low_opac_v,0.4,1,0.01,3,0.82,3.5,0.01,0,0.01,4,5,Valid,0,39,116,start,lin,0.07424591972625189,0.07424591972625189,0.07424591972625189,0,True,,,,,,,,,,,,6,A,2023-09-01_09h14.05.678,exp3,2022.2.2,
low_opac_i,0.4,1,0.01,3,0.82,3.5,0.01,0,0.01,4,5,Invalid,2,40,117,start,lin,0.07653084407740379,0.07653084407740379,0.07653084407740379,1,True,,,,,,,,,,,,6,A,2023-09-01_09h14.05.678,exp3,2022.2.2,
high_opac_v,0.01,1,0.01,3,0.82,3.5,0.01,0,0.01,4,5,Valid,1,40,118,start,lin,0.08887600419747518,0,0.08887600419747518,1,True,,,,,,,,,,,,6,A,2023-09-01_09h14.05.678,exp3,2022.2.2,
low_opac_v,0.4,1,0.01,3,0.82,3.5,0.01,0,0.01,4,5,Valid,0,40,119,start,lin,0.0836889505721225,0,0.0836889505721225,1,True,,,,,,,,,,,,6,A,2023-09-01_09h14.05.678,exp3,2022.2.2,
low_opac_i,0.4,1,0.01,3,0.82,3.5,0.01,0,0.01,4,5,Invalid,2,41,120,start,lin,0.07447883762820956,0.07447883762820956,0.07447883762820956,1,True,,,,,,,,,,,,6,A,2023-09-01_09h14.05.678,exp3,2022.2.2,
high_opac_v,0.01,1,0.01,3,0.82,3.5,0.01,0,0.01,4,5,Valid,1,41,121,start,lin,0.08686663266611921,0.08686663266611921,0.08686663266611921,1,True,,,,,,,,,,,,6,A,2023-09-01_09h14.05.678,exp3,2022.2.2,
low_opac_v,0.4,1,0.01,3,0.82,3.5,0.01,0,0.01,4,5,Valid,0,41,122,start,lin,0.08134085140727604,0,0.08134085140727604,1,True,,,,,,,,,,,,6,A,2023-09-01_09h14.05.678,exp3,2022.2.2,
low_opac_v,0.4,1,0.01,3,0.82,3.5,0.01,0,0.01,4,5,Valid,0,42,123,start,lin,0.07905085680219642,0.07905085680219642,0.07905085680219642,1,True,,,,,,,,,,,,6,A,2023-09-01_09h14.05.678,exp3,2022.2.2,
high_opac_v,0.01,1,0.01,3,0.82,3.5,0.01,0,0.01,4,5,Valid,1,42,124,start,lin,0.08496374339152439,0,0.08496374339152439,0,True,,,,,,,,,,,,6,A,2023-09-01_09h14.05.678,exp3,2022.2.2,
low_opac_i,0.4,1,0.01,3,0.82,3.5,0.01,0,0.01,4,5,Invalid,2,42,125,start,lin,0.07233098278098943,0,0.07233098278098943,0,True,,,,,,,,,,,,6,A,2023-09-01_09h14.05.678,exp3,2022.2.2,
low_opac_v,0.4,1,0.01,3,0.82,3.5,0.01,0,0.01,4,5,Valid,0,43,126,start,lin,0.07688395886082044,0.07688395886082044,0.07688395886082044,1,True,,,,,,,,,,,,6,A,2023-09-01_09h14.05.678,exp3,2022.2.2,
high_opac_v,0.01,1,0.01,3,0.82,3.5,0.01,0,0.01,4,5,Valid,1,43,127,start,lin,0.09258240899327462,0,0.09258240899327462,1,True,,,,,,,,,,,,6,A,2023-09-01_09h14.05.678,exp3,2022.2.2,
low_opac_i,0.4,1,0.01,3,0.82,3.5,0.01,0,0.01,4,5,Invalid,2,43,128,start,lin,0.08046630999512566,0.08046630999512566,0.08046630999512566,0,True,,,,,,,,,,,,6,A,2023-09-01_09h14.05.678,exp3,2022.2.2,
high_opac_v,0.01,1,0.01,3,0.82,3.5,0.01,0,0.01,4,5,Valid,1,44,129,start,lin,0.09063905746898399,0,0.09063905746898399,1,True,,,,,,,,,,,,6,A,2023-09-01_09h14.05.678,exp3,2022.2.2,
low_opac_i,0.4,1,0.01,3,0.82,3.5,0.01,0,0.01,4,5,Invalid,2,44,130,start,lin,0.0884120589230264,0.0884120589230264,0.0884120589230264,1,True,,,,,,,,,,,,6,A,2023-09-01_09h14.05.678,exp3,2022.2.2,
low_opac_v,0.4,1,0.01,3,0.82,3.5,0.01,0,0.01,4,5,Valid,0,44,131,start,lin,0.07482981238508701,0.07482981238508701,0.07482981238508701,0,True,,,,,,,,,,,,6,A,2023-09-01_09h14.05.678,exp3,2022.2.2,
low_opac_i,0.4,1,0.01,3,0.82,3.5,0.01,0,0.01,4,5,Invalid,2,45,132,start,lin,0.08653684099964498,0.08653684099964498,0.08653684099964498,1,True,,,,,,,,,,,,6,A,2023-09-01_09h14.05.678,exp3,2022.2.2,
low_opac_v,0.4,1,0.01,3,0.82,3.5,0.01,0,0.01,4,5,Valid,0,45,133,start,lin,0.08302473158365481,0.08302473158365481,0.08302473158365481,1,True,,,,,,,,,,,,6,A,2023-09-01_09h14.05.678,exp3,2022.2.2,
high_opac_v,0.01,1,0.01,3,0.82,3.5,0.01,0,0.01,4,5,Valid,1,45,134,start,lin,0.0887524463767749,0.0887524463767749,0.0887524463767749,1,True,,,,,,,,,,,,6,A,2023-09-01_09h14.05.678,exp3,2022.2.2,
low_opac_i,0.4,1,0.01,3,0.82,3.5,0.01,0,0.01,4,5,Invalid,2,46,135,start,lin,0.08475084355351759,0.08475084355351759,0.08475084355351759,1,True,,,,,,,,,,,,6,A,2023-09-01_09h14.05.678,exp3,2022.2.2,
high_opac_v,0.01,1,0.01,3,0.82,3.5,0.01,0,0.01,4,5,Valid,1,46,136,start,lin,0.08697585222379972,0.08697585222379972,0.08697585222379972,1,True,,,,,,,,,,,,6,A,2023-09-01_09h14.05.678,exp3,2022.2.2,
low_opac_v,0.4,1,0.01,3,0.82,3.5,0.01,0,0.01,4,5,Valid,0,46,137,start,lin,0.0809782097535322,0,0.0809782097535322,1,True,,,,,,,,,,,,6,A,2023-09-01_09h14.05.678,exp3,2022.2.2,
low_opac_v,0.4,1,0.01,3,0.82,3.5,0.01,0,0.01,4,5,Valid,0,47,138,start,lin,0.0789723227174326,0.0789723227174326,0.0789723227174326,1,True,,,,,,,,,,,,6,A,2023-09-01_09h14.05.678,exp3,2022.2.2,
low_opac_i,0.4,1,0.01,3,0.82,3.5,0.01,0,0.01,4,5,Invalid,2,47,139,start,lin,0.08287657729539283,0.08287657729539283,0.08287657729539283,1,True,,,,,,,,,,,,6,A,2023-09-01_09h14.05.678,exp3,2022.2.2,
high_opac_v,0.01,1,0.01,3,0.82,3.5,0.01,0,0.01,4,5,Valid,1,47,140,start,lin,0.08528617189800322,0,0.08528617189800322,1,True,,,,,,,,,,,,6,A,2023-09-01_09h14.05.678,exp3,2022.2.2,
low_opac_i,0.4,1,0.01,3,0.82,3.5,0.01,0,0.01,4,5,Invalid,2,48,141,start,lin,0.08104609290262182,0.08104609290262182,0.08104609290262182,1,True,,,,,,,,,,,,6,A,2023-09-01_09h14.05.678,exp3,2022.2.2,
high_opac_v,0.01,1,0.01,3,0.82,3.5,0.01,0,0.01,4,5,Valid,1,48,142,start,lin,0.08366104885695688,0,0.08366104885695688,0,True,,,,,,,,,,,,6,A,2023-09-01_09h14.05.678,exp3,2022.2.2,
low_opac_v,0.4,1,0.01,3,0.82,3.5,0.01,0,0.01,4,5,Valid,0,48,143,start,lin,0.07707063546556053,0.07707063546556053,0.07707063546556053,1,True,,,,,,,,,,,,6,A,2023-09-01_09h14.05.678,exp3,2022.2.2,
low_opac_v,0.4,1,0.01,3,0.82,3.5,0.01,0,0.01,4,5,Valid,0,49,144,start,lin,0.07526145888616392,0.07526145888616392,0.07526145888616392,1,True,,,,,,,,,,,,6,A,2023-09-01_09h14.05.678,exp3,2022.2.2,
low_opac_i,0.4,1,0.01,3,0.82,3.5,0.01,0,0.01,4,5,Invalid,2,49,145,start,lin,0.079245691566522,0.079245691566522,0.079245691566522,1,True,,,,,,,,,,,,6,A,2023-09-01_09h14.05.678,exp3,2022.2.2,
high_opac_v,0.01,1,0.01,3,0.82,3.5,0.01,0,0.01,4,5,Valid,1,49,146,start,lin,0.09034769801326184,0,0.09034769801326184,1,True,,,,,,,,,,,,6,A,2023-09-01_09h14.05.678,exp3,2022.2.2,
low_opac_i,0.4,1,0.01,3,0.82,3.5,0.01,0,0.01,4,5,Invalid,2,50,147,start,lin,0.07753438212998642,0.07753438212998642,0.07753438212998642,1,True,,,,,,,,,,,,6,A,2023-09-01_09h14.05.678,exp3,2022.2.2,
high_opac_v,0.01,1,0.01,3,0.82,3.5,0.01,0,0.01,4,5,Valid,1,50,148,start,lin,0.08866236406579525,0.08866236406579525,0.08866236406579525,1,True,,,,,,,,,,,,6,A,2023-09-01_09h14.05.678,exp3,2022.2.2,
low_opac_v,0.4,1,0.01,3,0.82,3.5,0.01,0,0.01,4,5,Valid,0,50,149,start,lin,0.0735199595594685,0.0735199595594685,0.0735199595594685,1,True,,,,,,,,,,,,6,A,2023-09-01_09h14.05.678,exp3,2022.2.2,
low_opac_i,0.4,1,0.01,3,0.82,3.5,0.01,0,0.01,4,5,Invalid,2,51,150,start,lin,0.07590675007381587,0,0.07590675007381587,1,True,,,,,,,,,,,,6,A,2023-09-01_09h14.05.678,exp3,2022.2.2,
low_opac_v,0.4,1,0.01,3,0.82,3.5,0.01,0,0.01,4,5,Valid,0,51,151,start,lin,0.07167050994316315,0,0.07167050994316315,1,True,,,,,,,,,,,,6,A,2023-09-01_09h14.05.678,exp3,2022.2.2,
high_opac_v,0.01,1,0.01,3,0.82,3.5,0.01,0,0.01,4,5,Valid,1,51,152,start,lin,0.08706990165638073,0.08706990165638073,0.08706990165638073,1,True,,,,,,,,,,,,6,A,2023-09-01_09h14.05.678,exp3,2022.2.2,
high_opac_v,0.01,1,0.01,3,0.82,3.5,0.01,0,0.01,4,5,Valid,1,52,153,start,lin,0.08555029932706969,0.08555029932706969,0.08555029932706969,1,True,,,,,,,,,,,,6,A,2023-09-01_09h14.05.678,exp3,2022.2.2,
low_opac_i,0.4,1,0.01,3,0.82,3.5,0.01,0,0.01,4,5,Invalid,2,52,154,start,lin,0.0743423065655826,0.0743423065655826,0.0743423065655826,1,True,,,,,,,,,,,,6,A,2023-09-01_09h14.05.678,exp3,2022.2.2,
low_opac_v,0.4,1,0.01,3,0.82,3.5,0.01,0,0.01,4,5,Valid,0,52,155,start,lin,0.06984479454458586,0,0.06984479454458586,1,True,,,,,,,,,,,,6,A,2023-09-01_09h14.05.678,exp3,2022.2.2,
low_opac_v,0.4,1,0.01,3,0.82,3.5,0.01,0,0.01,4,5,Valid,0,53,156,start,lin,0.06807608660368702,0,0.06807608660368702,1,True,,,,,,,,,,,,6,A,2023-09-01_09h14.05.678,exp3,2022.2.2,
low_opac_i,0.4,1,0.01,3,0.82,3.5,0.01,0,0.01,4,5,Invalid,2,53,157,start,lin,0.07268679224406649,0,0.07268679224406649,1,True,,,,,,,,,,,,6,A,2023-09-01_09h14.05.678,exp3,2022.2.2,
high_opac_v,0.01,1,0.01,3,0.82,3.5,0.01,0,0.01,4,5,Valid,1,53,158,start,lin,0.08408568552200503,0,0.08408568552200503,1,True,,,,,,,,,,,,6,A,2023-09-01_09h14.05.678,exp3,2022.2.2,
high_opac_v,0.01,1,0.01,3,0.82,3.5,0.01,0,0.01,4,5,Valid,1,54,159,start,lin,0.08253223325747873,0,0.08253223325747873,1,True,,,,,,,,,,,,6,A,2023-09-01_09h14.05.678,exp3,2022.2.2,
low_opac_i,0.4,1,0.01,3,0.82,3.5,0.01,0,0.01,4,5,Invalid,2,54,160,start,lin,0.07105993288299683,0.07105993288299683,0.07105993288299683,0,True,,,,,,,,,,,,6,A,2023-09-01_09h14.05.678,exp3,2022.2.2,
low_opac_v,0.4,1,0.01,3,0.82,3.5,0.01,0,0.01,4,5,Valid,0,54,161,start,lin,0.06639675649448007,0.06639675649448007,0.06639675649448007,0,True,,,,,,,,,,,,6,A,2023-09-01_09h14.05.678,exp3,2022.2.2,
low_opac_i,0.4,1,0.01,3,0.82,3.5,0.01,0,0.01,4,5,Invalid,2,55,162,start,lin,0.07733588667051244,0,0.07733588667051244,0,True,,,,,,,,,,,,6,A,2023-09-01_09h14.05.678,exp3,2022.2.2,
high_opac_v,0.01,1,0.01,3,0.82,3.5,0.01,0,0.01,4,5,Valid,1,55,163,start,lin,0.08100329488406562,0.08100329488406562,0.08100329488406562,1,True,,,,,,,,,,,,6,A,2023-09-01_09h14.05.678,exp3,2022.2.2,
low_opac_v,0.4,1,0.01,3,0.82,3.5,0.01,0,0.01,4,5,Valid,0,55,164,start,lin,0.07348376024290287,0.07348376024290287,0.07348376024290287,1,True,,,,,,,,,,,,6,A,2023-09-01_09h14.05.678,exp3,2022.2.2,
low_opac_i,0.4,1,0.01,3,0.82,3.5,0.01,0,0.01,4,5,Invalid,2,56,165,start,lin,0.0837091111443724,0,0.0837091111443724,0,True,,,,,,,,,,,,6,A,2023-09-01_09h14.05.678,exp3,2022.2.2,
low_opac_v,0.4,1,0.01,3,0.82,3.5,0.01,0,0.01,4,5,Valid,0,56,166,start,lin,0.07183023443108566,0,0.07183023443108566,1,True,,,,,,,,,,,,6,A,2023-09-01_09h14.05.678,exp3,2022.2.2,
high_opac_v,0.01,1,0.01,3,0.82,3.5,0.01,0,0.01,4,5,Valid,1,56,167,start,lin,0.0794887102115923,0,0.0794887102115923,1,True,,,,,,,,,,,,6,A,2023-09-01_09h14.05.678,exp3,2022.2.2,
low_opac_i,0.4,1,0.01,3,0.82,3.5,0.01,0,0.01,4,5,Invalid,2,57,168,start,lin,0.08956677675950508,0.08956677675950508,0.08956677675950508,0,True,,,,,,,,,,,,6,A,2023-09-01_09h14.05.678,exp3,2022.2.2,
high_opac_v,0.01,1,0.01,3,0.82,3.5,0.01,0,0.01,4,5,Valid,1,57,169,start,lin,0.07804036761337049,0,0.07804036761337049,1,True,,,,,,,,,,,,6,A,2023-09-01_09h14.05.678,exp3,2022.2.2,
low_opac_v,0.4,1,0.01,3,0.82,3.5,0.01,0,0.01,4,5,Valid,0,57,170,start,lin,0.07019458016455737,0.07019458016455737,0.07019458016455737,1,True,,,,,,,,,,,,6,A,2023-09-01_09h14.05.678,exp3,2022.2.2,
high_opac_v,0.01,1,0.01,3,0.82,3.5,0.01,0,0.01,4,5,Valid,1,58,171,start,lin,0.07666044645652789,0.07666044645652789,0.07666044645652789,1,True,,,,,,,,,,,,6,A,2023-09-01_09h14.05.678,exp3,2022.2.2,
low_opac_i,0.4,1,0.01,3,0.82,3.5,0.01,0,0.01,4,5,Invalid,2,58,172,start,lin,0.0955150413916862,0,0.0955150413916862,1,True,,,,,,,,,,,,6,A,2023-09-01_09h14.05.678,exp3,2022.2.2,
low_opac_v,0.4,1,0.01,3,0.82,3.5,0.01,0,0.01,4,5,Valid,0,58,173,start,lin,0.06858963021842468,0.06858963021842468,0.06858963021842468,1,True,,,,,,,,,,,,6,A,2023-09-01_09h14.05.678,exp3,2022.2.2,
low_opac_v,0.4,1,0.01,3,0.82,3.5,0.01,0,0.01,4,5,Valid,0,59,174,start,lin,0.06706403839419461,0.06706403839419461,0.06706403839419461,0,True,,,,,,,,,,,,6,A,2023-09-01_09h14.05.678,exp3,2022.2.2,
low_opac_i,0.4,1,0.01,3,0.82,3.5,0.01,0,0.01,4,5,Invalid,2,59,175,start,lin,0.09417879961072795,0,0.09417879961072795,1,True,,,,,,,,,,,,6,A,2023-09-01_09h14.05.678,exp3,2022.2.2,
high_opac_v,0.01,1,0.01,3,0.82,3.5,0.01,0,0.01,4,5,Valid,1,59,176,start,lin,0.07533410753170358,0.07533410753170358,0.07533410753170358,1,True,,,,,,,,,,,,6,A,2023-09-01_09h14.05.678,exp3,2022.2.2,
low_opac_i,0.4,1,0.01,3,0.82,3.5,0.01,0,0.01,4,5,Invalid,2,60,177,start,lin,0.09275844017373536,0.09275844017373536,0.09275844017373536,1,True,,,,,,,,,,,,6,A,2023-09-01_09h14.05.678,exp3,2022.2.2,
low_opac_v,0.4,1,0.01,3,0.82,3.5,0.01,0,0.01,4,5,Valid,0,60,178,start,lin,0.07345065859147737,0,0.07345065859147737,1,True,,,,,,,,,,,,6,A,2023-09-01_09h14.05.678,exp3,2022.2.2,
high_opac_v,0.01,1,0.01,3,0.82,3.5,0.01,0,0.01,4,5,Valid,1,60,179,start,lin,0.07404821021587171,0.07404821021587171,0.07404821021587171,0,True,,,,,,,,,,,,6,A,2023-09-01_09h14.05.678,exp3,2022.2.2,
low_opac_i,0.4,1,0.01,3,0.82,3.5,0.01,0,0.01,4,5,Invalid,2,61,180,start,lin,0.09135889772120276,0.09135889772120276,0.09135889772120276,1,True,,,,,,,,,,,,6,A,2023-09-01_09h14.05.678,exp3,2022.2.2,
high_opac_v,0.01,1,0.01,3,0.82,3.5,0.01,0,0.01,4,5,Valid,1,61,181,start,lin,0.07936943938673907,0.07936943938673907,0.07936943938673907,0,True,,,,,,,,,,,,6,A,2023-09-01_09h14.05.678,exp3,2022.2.2,
low_opac_v,0.4,1,0.01,3,0.82,3.5,0.01,0,0.01,4,5,Valid,0,61,182,start,lin,0.0719558341165562,0,0.0719558341165562,0,True,,,,,,,,,,,,6,A,2023-09-01_09h14.05.678,exp3,2022.2.2,
low_opac_v,0.4,1,0.01,3,0.82,3.5,0.01,0,0.01,4,5,Valid,0,62,183,start,lin,0.07770747903876518,0.07770747903876518,0.07770747903876518,1,True,,,,,,,,,,,,6,A,2023-09-01_09h14.05.678,exp3,2022.2.2,
low_opac_i,0.4,1,0.01,3,0.82,3.5,0.01,0,0.01,4,5,Invalid,2,62,184,start,lin,0.08996660111524823,0,0.08996660111524823,1,True,,,,,,,,,,,,6,A,2023-09-01_09h14.05.678,exp3,2022.2.2,
high_opac_v,0.01,1,0.01,3,0.82,3.5,0.01,0,0.01,4,5,Valid,1,62,185,start,lin,0.08482420113350875,0,0.08482420113350875,1,True,,,,,,,,,,,,6,A,2023-09-01_09h14.05.678,exp3,2022.2.2,
high_opac_v,0.01,1,0.01,3,0.82,3.5,0.01,0,0.01,4,5,Valid,1,63,186,start,lin,0.08350601153225519,0,0.08350601153225519,1,True,,,,,,,,,,,,6,A,2023-09-01_09h14.05.678,exp3,2022.2.2,
low_opac_v,0.4,1,0.01,3,0.82,3.5,0.01,0,0.01,4,5,Valid,0,63,187,start,lin,0.07634818403830473,0,0.07634818403830473,1,True,,,,,,,,,,,,6,A,2023-09-01_09h14.05.678,exp3,2022.2.2,
low_opac_i,0.4,1,0.01,3,0.82,3.5,0.01,0,0.01,4,5,Invalid,2,63,188,start,lin,0.08861425485554553,0,0.08861425485554553,1,True,,,,,,,,,,,,6,A,2023-09-01_09h14.05.678,exp3,2022.2.2,
low_opac_i,0.4,1,0.01,3,0.82,3.5,0.01,0,0.01,4,5,Invalid,2,64,189,start,lin,0.08732720742986916,0.08732720742986916,0.08732720742986916,0,True,,,,,,,,,,,,6,A,2023-09-01_09h14.05.678,exp3,2022.2.2,
low_opac_v,0.4,1,0.01,3,0.82,3.5,0.01,0,0.01,4,5,Valid,0,64,190,start,lin,0.07503734435818499,0,0.07503734435818499,0,True,,,,,,,,,,,,6,A,2023-09-01_09h14.05.678,exp3,2022.2.2,
high_opac_v,0.01,1,0.01,3,0.82,3.5,0.01,0,0.01,4,5,Valid,1,64,191,start,lin,0.08221085082498351,0,0.08221085082498351,1,True,,,,,,,,,,,,6,A,2023-09-01_09h14.05.678,exp3,2022.2.2,
high_opac_v,0.01,1,0.01,3,0.82,3.5,0.01,0,0.01,4,5,Valid,1,65,192,start,lin,0.08092678259651422,0.08092678259651422,0.08092678259651422,0,True,,,,,,,,,,,,6,A,2023-09-01_09h14.05.678,exp3,2022.2.2,
low_opac_v,0.4,1,0.01,3,0.82,3.5,0.01,0,0.01,4,5,Valid,0,65,193,start,lin,0.08082785320821839,0,0.08082785320821839,1,True,,,,,,,,,,,,6,A,2023-09-01_09h14.05.678,exp3,2022.2.2,
low_opac_i,0.4,1,0.01,3,0.82,3.5,0.01,0,0.01,4,5,Invalid,2,65,194,start,lin,0.09276403827899216,0,0.09276403827899216,1,True,,,,,,,,,,,,6,A,2023-09-01_09h14.05.678,exp3,2022.2.2,
low_opac_i,0.4,1,0.01,3,0.82,3.5,0.01,0,0.01,4,5,Invalid,2,66,195,start,lin,0.09147941693281919,0.09147941693281919,0.09147941693281919,1,True,,,,,,,,,,,,6,A,2023-09-01_09h14.05.678,exp3,2022.2.2,
high_opac_v,0.01,1,0.01,3,0.82,3.5,0.01,0,0.01,4,5,Valid,1,66,196,start,lin,0.08591205754907984,0,0.08591205754907984,1,True,,,,,,,,,,,,6,A,2023-09-01_09h14.05.678,exp3,2022.2.2,
low_opac_v,0.4,1,0.01,3,0.82,3.5,0.01,0,0.01,4,5,Valid,0,66,197,start,lin,0.07945869307393955,0.07945869307393955,0.07945869307393955,1,True,,,,,,,,,,,,6,A,2023-09-01_09h14.05.678,exp3,2022.2.2,
low_opac_v,0.4,1,0.01,3,0.82,3.5,0.01,0,0.01,4,5,Valid,0,67,198,start,lin,0.0781432848610934,0,0.0781432848610934,1,True,,,,,,,,,,,,6,A,2023-09-01_09h14.05.678,exp3,2022.2.2,
low_opac_i,0.4,1,0.01,3,0.82,3.5,0.01,0,0.01,4,5,Invalid,2,67,199,start,lin,0.0901994017423905,0.0901994017423905,0.0901994017423905,1,True,,,,,,,,,,,,6,A,2023-09-01_09h14.05.678,exp3,2022.2.2,
high_opac_v,0.01,1,0.01,3,0.82,3.5,0.01,0,0.01,4,5,Valid,1,67,200,start,lin,0.08476986738649302,0,0.08476986738649302,1,True,,,,,,,,,,,,6,A,2023-09-01_09h14.05.678,exp3,2022.2.2,
low_opac_v,0.4,1,0.01,3,0.82,3.5,0.01,0,0.01,4,5,Valid,0,68,201,start,lin,0.07688611357568548,0,0.07688611357568548,1,True,,,,,,,,,,,,6,A,2023-09-01_09h14.05.678,exp3,2022.2.2,
high_opac_v,0.01,1,0.01,3,0.82,3.5,0.01,0,0.01,4,5,Valid,1,68,202,start,lin,0.08355557936163177,0,0.08355557936163177,1,True,,,,,,,,,,,,6,A,2023-09-01_09h14.05.678,exp3,2022.2.2,
low_opac_i,0.4,1,0.01,3,0.82,3.5,0.01,0,0.01,4,5,Invalid,2,68,203,start,lin,0.08894128358996439,0,0.08894128358996439,1,True,,,,,,,,,,,,6,A,2023-09-01_09h14.05.678,exp3,2022.2.2,
high_opac_v,0.01,1,0.01,3,0.82,3.5,0.01,0,0.01,4,5,Valid,1,69,204,start,lin,0.08236041053204769,0,0.08236041053204769,1,True,,,,,,,,,,,,6,A,2023-09-01_09h14.05.678,exp3,2022.2.2,
low_opac_i,0.4,1,0.01,3,0.82,3.5,0.01,0,0.01,4,5,Invalid,2,69,205,start,lin,0.08774276484671689,0,0.08774276484671689,1,True,,,,,,,,,,,,6,A,2023-09-01_09h14.05.678,exp3,2022.2.2,
low_opac_v,0.4,1,0.01,3,0.82,3.5,0.01,0,0.01,4,5,Valid,0,69,206,start,lin,0.07567512122984871,0,0.07567512122984871,1,True,,,,,,,,,,,,6,A,2023-09-01_09h14.05.678,exp3,2022.2.2,
low_opac_i,0.4,1,0.01,3,0.82,3.5,0.01,0,0.01,4,5,Invalid,2,70,207,start,lin,0.086593465326752,0.086593465326752,0.086593465326752,1,True,,,,,,,,,,,,6,A,2023-09-01_09h14.05.678,exp3,2022.2.2,
low_opac_v,0.4,1,0.01,3,0.82,3.5,0.01,0,0.01,4,5,Valid,0,70,208,start,lin,0.07449951826564932,0,0.07449951826564932,1,True,,,,,,,,,,,,6,A,2023-09-01_09h14.05.678,exp3,2022.2.2,
high_opac_v,0.01,1,0.01,3,0.82,3.5,0.01,0,0.01,4,5,Valid,1,70,209,start,lin,0.08117423195446737,0,0.08117423195446737,1,True,,,,,,,,,,,,6,A,2023-09-01_09h14.05.678,exp3,2022.2.2,
low_opac_v,0.4,1,0.01,3,0.82,3.5,0.01,0,0.01,4,5,Valid,0,71,210,start,lin,0.07324608893979162,0.07324608893979162,0.07324608893979162,1,True,,,,,,,,,,,,6,A,2023-09-01_09h14.05.678,exp3,2022.2.2,
high_opac_v,0.01,1,0.01,3,0.82,3.5,0.01,0,0.01,4,5,Valid,1,71,211,start,lin,0.07998751616266021,0,0.07998751616266021,1,True,,,,,,,,,,,,6,A,2023-09-01_09h14.05.678,exp3,2022.2.2,
low_opac_i,0.4,1,0.01,3,0.82,3.5,0.01,0,0.01,4,5,Invalid,2,71,212,start,lin,0.08548331625791461,0.08548331625791461,0.08548331625791461,1,True,,,,,,,,,,,,6,A,2023-09-01_09h14.05.678,exp3,2022.2.2,
low_opac_v,0.4,1,0.01,3,0.82,3.5,0.01,0,0.01,4,5,Valid,0,72,213,start,lin,0.07200893503600952,0,0.07200893503600952,1,True,,,,,,,,,,,,6,A,2023-09-01_09h14.05.678,exp3,2022.2.2,
low_opac_i,0.4,1,0.01,3,0.82,3.5,0.01,0,0.01,4,5,Invalid,2,72,214,start,lin,0.08440325239019697,0.08440325239019697,0.08440325239019697,1,True,,,,,,,,,,,,6,A,2023-09-01_09h14.05.678,exp3,2022.2.2,
high_opac_v,0.01,1,0.01,3,0.82,3.5,0.01,0,0.01,4,5,Valid,1,72,215,start,lin,0.0788274494399549,0,0.0788274494399549,1,True,,,,,,,,,,,,6,A,2023-09-01_09h14.05.678,exp3,2022.2.2,
high_opac_v,0.01,1,0.01,3,0.82,3.5,0.01,0,0.01,4,5,Valid,1,73,216,start,lin,0.07772032234058653,0.07772032234058653,0.07772032234058653,1,True,,,,,,,,,,,,6,A,2023-09-01_09h14.05.678,exp3,2022.2.2,
low_opac_v,0.4,1,0.01,3,0.82,3.5,0.01,0,0.01,4,5,Valid,0,73,217,start,lin,0.0707774553320486,0.0707774553320486,0.0707774553320486,1,True,,,,,,,,,,,,6,A,2023-09-01_09h14.05.678,exp3,2022.2.2,
low_opac_i,0.4,1,0.01,3,0.82,3.5,0.01,0,0.01,4,5,Invalid,2,73,218,start,lin,0.08324979590018888,0,0.08324979590018888,1,True,,,,,,,,,,,,6,A,2023-09-01_09h14.05.678,exp3,2022.2.2,
low_opac_v,0.4,1,0.01,3,0.82,3.5,0.01,0,0.01,4,5,Valid,0,74,219,start,lin,0.0695439557814932,0.0695439557814932,0.0695439557814932,1,True,,,,,,,,,,,,6,A,2023-09-01_09h14.05.678,exp3,2022.2.2,
high_opac_v,0.01,1,0.01,3,0.82,3.5,0.01,0,0.01,4,5,Valid,1,74,220,start,lin,0.07665656891151056,0.07665656891151056,0.07665656891151056,1,True,,,,,,,,,,,,6,A,2023-09-01_09h14.05.678,exp3,2022.2.2,
low_opac_i,0.4,1,0.01,3,0.82,3.5,0.01,0,0.01,4,5,Invalid,2,74,221,start,lin,0.08211024573283793,0.08211024573283793,0.08211024573283793,1,True,,,,,,,,,,,,6,A,2023-09-01_09h14.05.678,exp3,2022.2.2,
low_opac_i,0.4,1,0.01,3,0.82,3.5,0.01,0,0.01,4,5,Invalid,2,75,222,start,lin,0.08097556721163918,0.08097556721163918,0.08097556721163918,1,True,,,,,,,,,,,,6,A,2023-09-01_09h14.05.678,exp3,2022.2.2,
high_opac_v,0.01,1,0.01,3,0.82,3.5,0.01,0,0.01,4,5,Valid,1,75,223,start,lin,0.07562761071121109,0,0.07562761071121109,0,True,,,,,,,,,,,,6,A,2023-09-01_09h14.05.678,exp3,2022.2.2,
low_opac_v,0.4,1,0.01,3,0.82,3.5,0.01,0,0.01,4,5,Valid,0,75,224,start,lin,0.06835197004219629,0,0.06835197004219629,1,True,,,,,,,,,,,,6,A,2023-09-01_09h14.05.678,exp3,2022.2.2,
,,,,,,,,,,,,,,,,,,,,,,,0,-1716,Valid,signal,0,1,792.5261533001903,1,4.0,8.254931400064379,True,6,A,2023-09-01_09h14.05.678,exp3,2022.2.2,
,,,,,,,,,,,,,,,,,,,,,,,0,1158,Invalid,signal,0,1,801.5019037001766,1,4.0,6.314007699955255,True,6,A,2023-09-01_09h14.05.678,exp3,2022.2.2,
,,,,,,,,,,,,,,,,,,,,,,,0,-1158,Valid,signal,0,1,808.7656439000275,1,2.0,3.662731199990958,True,6,A,2023-09-01_09h14.05.678,exp3,2022.2.2,
,,,,,,,,,,,,,,,,,,,,,,,0,1158,Invalid,signal,0,1,813.9983887001872,1,4.0,3.2295044001657516,True,6,A,2023-09-01_09h14.05.678,exp3,2022.2.2,
,,,,,,,,,,,,,,,,,,,,,,,0,2274,Invalid,signal,0,2,821.1977423001081,0,2.0,7.764609799953178,True,6,A,2023-09-01_09h14.05.678,exp3,2022.2.2,
,,,,,,,,,,,,,,,,,,,,,,,0,-1158,Valid,signal,0,1,826.5420127999969,1,3.0,3.6466286999639124,True,6,A,2023-09-01_09h14.05.678,exp3,2022.2.2,
,,,,,,,,,,,,,,,,,,,,,,,0,2274,Valid,signal,0,2,832.4454700001515,0,1.0,4.446706400020048,True,6,A,2023-09-01_09h14.05.678,exp3,2022.2.2,
,,,,,,,,,,,,,,,,,,,,,,,0,-557,Valid,noise,0,2,836.9748153002001,1,4.0,3.8128003000747412,True,6,A,2023-09-01_09h14.05.678,exp3,2022.2.2,
,,,,,,,,,,,,,,,,,,,,,,,0,1716,Valid,noise,0,2,841.6944108000025,1,4.0,2.9628373999148607,True,6,A,2023-09-01_09h14.05.678,exp3,2022.2.2,
,,,,,,,,,,,,,,,,,,,,,,,0,-2274,Valid,signal,0,2,845.5342399000656,0,3.0,3.0466984999366105,True,6,A,2023-09-01_09h14.05.678,exp3,2022.2.2,
,,,,,,,,,,,,,,,,,,,,,,,0,-1158,Valid,noise,0,2,850.5425937001128,1,3.0,3.679045000113547,True,6,A,2023-09-01_09h14.05.678,exp3,2022.2.2,
,,,,,,,,,,,,,,,,,,,,,,,0,1716,Invalid,signal,0,1,853.9663561000489,1,4.0,2.5797931000124663,True,6,A,2023-09-01_09h14.05.678,exp3,2022.2.2,
,,,,,,,,,,,,,,,,,,,,,,,0,-557,Valid,signal,0,2,858.7175916000269,0,2.0,3.8630735999904573,True,6,A,2023-09-01_09h14.05.678,exp3,2022.2.2,
,,,,,,,,,,,,,,,,,,,,,,,0,1158,Valid,noise,0,2,862.366534100147,1,3.0,2.512606699950993,True,6,A,2023-09-01_09h14.05.678,exp3,2022.2.2,
,,,,,,,,,,,,,,,,,,,,,,,0,-1158,Valid,noise,0,2,867.1655509001575,1,4.0,3.663562099914998,True,6,A,2023-09-01_09h14.05.678,exp3,2022.2.2,
,,,,,,,,,,,,,,,,,,,,,,,0,-2274,Valid,noise,0,2,871.7101997002028,1,4.0,3.4788944001775235,True,6,A,2023-09-01_09h14.05.678,exp3,2022.2.2,
,,,,,,,,,,,,,,,,,,,,,,,0,-1716,Valid,noise,0,2,876.3016259002034,1,3.0,3.6127921000588685,True,6,A,2023-09-01_09h14.05.678,exp3,2022.2.2,
,,,,,,,,,,,,,,,,,,,,,,,0,1158,Invalid,noise,0,2,880.4305502001662,1,3.0,3.0466660000383854,True,6,A,2023-09-01_09h14.05.678,exp3,2022.2.2,
,,,,,,,,,,,,,,,,,,,,,,,0,1158,Valid,signal,0,1,884.9744278001599,1,2.0,4.229501500027254,True,6,A,2023-09-01_09h14.05.678,exp3,2022.2.2,
,,,,,,,,,,,,,,,,,,,,,,,0,-1158,Valid,noise,0,1,890.5103767002001,0,2.0,4.096446499926969,True,6,A,2023-09-01_09h14.05.678,exp3,2022.2.2,
,,,,,,,,,,,,,,,,,,,,,,,0,1158,Valid,noise,0,1,895.1667334001977,0,2.0,3.9970184999983758,True,6,A,2023-09-01_09h14.05.678,exp3,2022.2.2,
,,,,,,,,,,,,,,,,,,,,,,,0,557,Invalid,signal,0,2,899.4215387001168,0,4.0,2.829688200028613,True,6,A,2023-09-01_09h14.05.678,exp3,2022.2.2,
,,,,,,,,,,,,,,,,,,,,,,,0,557,Valid,noise,0,2,903.5825075001922,1,4.0,2.929584400029853,True,6,A,2023-09-01_09h14.05.678,exp3,2022.2.2,
,,,,,,,,,,,,,,,,,,,,,,,0,-1158,Valid,noise,0,2,907.2946874001063,1,3.0,2.7623978999909014,True,6,A,2023-09-01_09h14.05.678,exp3,2022.2.2,
,,,,,,,,,,,,,,,,,,,,,,,0,-557,Valid,noise,0,2,910.8304558000527,1,3.0,2.5464075000490993,True,6,A,2023-09-01_09h14.05.678,exp3,2022.2.2,
,,,,,,,,,,,,,,,,,,,,,,,0,-2274,Valid,noise,0,2,914.494417700218,1,4.0,2.6793515998870134,True,6,A,2023-09-01_09h14.05.678,exp3,2022.2.2,
,,,,,,,,,,,,,,,,,,,,,,,0,2274,Valid,signal,0,2,917.9493165002204,0,4.0,2.4953284000512213,True,6,A,2023-09-01_09h14.05.678,exp3,2022.2.2,
,,,,,,,,,,,,,,,,,,,,,,,0,1158,Valid,noise,0,2,921.3894752000924,1,4.0,2.4463565999176353,True,6,A,2023-09-01_09h14.05.678,exp3,2022.2.2,
,,,,,,,,,,,,,,,,,,,,,,,0,1158,Valid,signal,0,2,924.8136380000506,0,4.0,2.3794317999854684,True,6,A,2023-09-01_09h14.05.678,exp3,2022.2.2,
,,,,,,,,,,,,,,,,,,,,,,,0,-1158,Valid,signal,0,1,928.3813498001546,1,4.0,2.5960925000254065,True,6,A,2023-09-01_09h14.05.678,exp3,2022.2.2,
,,,,,,,,,,,,,,,,,,,,,,,0,-1716,Valid,signal,0,1,932.0305857001804,1,3.0,2.661961199948564,True,6,A,2023-09-01_09h14.05.678,exp3,2022.2.2,
,,,,,,,,,,,,,,,,,,,,,,,0,1158,Valid,noise,0,2,935.5505119001027,1,4.0,2.8967047000769526,True,6,A,2023-09-01_09h14.05.678,exp3,2022.2.2,
,,,,,,,,,,,,,,,,,,,,,,,0,-557,Valid,noise,0,2,939.5025972002186,1,4.0,2.4791713999584317,True,6,A,2023-09-01_09h14.05.678,exp3,2022.2.2,
,,,,,,,,,,,,,,,,,,,,,,,0,-557,Invalid,noise,0,1,943.1656487002037,0,1.0,3.7301256000064313,True,6,A,2023-09-01_09h14.05.678,exp3,2022.2.2,
,,,,,,,,,,,,,,,,,,,,,,,0,-2274,Valid,signal,0,2,947.9980939000379,0,4.0,2.7795098999049515,True,6,A,2023-09-01_09h14.05.678,exp3,2022.2.2,
,,,,,,,,,,,,,,,,,,,,,,,0,557,Valid,signal,0,1,952.814066400053,1,2.0,3.996727399993688,True,6,A,2023-09-01_09h14.05.678,exp3,2022.2.2,
,,,,,,,,,,,,,,,,,,,,,,,0,2274,Valid,noise,0,2,956.8135068002157,1,3.0,2.9795219998341054,True,6,A,2023-09-01_09h14.05.678,exp3,2022.2.2,
,,,,,,,,,,,,,,,,,,,,,,,0,1716,Valid,signal,0,2,960.3175981000531,0,3.0,2.3126348999794573,True,6,A,2023-09-01_09h14.05.678,exp3,2022.2.2,
,,,,,,,,,,,,,,,,,,,,,,,0,-1158,Valid,signal,0,2,963.6777606999967,0,2.0,2.679633699823171,True,6,A,2023-09-01_09h14.05.678,exp3,2022.2.2,
,,,,,,,,,,,,,,,,,,,,,,,0,-1716,Valid,noise,0,1,967.6464701001532,0,1.0,3.979647000087425,True,6,A,2023-09-01_09h14.05.678,exp3,2022.2.2,
,,,,,,,,,,,,,,,,,,,,,,,0,1716,Valid,noise,0,2,972.909913700074,1,3.0,3.046394099947065,True,6,A,2023-09-01_09h14.05.678,exp3,2022.2.2,
,,,,,,,,,,,,,,,,,,,,,,,0,2274,Valid,noise,0,2,976.4941587999929,1,2.0,2.8294609000440687,True,6,A,2023-09-01_09h14.05.678,exp3,2022.2.2,
,,,,,,,,,,,,,,,,,,,,,,,0,-557,Valid,noise,0,2,980.4137600001413,1,4.0,2.6459210000466555,True,6,A,2023-09-01_09h14.05.678,exp3,2022.2.2,
,,,,,,,,,,,,,,,,,,,,,,,0,2274,Valid,signal,0,2,983.9974546001758,0,4.0,2.496660399949178,True,6,A,2023-09-01_09h14.05.678,exp3,2022.2.2,
,,,,,,,,,,,,,,,,,,,,,,,0,-1716,Valid,signal,0,1,987.3899809001014,1,4.0,2.445346200140193,True,6,A,2023-09-01_09h14.05.678,exp3,2022.2.2,
,,,,,,,,,,,,,,,,,,,,,,,0,-1158,Valid,noise,0,2,990.8300450001843,1,3.0,2.362669400172308,True,6,A,2023-09-01_09h14.05.678,exp3,2022.2.2,
,,,,,,,,,,,,,,,,,,,,,,,0,1716,Valid,noise,0,2,994.3340694000944,1,3.0,2.5632424999494106,True,6,A,2023-09-01_09h14.05.678,exp3,2022.2.2,
,,,,,,,,,,,,,,,,,,,,,,,0,557,Valid,noise,0,2,997.9015737001318,1,4.0,2.478760299971327,True,6,A,2023-09-01_09h14.05.678,exp3,2022.2.2,
,,,,,,,,,,,,,,,,,,,,,,,0,557,Valid,signal,0,1,1001.2939440000337,1,4.0,2.47895840019919,True,6,A,2023-09-01_09h14.05.678,exp3,2022.2.2,
,,,,,,,,,,,,,,,,,,,,,,,0,1716,Valid,signal,0,1,1004.6697314002085,1,4.0,2.2793784998357296,True,6,A,2023-09-01_09h14.05.678,exp3,2022.2.2,
,,,,,,,,,,,,,,,,,,,,,,,0,-1716,Invalid,noise,0,2,1008.0620525002014,1,3.0,2.429587099933997,True,6,A,2023-09-01_09h14.05.678,exp3,2022.2.2,
,,,,,,,,,,,,,,,,,,,,,,,0,-1716,Valid,signal,0,1,1011.6781814000569,1,4.0,2.59594520018436,True,6,A,2023-09-01_09h14.05.678,exp3,2022.2.2,
,,,,,,,,,,,,,,,,,,,,,,,0,-2274,Valid,noise,0,2,1015.1494316000026,1,4.0,2.5623778000008315,True,6,A,2023-09-01_09h14.05.678,exp3,2022.2.2,
,,,,,,,,,,,,,,,,,,,,,,,0,-1716,Invalid,noise,0,1,1018.9106547001284,0,2.0,2.963347899960354,True,6,A,2023-09-01_09h14.05.678,exp3,2022.2.2,
,,,,,,,,,,,,,,,,,,,,,,,0,-557,Invalid,signal,0,1,1022.6706079000141,1,3.0,2.5458765998482704,True,6,A,2023-09-01_09h14.05.678,exp3,2022.2.2,
,,,,,,,,,,,,,,,,,,,,,,,0,557,Valid,noise,0,2,1026.093342800159,1,4.0,2.2453676001168787,True,6,A,2023-09-01_09h14.05.678,exp3,2022.2.2,
,,,,,,,,,,,,,,,,,,,,,,,0,-557,Valid,signal,0,1,1029.3574772002175,1,4.0,2.5131787001155317,True,6,A,2023-09-01_09h14.05.678,exp3,2022.2.2,
,,,,,,,,,,,,,,,,,,,,,,,0,2274,Valid,signal,0,2,1032.9585293000564,0,4.0,2.8625637001823634,True,6,A,2023-09-01_09h14.05.678,exp3,2022.2.2,
,,,,,,,,,,,,,,,,,,,,,,,0,-557,Valid,noise,0,2,1036.9107379000634,1,4.0,2.6795748998411,True,6,A,2023-09-01_09h14.05.678,exp3,2022.2.2,
,,,,,,,,,,,,,,,,,,,,,,,0,-2274,Valid,signal,0,2,1040.478001800133,0,4.0,2.2627975000068545,True,6,A,2023-09-01_09h14.05.678,exp3,2022.2.2,
,,,,,,,,,,,,,,,,,,,,,,,0,1158,Valid,noise,0,1,1044.3653176000807,0,3.0,3.0299565999303013,True,6,A,2023-09-01_09h14.05.678,exp3,2022.2.2,
,,,,,,,,,,,,,,,,,,,,,,,0,1716,Valid,signal,0,1,1047.9180292000528,1,3.0,2.4292438998818398,True,6,A,2023-09-01_09h14.05.678,exp3,2022.2.2,
,,,,,,,,,,,,,,,,,,,,,,,0,-1158,Valid,noise,0,2,1051.1013044000138,1,4.0,2.1790966000407934,True,6,A,2023-09-01_09h14.05.678,exp3,2022.2.2,
,,,,,,,,,,,,,,,,,,,,,,,0,2274,Valid,noise,0,2,1054.334133299999,1,4.0,2.2624745999928564,True,6,A,2023-09-01_09h14.05.678,exp3,2022.2.2,
,,,,,,,,,,,,,,,,,,,,,,,0,-1158,Invalid,noise,0,1,1057.9657068001106,0,3.0,2.5790161001496017,True,6,A,2023-09-01_09h14.05.678,exp3,2022.2.2,
,,,,,,,,,,,,,,,,,,,,,,,0,1716,Valid,noise,0,2,1061.2943880001549,1,4.0,2.3130325998645276,True,6,A,2023-09-01_09h14.05.678,exp3,2022.2.2,
,,,,,,,,,,,,,,,,,,,,,,,0,1158,Invalid,noise,0,2,1064.5264032999985,1,4.0,2.2792352999094874,True,6,A,2023-09-01_09h14.05.678,exp3,2022.2.2,
,,,,,,,,,,,,,,,,,,,,,,,0,-557,Valid,noise,0,2,1068.301792200189,1,4.0,2.7800258002243936,True,6,A,2023-09-01_09h14.05.678,exp3,2022.2.2,
,,,,,,,,,,,,,,,,,,,,,,,0,-557,Valid,noise,0,2,1071.7103645000607,1,4.0,2.412529199849814,True,6,A,2023-09-01_09h14.05.678,exp3,2022.2.2,
,,,,,,,,,,,,,,,,,,,,,,,0,1716,Valid,signal,0,2,1075.374074100051,0,4.0,3.0625215000472963,True,6,A,2023-09-01_09h14.05.678,exp3,2022.2.2,
,,,,,,,,,,,,,,,,,,,,,,,0,-1716,Valid,noise,0,1,1079.1819361001253,0,2.0,2.5291476000566036,True,6,A,2023-09-01_09h14.05.678,exp3,2022.2.2,
,,,,,,,,,,,,,,,,,,,,,,,0,557,Valid,signal,0,1,1082.7664665000048,1,2.0,2.5791248998139054,True,6,A,2023-09-01_09h14.05.678,exp3,2022.2.2,
,,,,,,,,,,,,,,,,,,,,,,,0,-1716,Valid,noise,0,2,1086.1893249000423,1,4.0,2.329608399886638,True,6,A,2023-09-01_09h14.05.678,exp3,2022.2.2,
,,,,,,,,,,,,,,,,,,,,,,,0,-2274,Valid,noise,0,2,1089.757212600205,1,4.0,2.5629255999810994,True,6,A,2023-09-01_09h14.05.678,exp3,2022.2.2,
,,,,,,,,,,,,,,,,,,,,,,,0,1716,Invalid,noise,0,2,1093.1813808002044,1,3.0,2.4289430999197066,True,6,A,2023-09-01_09h14.05.678,exp3,2022.2.2,
,,,,,,,,,,,,,,,,,,,,,,,0,1158,Valid,signal,0,1,1096.7186343001667,1,4.0,3.28029129980132,True,6,A,2023-09-01_09h14.05.678,exp3,2022.2.2,
,,,,,,,,,,,,,,,,,,,,,,,0,1158,Valid,signal,0,1,1100.845971800154,1,3.0,2.362043999833986,True,6,A,2023-09-01_09h14.05.678,exp3,2022.2.2,
,,,,,,,,,,,,,,,,,,,,,,,0,2274,Valid,noise,0,2,1104.286142300116,1,3.0,2.4126167001668364,True,6,A,2023-09-01_09h14.05.678,exp3,2022.2.2,
,,,,,,,,,,,,,,,,,,,,,,,0,-1716,Valid,signal,0,1,1107.74186690012,1,4.0,2.4796520001254976,True,6,A,2023-09-01_09h14.05.678,exp3,2022.2.2,
,,,,,,,,,,,,,,,,,,,,,,,0,-1158,Valid,signal,0,1,1111.0546013000421,1,4.0,2.3291737001854926,True,6,A,2023-09-01_09h14.05.678,exp3,2022.2.2,
,,,,,,,,,,,,,,,,,,,,,,,0,557,Valid,noise,0,2,1114.4298419000115,1,4.0,2.3628676999360323,True,6,A,2023-09-01_09h14.05.678,exp3,2022.2.2,
,,,,,,,,,,,,,,,,,,,,,,,0,-1716,Valid,noise,0,1,1117.7906693001278,0,1.0,3.6128146001137793,True,6,A,2023-09-01_09h14.05.678,exp3,2022.2.2,
,,,,,,,,,,,,,,,,,,,,,,,0,-557,Valid,noise,0,2,1122.9577249002177,1,3.0,2.929458700120449,True,6,A,2023-09-01_09h14.05.678,exp3,2022.2.2,
,,,,,,,,,,,,,,,,,,,,,,,0,557,Valid,signal,0,2,1126.5741540000308,0,3.0,2.5298833998385817,True,6,A,2023-09-01_09h14.05.678,exp3,2022.2.2,
,,,,,,,,,,,,,,,,,,,,,,,0,-1158,Valid,signal,0,2,1132.3822815001477,0,1.0,5.129934899974614,True,6,A,2023-09-01_09h14.05.678,exp3,2022.2.2,
,,,,,,,,,,,,,,,,,,,,,,,0,-1158,Valid,noise,0,2,1138.9577543002088,1,2.0,5.296813199995086,True,6,A,2023-09-01_09h14.05.678,exp3,2022.2.2,
,,,,,,,,,,,,,,,,,,,,,,,0,1158,Valid,noise,0,2,1142.5905880001374,1,3.0,3.063647500006482,True,6,A,2023-09-01_09h14.05.678,exp3,2022.2.2,
,,,,,,,,,,,,,,,,,,,,,,,0,1716,Valid,signal,0,1,1146.3824295999948,1,4.0,2.4784017000347376,True,6,A,2023-09-01_09h14.05.678,exp3,2022.2.2,
,,,,,,,,,,,,,,,,,,,,,,,0,-2274,Invalid,noise,0,2,1149.869377600029,1,4.0,2.7463237999472767,True,6,A,2023-09-01_09h14.05.678,exp3,2022.2.2,
,,,,,,,,,,,,,,,,,,,,,,,0,-2274,Valid,noise,0,2,1153.6462052999996,1,4.0,2.5130139000248164,True,6,A,2023-09-01_09h14.05.678,exp3,2022.2.2,
,,,,,,,,,,,,,,,,,,,,,,,0,2274,Valid,noise,0,2,1157.1333392001688,1,4.0,2.2455885000526905,True,6,A,2023-09-01_09h14.05.678,exp3,2022.2.2,
,,,,,,,,,,,,,,,,,,,,,,,0,-1716,Valid,signal,0,2,1160.3663302999921,0,4.0,2.2465598999988288,True,6,A,2023-09-01_09h14.05.678,exp3,2022.2.2,
,,,,,,,,,,,,,,,,,,,,,,,0,557,Valid,signal,0,1,1164.3495764001273,1,4.0,3.279427600093186,True,6,A,2023-09-01_09h14.05.678,exp3,2022.2.2,
,,,,,,,,,,,,,,,,,,,,,,,0,-2274,Valid,signal,0,2,1167.9498809000943,0,4.0,2.4288520999252796,True,6,A,2023-09-01_09h14.05.678,exp3,2022.2.2,
,,,,,,,,,,,,,,,,,,,,,,,0,557,Valid,signal,0,1,1171.4541463002097,1,3.0,2.44626190001145,True,6,A,2023-09-01_09h14.05.678,exp3,2022.2.2,
,,,,,,,,,,,,,,,,,,,,,,,0,1716,Valid,noise,0,1,1174.9739970001392,0,3.0,2.5787851000204682,True,6,A,2023-09-01_09h14.05.678,exp3,2022.2.2,
,,,,,,,,,,,,,,,,,,,,,,,0,2274,Invalid,noise,0,2,1178.542565900134,1,4.0,2.512769299792126,True,6,A,2023-09-01_09h14.05.678,exp3,2022.2.2,
,,,,,,,,,,,,,,,,,,,,,,,0,-557,Valid,noise,0,2,1182.1583047001623,1,4.0,2.5626836998853832,True,6,A,2023-09-01_09h14.05.678,exp3,2022.2.2,
,,,,,,,,,,,,,,,,,,,,,,,0,557,Invalid,signal,0,1,1185.517880700063,1,4.0,2.3799967002123594,True,6,A,2023-09-01_09h14.05.678,exp3,2022.2.2,
,,,,,,,,,,,,,,,,,,,,,,,0,2274,Valid,signal,0,2,1188.8462882000022,0,4.0,2.2787762999068946,True,6,A,2023-09-01_09h14.05.678,exp3,2022.2.2,
,,,,,,,,,,,,,,,,,,,,,,,0,1716,Valid,noise,0,2,1192.1424047001638,1,4.0,3.296242000069469,True,6,A,2023-09-01_09h14.05.678,exp3,2022.2.2,
,,,,,,,,,,,,,,,,,,,,,,,0,1158,Valid,noise,0,2,1196.5900319002103,1,4.0,2.5793405000586063,True,6,A,2023-09-01_09h14.05.678,exp3,2022.2.2,
,,,,,,,,,,,,,,,,,,,,,,,0,557,Valid,signal,0,1,1200.1103474001866,1,4.0,2.4291440998204052,True,6,A,2023-09-01_09h14.05.678,exp3,2022.2.2,
,,,,,,,,,,,,,,,,,,,,,,,0,2274,Valid,noise,0,2,1203.517828800017,1,4.0,2.312833599979058,True,6,A,2023-09-01_09h14.05.678,exp3,2022.2.2,
,,,,,,,,,,,,,,,,,,,,,,,0,1158,Valid,signal,0,1,1206.7820223001763,1,4.0,2.2959165999200195,True,6,A,2023-09-01_09h14.05.678,exp3,2022.2.2,
,,,,,,,,,,,,,,,,,,,,,,,0,-1716,Valid,signal,0,1,1210.3653717001434,1,3.0,2.7630910000298172,True,6,A,2023-09-01_09h14.05.678,exp3,2022.2.2,
,,,,,,,,,,,,,,,,,,,,,,,0,-1716,Valid,signal,0,1,1213.8858272000216,1,3.0,2.312251799972728,True,6,A,2023-09-01_09h14.05.678,exp3,2022.2.2,
,,,,,,,,,,,,,,,,,,,,,,,0,-2274,Valid,signal,0,2,1217.2295884001069,0,4.0,2.663109199842438,True,6,A,2023-09-01_09h14.05.678,exp3,2022.2.2,
,,,,,,,,,,,,,,,,,,,,,,,0,-557,Valid,signal,0,1,1221.0058499001898,1,4.0,2.529217899776995,True,6,A,2023-09-01_09h14.05.678,exp3,2022.2.2,
,,,,,,,,,,,,,,,,,,,,,,,0,2274,Valid,signal,0,2,1224.4296743001323,0,3.0,2.3298365001101047,True,6,A,2023-09-01_09h14.05.678,exp3,2022.2.2,
,,,,,,,,,,,,,,,,,,,,,,,0,2274,Invalid,noise,0,2,1227.9174008001573,1,4.0,2.6454038999509066,True,6,A,2023-09-01_09h14.05.678,exp3,2022.2.2,
,,,,,,,,,,,,,,,,,,,,,,,0,-557,Invalid,signal,0,1,1231.2931558000855,1,4.0,2.1959055000916123,True,6,A,2023-09-01_09h14.05.678,exp3,2022.2.2,
,,,,,,,,,,,,,,,,,,,,,,,0,-557,Invalid,noise,0,2,1234.9418447001372,1,2.0,3.396515800151974,True,6,A,2023-09-01_09h14.05.678,exp3,2022.2.2,
,,,,,,,,,,,,,,,,,,,,,,,0,-2274,Valid,noise,0,2,1239.9813134002034,1,3.0,3.7965184000786394,True,6,A,2023-09-01_09h14.05.678,exp3,2022.2.2,
,,,,,,,,,,,,,,,,,,,,,,,0,-2274,Valid,signal,0,2,1243.9494025001768,0,3.0,3.0466119998600334,True,6,A,2023-09-01_09h14.05.678,exp3,2022.2.2,
,,,,,,,,,,,,,,,,,,,,,,,0,-557,Valid,signal,0,2,1248.0620685000904,0,1.0,4.1962751999963075,True,6,A,2023-09-01_09h14.05.678,exp3,2022.2.2,
,,,,,,,,,,,,,,,,,,,,,,,0,1158,Valid,noise,0,2,1253.1976561001502,1,3.0,2.896275900071487,True,6,A,2023-09-01_09h14.05.678,exp3,2022.2.2,
,,,,,,,,,,,,,,,,,,,,,,,0,1158,Valid,signal,0,1,1257.0701825001743,1,4.0,2.712566299829632,True,6,A,2023-09-01_09h14.05.678,exp3,2022.2.2,
,,,,,,,,,,,,,,,,,,,,,,,0,557,Valid,noise,0,2,1260.669913600199,1,4.0,2.3125329001341015,True,6,A,2023-09-01_09h14.05.678,exp3,2022.2.2,
,,,,,,,,,,,,,,,,,,,,,,,0,1716,Invalid,noise,0,2,1264.0457383000758,1,4.0,2.6635579001158476,True,6,A,2023-09-01_09h14.05.678,exp3,2022.2.2,
,,,,,,,,,,,,,,,,,,,,,,,0,1716,Valid,noise,0,2,1267.8863890001085,1,3.0,2.6622352998238057,True,6,A,2023-09-01_09h14.05.678,exp3,2022.2.2,
,,,,,,,,,,,,,,,,,,,,,,,0,-557,Valid,signal,0,1,1271.3583916001953,1,4.0,5.530641299905255,True,6,A,2023-09-01_09h14.05.678,exp3,2022.2.2,
,,,,,,,,,,,,,,,,,,,,,,,0,1716,Valid,noise,0,2,1280.349262200063,1,4.0,5.913854799931869,True,6,A,2023-09-01_09h14.05.678,exp3,2022.2.2,
,,,,,,,,,,,,,,,,,,,,,,,0,1716,Valid,signal,0,1,1284.846240100218,1,3.0,2.562892399961129,True,6,A,2023-09-01_09h14.05.678,exp3,2022.2.2,
,,,,,,,,,,,,,,,,,,,,,,,0,1716,Invalid,signal,0,2,1288.6383836001623,0,3.0,2.613082099938765,True,6,A,2023-09-01_09h14.05.678,exp3,2022.2.2,
,,,,,,,,,,,,,,,,,,,,,,,0,557,Valid,noise,0,2,1292.093926800182,1,3.0,2.628677000058815,True,6,A,2023-09-01_09h14.05.678,exp3,2022.2.2,
,,,,,,,,,,,,,,,,,,,,,,,0,557,Valid,noise,0,2,1295.6302104000933,1,3.0,2.27972329990007,True,6,A,2023-09-01_09h14.05.678,exp3,2022.2.2,
,,,,,,,,,,,,,,,,,,,,,,,0,2274,Valid,signal,0,2,1298.8455945001915,0,3.0,2.1794706999789923,True,6,A,2023-09-01_09h14.05.678,exp3,2022.2.2,
,,,,,,,,,,,,,,,,,,,,,,,0,1716,Valid,signal,0,1,1302.1093942001462,1,4.0,2.3626246999483556,True,6,A,2023-09-01_09h14.05.678,exp3,2022.2.2,
,,,,,,,,,,,,,,,,,,,,,,,0,-1158,Valid,noise,0,2,1305.4063919000328,1,3.0,2.3621461000293493,True,6,A,2023-09-01_09h14.05.678,exp3,2022.2.2,
,,,,,,,,,,,,,,,,,,,,,,,0,-1158,Invalid,noise,0,2,1308.782100000186,1,3.0,2.1793575000483543,True,6,A,2023-09-01_09h14.05.678,exp3,2022.2.2,
,,,,,,,,,,,,,,,,,,,,,,,0,1158,Valid,signal,0,2,1312.0616716002114,0,3.0,2.279239600058645,True,6,A,2023-09-01_09h14.05.678,exp3,2022.2.2,
,,,,,,,,,,,,,,,,,,,,,,,0,2274,Valid,signal,0,2,1315.1665716001298,0,3.0,2.24573149997741,True,6,A,2023-09-01_09h14.05.678,exp3,2022.2.2,
,,,,,,,,,,,,,,,,,,,,,,,0,1158,Valid,signal,0,2,1318.4624824000057,0,3.0,2.163331000134349,True,6,A,2023-09-01_09h14.05.678,exp3,2022.2.2,
,,,,,,,,,,,,,,,,,,,,,,,0,-2274,Valid,noise,0,2,1321.693178600166,1,3.0,2.2622273999731988,True,6,A,2023-09-01_09h14.05.678,exp3,2022.2.2,
,,,,,,,,,,,,,,,,,,,,,,,0,-1716,Invalid,signal,0,2,1324.9103094001766,0,3.0,2.262457299977541,True,6,A,2023-09-01_09h14.05.678,exp3,2022.2.2,
,,,,,,,,,,,,,,,,,,,,,,,0,557,Invalid,noise,0,2,1328.2378631001338,1,3.0,2.5963043000083417,True,6,A,2023-09-01_09h14.05.678,exp3,2022.2.2,
,,,,,,,,,,,,,,,,,,,,,,,0,-557,Valid,signal,0,2,1331.9491107000504,0,1.0,2.77889860002324,True,6,A,2023-09-01_09h14.05.678,exp3,2022.2.2,
,,,,,,,,,,,,,,,,,,,,,,,0,-2274,Valid,noise,0,2,1335.5977747000288,1,3.0,2.312518199905753,True,6,A,2023-09-01_09h14.05.678,exp3,2022.2.2,
,,,,,,,,,,,,,,,,,,,,,,,0,557,Valid,signal,0,1,1338.8621175000444,1,4.0,2.146195200039074,True,6,A,2023-09-01_09h14.05.678,exp3,2022.2.2,
,,,,,,,,,,,,,,,,,,,,,,,0,557,Invalid,noise,0,2,1342.1734096000437,1,4.0,2.345214599976316,True,6,A,2023-09-01_09h14.05.678,exp3,2022.2.2,
,,,,,,,,,,,,,,,,,,,,,,,0,1158,Valid,signal,0,2,1346.4143372001126,0,2.0,3.7302622999995947,True,6,A,2023-09-01_09h14.05.678,exp3,2022.2.2,
,,,,,,,,,,,,,,,,,,,,,,,0,-1158,Valid,noise,0,2,1350.2215918002184,1,3.0,2.3288294998928905,True,6,A,2023-09-01_09h14.05.678,exp3,2022.2.2,
,,,,,,,,,,,,,,,,,,,,,,,0,-1158,Invalid,signal,0,1,1353.597835100023,1,3.0,2.429004600038752,True,6,A,2023-09-01_09h14.05.678,exp3,2022.2.2,
,,,,,,,,,,,,,,,,,,,,,,,0,-1158,Invalid,signal,0,1,1357.0065239001997,1,3.0,2.379349200055003,True,6,A,2023-09-01_09h14.05.678,exp3,2022.2.2,
,,,,,,,,,,,,,,,,,,,,,,,0,-1716,Valid,noise,0,2,1360.398471500026,1,3.0,2.412894899956882,True,6,A,2023-09-01_09h14.05.678,exp3,2022.2.2,
,,,,,,,,,,,,,,,,,,,,,,,0,1716,Valid,signal,0,1,1364.1252433001064,1,3.0,2.663097099866718,True,6,A,2023-09-01_09h14.05.678,exp3,2022.2.2,
,,,,,,,,,,,,,,,,,,,,,,,0,557,Valid,noise,0,2,1367.4372274000198,1,3.0,2.7954005000647157,True,6,A,2023-09-01_09h14.05.678,exp3,2022.2.2,
,,,,,,,,,,,,,,,,,,,,,,,0,2274,Valid,signal,0,2,1371.1494752001017,0,3.0,2.2461685999296606,True,6,A,2023-09-01_09h14.05.678,exp3,2022.2.2,
,,,,,,,,,,,,,,,,,,,,,,,0,2274,Valid,noise,0,2,1374.4941597001161,1,3.0,2.2790912000928074,True,6,A,2023-09-01_09h14.05.678,exp3,2022.2.2,
,,,,,,,,,,,,,,,,,,,,,,,0,-2274,Invalid,noise,0,2,1377.7892134001013,1,3.0,2.3288714000955224,True,6,A,2023-09-01_09h14.05.678,exp3,2022.2.2,
,,,,,,,,,,,,,,,,,,,,,,,0,2274,Valid,noise,0,1,1381.2132943000179,0,3.0,2.663189399987459,True,6,A,2023-09-01_09h14.05.678,exp3,2022.2.2,
,,,,,,,,,,,,,,,,,,,,,,,0,1716,Valid,noise,0,2,1385.0383541001938,1,2.0,3.4796506001148373,True,6,A,2023-09-01_09h14.05.678,exp3,2022.2.2,
,,,,,,,,,,,,,,,,,,,,,,,0,557,Valid,noise,0,2,1389.1821432001889,1,3.0,2.1292688997928053,True,6,A,2023-09-01_09h14.05.678,exp3,2022.2.2,
,,,,,,,,,,,,,,,,,,,,,,,0,-2274,Valid,signal,0,2,1392.4773486000486,0,4.0,2.41246879985556,True,6,A,2023-09-01_09h14.05.678,exp3,2022.2.2,
,,,,,,,,,,,,,,,,,,,,,,,0,2274,Invalid,signal,0,2,1395.7897447000723,0,4.0,2.3455045002046973,True,6,A,2023-09-01_09h14.05.678,exp3,2022.2.2,
,,,,,,,,,,,,,,,,,,,,,,,0,-557,Valid,signal,0,1,1399.2301202001981,1,4.0,2.6464549999218434,True,6,A,2023-09-01_09h14.05.678,exp3,2022.2.2,
,,,,,,,,,,,,,,,,,,,,,,,0,-1716,Valid,noise,0,2,1402.8465231000446,1,3.0,2.345956099918112,True,6,A,2023-09-01_09h14.05.678,exp3,2022.2.2,
,,,,,,,,,,,,,,,,,,,,,,,0,-1158,Valid,signal,0,2,1409.5811791000888,0,3.0,6.563898499822244,True,6,A,2023-09-01_09h14.05.678,exp3,2022.2.2,
,,,,,,,,,,,,,,,,,,,,,,,0,-2274,Invalid,signal,0,2,1415.069495700067,0,2.0,3.829424499999732,True,6,A,2023-09-01_09h14.05.678,exp3,2022.2.2,
,,,,,,,,,,,,,,,,,,,,,,,0,1716,Valid,signal,0,2,1418.6697783002164,0,3.0,2.545972299994901,True,6,A,2023-09-01_09h14.05.678,exp3,2022.2.2,
,,,,,,,,,,,,,,,,,,,,,,,0,-557,Valid,signal,0,1,1422.317238200223,1,3.0,2.4794409999158233,True,6,A,2023-09-01_09h14.05.678,exp3,2022.2.2,
,,,,,,,,,,,,,,,,,,,,,,,0,-2274,Invalid,signal,0,2,1425.6145215001889,0,3.0,2.3788799999747425,True,6,A,2023-09-01_09h14.05.678,exp3,2022.2.2,
,,,,,,,,,,,,,,,,,,,,,,,0,-2274,Valid,signal,0,2,1429.1013859000523,0,4.0,3.0466480997856706,True,6,A,2023-09-01_09h14.05.678,exp3,2022.2.2,
,,,,,,,,,,,,,,,,,,,,,,,0,-1716,Valid,noise,0,2,1433.0211561000906,1,4.0,2.3466233999934047,True,6,A,2023-09-01_09h14.05.678,exp3,2022.2.2,
,,,,,,,,,,,,,,,,,,,,,,,0,557,Valid,signal,0,2,1436.2856108001433,0,1.0,2.895585099933669,True,6,A,2023-09-01_09h14.05.678,exp3,2022.2.2,
,,,,,,,,,,,,,,,,,,,,,,,0,-1716,Valid,signal,0,2,1440.7655844001565,0,1.0,3.029664000030607,True,6,A,2023-09-01_09h14.05.678,exp3,2022.2.2,
,,,,,,,,,,,,,,,,,,,,,,,0,-1158,Valid,signal,0,1,1444.397707000142,1,4.0,3.0134479999542236,True,6,A,2023-09-01_09h14.05.678,exp3,2022.2.2,
,,,,,,,,,,,,,,,,,,,,,,,0,-1158,Valid,signal,0,1,1448.3343240001705,1,4.0,2.545907699968666,True,6,A,2023-09-01_09h14.05.678,exp3,2022.2.2,
,,,,,,,,,,,,,,,,,,,,,,,0,-557,Valid,signal,0,1,1451.7905166000128,1,4.0,2.1288665998727083,True,6,A,2023-09-01_09h14.05.678,exp3,2022.2.2,
,,,,,,,,,,,,,,,,,,,,,,,0,-1716,Invalid,signal,0,1,1455.0702084000222,1,4.0,2.329394199885428,True,6,A,2023-09-01_09h14.05.678,exp3,2022.2.2,
,,,,,,,,,,,,,,,,,,,,,,,0,2274,Valid,noise,0,2,1458.4781731001567,1,3.0,2.479393099900335,True,6,A,2023-09-01_09h14.05.678,exp3,2022.2.2,
,,,,,,,,,,,,,,,,,,,,,,,0,1158,Valid,noise,0,2,1462.173683400033,1,3.0,2.963314700173214,True,6,A,2023-09-01_09h14.05.678,exp3,2022.2.2,
,,,,,,,,,,,,,,,,,,,,,,,0,-2274,Valid,signal,0,2,1465.9174998002127,0,3.0,2.6461938999127597,True,6,A,2023-09-01_09h14.05.678,exp3,2022.2.2,
,,,,,,,,,,,,,,,,,,,,,,,0,-2274,Valid,noise,0,1,1471.133310600184,0,3.0,4.6300639000255615,True,6,A,2023-09-01_09h14.05.678,exp3,2022.2.2,
,,,,,,,,,,,,,,,,,,,,,,,0,-1716,Valid,noise,0,2,1475.1496805001516,1,3.0,2.3120243998710066,True,6,A,2023-09-01_09h14.05.678,exp3,2022.2.2,
,,,,,,,,,,,,,,,,,,,,,,,1,-2274,Valid,noise,0,2,1683.8209459001664,1,4.0,7.711167000001296,True,6,A,2023-09-01_09h14.05.678,exp3,2022.2.2,
,,,,,,,,,,,,,,,,,,,,,,,2,-557,Invalid,signal,0,2,1688.669130800059,0,4.0,2.546374599914998,True,6,A,2023-09-01_09h14.05.678,exp3,2022.2.2,
,,,,,,,,,,,,,,,,,,,,,,,3,-1158,Valid,signal,0,2,1692.2534310000483,0,1.0,2.729279400082305,True,6,A,2023-09-01_09h14.05.678,exp3,2022.2.2,
,,,,,,,,,,,,,,,,,,,,,,,4,2274,Valid,signal,0,2,1695.9651570001151,0,3.0,2.579676399938762,True,6,A,2023-09-01_09h14.05.678,exp3,2022.2.2,
,,,,,,,,,,,,,,,,,,,,,,,5,-2274,Valid,signal,0,2,1699.5650494000874,0,3.0,2.246209600009024,True,6,A,2023-09-01_09h14.05.678,exp3,2022.2.2,
,,,,,,,,,,,,,,,,,,,,,,,6,-2274,Valid,noise,0,2,1702.6852964002173,1,4.0,2.412505199899897,True,6,A,2023-09-01_09h14.05.678,exp3,2022.2.2,
,,,,,,,,,,,,,,,,,,,,,,,7,-1716,Valid,noise,0,2,1706.3174609001726,1,4.0,2.479886199813336,True,6,A,2023-09-01_09h14.05.678,exp3,2022.2.2,
,,,,,,,,,,,,,,,,,,,,,,,8,-557,Valid,signal,0,2,1709.7261825001333,0,3.0,2.2784567000344396,True,6,A,2023-09-01_09h14.05.678,exp3,2022.2.2,
,,,,,,,,,,,,,,,,,,,,,,,9,2274,Valid,noise,0,2,1712.990073800087,1,4.0,2.7463808997999877,True,6,A,2023-09-01_09h14.05.678,exp3,2022.2.2,
,,,,,,,,,,,,,,,,,,,,,,,10,1716,Invalid,signal,0,2,1717.5021515002009,0,3.0,3.029726800043136,True,6,A,2023-09-01_09h14.05.678,exp3,2022.2.2,
,,,,,,,,,,,,,,,,,,,,,,,11,1716,Valid,signal,0,2,1720.7972836000845,0,3.0,2.4626596001908183,True,6,A,2023-09-01_09h14.05.678,exp3,2022.2.2,
,,,,,,,,,,,,,,,,,,,,,,,12,2274,Valid,noise,0,1,1724.237276500091,0,3.0,2.929527600063011,True,6,A,2023-09-01_09h14.05.678,exp3,2022.2.2,
,,,,,,,,,,,,,,,,,,,,,,,13,-1716,Invalid,signal,0,1,1728.3970207001548,1,3.0,2.5296691998373717,True,6,A,2023-09-01_09h14.05.678,exp3,2022.2.2,
,,,,,,,,,,,,,,,,,,,,,,,14,-2274,Valid,noise,0,2,1732.2217139001004,1,3.0,2.9962821998633444,True,6,A,2023-09-01_09h14.05.678,exp3,2022.2.2,
,,,,,,,,,,,,,,,,,,,,,,,15,-1716,Invalid,noise,0,2,1735.7417161001358,1,2.0,2.4462388998363167,True,6,A,2023-09-01_09h14.05.678,exp3,2022.2.2,
,,,,,,,,,,,,,,,,,,,,,,,16,-2274,Valid,noise,0,2,1739.1816537000705,1,3.0,2.3454726000782102,True,6,A,2023-09-01_09h14.05.678,exp3,2022.2.2,
,,,,,,,,,,,,,,,,,,,,,,,17,-1158,Valid,signal,0,2,1743.1808750000782,0,3.0,3.179935999913141,True,6,A,2023-09-01_09h14.05.678,exp3,2022.2.2,
,,,,,,,,,,,,,,,,,,,,,,,18,-2274,Invalid,noise,0,2,1746.7010876000859,1,3.0,2.546134499832988,True,6,A,2023-09-01_09h14.05.678,exp3,2022.2.2,
,,,,,,,,,,,,,,,,,,,,,,,19,-2274,Valid,signal,0,2,1750.2858436000533,0,3.0,2.2460120001342148,True,6,A,2023-09-01_09h14.05.678,exp3,2022.2.2,
,,,,,,,,,,,,,,,,,,,,,,,20,-1158,Valid,noise,0,2,1753.6778335000854,1,3.0,2.412904900033027,True,6,A,2023-09-01_09h14.05.678,exp3,2022.2.2,
,,,,,,,,,,,,,,,,,,,,,,,21,-557,Valid,signal,0,1,1756.89312540018,1,3.0,2.529865400167182,True,6,A,2023-09-01_09h14.05.678,exp3,2022.2.2,
,,,,,,,,,,,,,,,,,,,,,,,22,-1158,Invalid,signal,0,1,1760.509332000045,1,4.0,2.3286270999815315,True,6,A,2023-09-01_09h14.05.678,exp3,2022.2.2,
,,,,,,,,,,,,,,,,,,,,,,,23,2274,Valid,signal,0,2,1764.077758600004,0,3.0,2.7633120000828058,True,6,A,2023-09-01_09h14.05.678,exp3,2022.2.2,
,,,,,,,,,,,,,,,,,,,,,,,24,-1158,Valid,signal,0,2,1767.7730001001619,0,3.0,2.5788008999079466,True,6,A,2023-09-01_09h14.05.678,exp3,2022.2.2,
,,,,,,,,,,,,,,,,,,,,,,,25,-1716,Valid,signal,0,2,1771.549276500009,0,3.0,2.8797846001107246,True,6,A,2023-09-01_09h14.05.678,exp3,2022.2.2,
,,,,,,,,,,,,,,,,,,,,,,,26,1716,Invalid,noise,0,2,1775.0855842002202,1,3.0,2.446073899976909,True,6,A,2023-09-01_09h14.05.678,exp3,2022.2.2,
,,,,,,,,,,,,,,,,,,,,,,,27,1716,Valid,noise,0,2,1778.5422494001687,1,3.0,2.2620860000606626,True,6,A,2023-09-01_09h14.05.678,exp3,2022.2.2,
,,,,,,,,,,,,,,,,,,,,,,,28,1158,Invalid,noise,0,2,1781.7581739001907,1,3.0,2.279230299871415,True,6,A,2023-09-01_09h14.05.678,exp3,2022.2.2,
,,,,,,,,,,,,,,,,,,,,,,,29,557,Invalid,noise,0,2,1785.1333010999952,1,3.0,2.279852099949494,True,6,A,2023-09-01_09h14.05.678,exp3,2022.2.2,
,,,,,,,,,,,,,,,,,,,,,,,30,-557,Valid,noise,0,2,1788.3980340000708,1,3.0,2.345887599978596,True,6,A,2023-09-01_09h14.05.678,exp3,2022.2.2,
,,,,,,,,,,,,,,,,,,,,,,,31,557,Valid,noise,0,2,1791.6131997001357,1,3.0,2.912708400050178,True,6,A,2023-09-01_09h14.05.678,exp3,2022.2.2,
,,,,,,,,,,,,,,,,,,,,,,,32,-1158,Valid,noise,0,2,1795.581365399994,1,3.0,2.229423600016162,True,6,A,2023-09-01_09h14.05.678,exp3,2022.2.2,
,,,,,,,,,,,,,,,,,,,,,,,33,1716,Valid,signal,0,1,1798.9253312000073,1,4.0,2.47903860011138,True,6,A,2023-09-01_09h14.05.678,exp3,2022.2.2,
,,,,,,,,,,,,,,,,,,,,,,,34,557,Valid,noise,0,2,1802.2857580001,1,4.0,2.279776200186461,True,6,A,2023-09-01_09h14.05.678,exp3,2022.2.2,
,,,,,,,,,,,,,,,,,,,,,,,35,-1158,Invalid,noise,0,2,1805.9815418000799,1,4.0,2.546359800035134,True,6,A,2023-09-01_09h14.05.678,exp3,2022.2.2,
,,,,,,,,,,,,,,,,,,,,,,,36,2274,Valid,noise,0,2,1809.1337314001285,1,3.0,2.17943080002442,True,6,A,2023-09-01_09h14.05.678,exp3,2022.2.2,
,,,,,,,,,,,,,,,,,,,,,,,37,1716,Valid,signal,0,2,1812.3659339000005,0,3.0,2.2460654999595135,True,6,A,2023-09-01_09h14.05.678,exp3,2022.2.2,
,,,,,,,,,,,,,,,,,,,,,,,38,-1716,Valid,noise,0,2,1815.5978418001905,1,3.0,2.1624171999283135,True,6,A,2023-09-01_09h14.05.678,exp3,2022.2.2,
,,,,,,,,,,,,,,,,,,,,,,,39,-2274,Invalid,signal,0,2,1818.7331005001906,0,3.0,2.062341900076717,True,6,A,2023-09-01_09h14.05.678,exp3,2022.2.2,
,,,,,,,,,,,,,,,,,,,,,,,40,557,Valid,signal,0,1,1821.805014200043,1,3.0,2.2294509999919683,True,6,A,2023-09-01_09h14.05.678,exp3,2022.2.2,
,,,,,,,,,,,,,,,,,,,,,,,41,-2274,Valid,noise,0,2,1824.9899508000817,1,3.0,2.5297150001861155,True,6,A,2023-09-01_09h14.05.678,exp3,2022.2.2,
,,,,,,,,,,,,,,,,,,,,,,,42,-1158,Valid,signal,0,1,1828.6049912001472,1,3.0,2.445540900109336,True,6,A,2023-09-01_09h14.05.678,exp3,2022.2.2,
,,,,,,,,,,,,,,,,,,,,,,,43,2274,Valid,noise,0,2,1831.9821964001749,1,3.0,2.0127312999684364,True,6,A,2023-09-01_09h14.05.678,exp3,2022.2.2,
,,,,,,,,,,,,,,,,,,,,,,,44,-557,Valid,noise,0,2,1835.0858778001275,1,3.0,2.1623720000497997,True,6,A,2023-09-01_09h14.05.678,exp3,2022.2.2,
,,,,,,,,,,,,,,,,,,,,,,,45,-1716,Invalid,noise,0,2,1838.2055175001733,1,3.0,2.195995199959725,True,6,A,2023-09-01_09h14.05.678,exp3,2022.2.2,
,,,,,,,,,,,,,,,,,,,,,,,46,-557,Valid,noise,0,2,1841.3569077001885,1,3.0,2.363110499922186,True,6,A,2023-09-01_09h14.05.678,exp3,2022.2.2,
,,,,,,,,,,,,,,,,,,,,,,,47,-557,Invalid,noise,0,1,1844.9741489000153,0,2.0,3.6132185999304056,True,6,A,2023-09-01_09h14.05.678,exp3,2022.2.2,
,,,,,,,,,,,,,,,,,,,,,,,48,-557,Invalid,noise,0,2,1849.5655261001084,1,4.0,2.6456063999794424,True,6,A,2023-09-01_09h14.05.678,exp3,2022.2.2,
,,,,,,,,,,,,,,,,,,,,,,,49,-2274,Valid,signal,0,2,1853.758109900169,0,4.0,3.1804406999144703,True,6,A,2023-09-01_09h14.05.678,exp3,2022.2.2,
,,,,,,,,,,,,,,,,,,,,,,,50,1158,Invalid,signal,0,2,1857.4374081999995,0,3.0,2.3788397999014705,True,6,A,2023-09-01_09h14.05.678,exp3,2022.2.2,
,,,,,,,,,,,,,,,,,,,,,,,51,1716,Valid,signal,0,2,1860.3809330000076,0,3.0,1.8954894000198692,True,6,A,2023-09-01_09h14.05.678,exp3,2022.2.2,
,,,,,,,,,,,,,,,,,,,,,,,52,-2274,Invalid,noise,0,2,1863.4211229002103,1,3.0,2.063184600090608,True,6,A,2023-09-01_09h14.05.678,exp3,2022.2.2,
,,,,,,,,,,,,,,,,,,,,,,,53,1716,Valid,noise,0,2,1866.3499871001113,1,3.0,1.8785595998633653,True,6,A,2023-09-01_09h14.05.678,exp3,2022.2.2,
,,,,,,,,,,,,,,,,,,,,,,,54,1158,Valid,signal,0,2,1869.197582400171,0,3.0,1.812384899938479,True,6,A,2023-09-01_09h14.05.678,exp3,2022.2.2,
,,,,,,,,,,,,,,,,,,,,,,,55,2274,Valid,signal,0,2,1872.0938144000247,0,3.0,1.9460876998491585,True,6,A,2023-09-01_09h14.05.678,exp3,2022.2.2,
,,,,,,,,,,,,,,,,,,,,,,,56,-557,Invalid,signal,0,2,1874.9259809001815,0,3.0,1.7958995001390576,True,6,A,2023-09-01_09h14.05.678,exp3,2022.2.2,
,,,,,,,,,,,,,,,,,,,,,,,57,557,Valid,noise,0,2,1877.7892058000434,1,3.0,1.8121709001716226,True,6,A,2023-09-01_09h14.05.678,exp3,2022.2.2,
,,,,,,,,,,,,,,,,,,,,,,,58,1158,Valid,noise,0,2,1880.6371035000775,1,3.0,1.8960610998328775,True,6,A,2023-09-01_09h14.05.678,exp3,2022.2.2,
,,,,,,,,,,,,,,,,,,,,,,,59,2274,Valid,noise,0,2,1883.5169496000744,1,3.0,1.895419199950993,True,6,A,2023-09-01_09h14.05.678,exp3,2022.2.2,
,,,,,,,,,,,,,,,,,,,,,,,60,1716,Valid,noise,0,2,1886.6220663001295,1,3.0,2.1457050000317395,True,6,A,2023-09-01_09h14.05.678,exp3,2022.2.2,
,,,,,,,,,,,,,,,,,,,,,,,61,-1716,Valid,signal,0,2,1889.8218390000984,0,3.0,2.1791407999116927,True,6,A,2023-09-01_09h14.05.678,exp3,2022.2.2,
,,,,,,,,,,,,,,,,,,,,,,,62,-1158,Valid,signal,0,1,1893.0378386001103,1,3.0,2.6632232000119984,True,6,A,2023-09-01_09h14.05.678,exp3,2022.2.2,
,,,,,,,,,,,,,,,,,,,,,,,63,2274,Valid,signal,0,2,1897.0541292000562,0,2.0,2.629083000123501,True,6,A,2023-09-01_09h14.05.678,exp3,2022.2.2,
,,,,,,,,,,,,,,,,,,,,,,,64,-557,Valid,signal,0,1,1900.2862536001485,1,4.0,2.3126022999640554,True,6,A,2023-09-01_09h14.05.678,exp3,2022.2.2,
,,,,,,,,,,,,,,,,,,,,,,,65,-557,Valid,noise,0,1,1904.2053172001615,0,2.0,3.1300806999206543,True,6,A,2023-09-01_09h14.05.678,exp3,2022.2.2,
,,,,,,,,,,,,,,,,,,,,,,,66,1716,Valid,noise,0,2,1907.6771481002215,1,3.0,2.1789432000368834,True,6,A,2023-09-01_09h14.05.678,exp3,2022.2.2,
,,,,,,,,,,,,,,,,,,,,,,,67,557,Valid,signal,0,1,1910.9728877001908,1,4.0,2.3790568001568317,True,6,A,2023-09-01_09h14.05.678,exp3,2022.2.2,
,,,,,,,,,,,,,,,,,,,,,,,68,-1158,Invalid,signal,0,1,1914.4130284001585,1,4.0,2.379598499974236,True,6,A,2023-09-01_09h14.05.678,exp3,2022.2.2,
,,,,,,,,,,,,,,,,,,,,,,,69,2274,Valid,signal,0,2,1917.773542900104,0,3.0,2.228839300107211,True,6,A,2023-09-01_09h14.05.678,exp3,2022.2.2,
,,,,,,,,,,,,,,,,,,,,,,,70,1158,Valid,signal,0,1,1921.117580300197,1,2.0,2.679626400116831,True,6,A,2023-09-01_09h14.05.678,exp3,2022.2.2,
,,,,,,,,,,,,,,,,,,,,,,,71,1716,Valid,signal,0,1,1924.6536338001024,1,2.0,2.313071500044316,True,6,A,2023-09-01_09h14.05.678,exp3,2022.2.2,
,,,,,,,,,,,,,,,,,,,,,,,72,1716,Valid,noise,0,2,1928.3657229000237,1,3.0,2.895443399902433,True,6,A,2023-09-01_09h14.05.678,exp3,2022.2.2,
,,,,,,,,,,,,,,,,,,,,,,,73,557,Valid,signal,0,1,1931.8372912001796,1,3.0,2.1960980999283493,True,6,A,2023-09-01_09h14.05.678,exp3,2022.2.2,
,,,,,,,,,,,,,,,,,,,,,,,74,2274,Valid,noise,0,2,1935.038037000224,1,2.0,2.9631525999866426,True,6,A,2023-09-01_09h14.05.678,exp3,2022.2.2,
,,,,,,,,,,,,,,,,,,,,,,,75,1158,Invalid,signal,0,1,1939.022249700036,1,4.0,2.279466399922967,True,6,A,2023-09-01_09h14.05.678,exp3,2022.2.2,
,,,,,,,,,,,,,,,,,,,,,,,76,1716,Valid,signal,0,1,1942.3008936000988,1,3.0,2.295949500054121,True,6,A,2023-09-01_09h14.05.678,exp3,2022.2.2,
,,,,,,,,,,,,,,,,,,,,,,,77,-557,Valid,signal,0,1,1945.517522700131,1,3.0,2.162361799972132,True,6,A,2023-09-01_09h14.05.678,exp3,2022.2.2,
,,,,,,,,,,,,,,,,,,,,,,,78,1158,Invalid,noise,0,2,1948.989999400219,1,2.0,2.762946099974215,True,6,A,2023-09-01_09h14.05.678,exp3,2022.2.2,
,,,,,,,,,,,,,,,,,,,,,,,79,1716,Valid,signal,0,1,1952.5578580000438,1,3.0,2.1458655998576432,True,6,A,2023-09-01_09h14.05.678,exp3,2022.2.2,
,,,,,,,,,,,,,,,,,,,,,,,80,-557,Valid,noise,0,1,1956.7500421002042,0,1.0,3.529681900050491,True,6,A,2023-09-01_09h14.05.678,exp3,2022.2.2,
,,,,,,,,,,,,,,,,,,,,,,,81,557,Valid,signal,0,1,1960.189128200058,1,4.0,2.2295274001080543,True,6,A,2023-09-01_09h14.05.678,exp3,2022.2.2,
,,,,,,,,,,,,,,,,,,,,,,,82,557,Valid,noise,0,2,1963.5982193001546,1,3.0,2.5460900000762194,True,6,A,2023-09-01_09h14.05.678,exp3,2022.2.2,
,,,,,,,,,,,,,,,,,,,,,,,83,-557,Valid,signal,0,1,1966.9891770000104,1,4.0,2.2626887999940664,True,6,A,2023-09-01_09h14.05.678,exp3,2022.2.2,
,,,,,,,,,,,,,,,,,,,,,,,84,-1158,Valid,noise,0,2,1970.2696734000929,1,1.0,2.8293437000829726,True,6,A,2023-09-01_09h14.05.678,exp3,2022.2.2,
,,,,,,,,,,,,,,,,,,,,,,,85,2274,Invalid,noise,0,2,1974.2688461001962,1,1.0,2.8964176999870688,True,6,A,2023-09-01_09h14.05.678,exp3,2022.2.2,
,,,,,,,,,,,,,,,,,,,,,,,86,-2274,Valid,signal,0,2,1978.1254124001134,0,3.0,2.9464511999394745,True,6,A,2023-09-01_09h14.05.678,exp3,2022.2.2,
,,,,,,,,,,,,,,,,,,,,,,,87,1716,Invalid,noise,0,1,1982.6857747000176,0,2.0,3.4967874998692423,True,6,A,2023-09-01_09h14.05.678,exp3,2022.2.2,
,,,,,,,,,,,,,,,,,,,,,,,88,1158,Valid,noise,0,1,1987.2937518002,0,1.0,3.463036899920553,True,6,A,2023-09-01_09h14.05.678,exp3,2022.2.2,
,,,,,,,,,,,,,,,,,,,,,,,89,-1158,Valid,signal,0,2,1991.0220850000624,0,3.0,2.5629761999007314,True,6,A,2023-09-01_09h14.05.678,exp3,2022.2.2,
,,,,,,,,,,,,,,,,,,,,,,,90,557,Valid,signal,0,1,1994.621578300139,1,4.0,2.3957756999880075,True,6,A,2023-09-01_09h14.05.678,exp3,2022.2.2,
,,,,,,,,,,,,,,,,,,,,,,,91,-1716,Valid,noise,0,2,1998.1091209000442,1,3.0,2.4296889000106603,True,6,A,2023-09-01_09h14.05.678,exp3,2022.2.2,
,,,,,,,,,,,,,,,,,,,,,,,92,2274,Valid,signal,0,2,2001.3410954000428,0,3.0,2.4627426001243293,True,6,A,2023-09-01_09h14.05.678,exp3,2022.2.2,
,,,,,,,,,,,,,,,,,,,,,,,93,-1158,Valid,noise,0,2,2004.765769300051,1,3.0,2.129823099821806,True,6,A,2023-09-01_09h14.05.678,exp3,2022.2.2,
,,,,,,,,,,,,,,,,,,,,,,,94,-1716,Valid,signal,0,2,2008.4616039001849,0,3.0,2.762140699895099,True,6,A,2023-09-01_09h14.05.678,exp3,2022.2.2,
,,,,,,,,,,,,,,,,,,,,,,,95,-1716,Valid,noise,0,2,2011.6617826002184,1,3.0,2.179255000082776,True,6,A,2023-09-01_09h14.05.678,exp3,2022.2.2,
,,,,,,,,,,,,,,,,,,,,,,,96,1158,Valid,noise,0,2,2014.7981279001106,1,3.0,2.0957835998851806,True,6,A,2023-09-01_09h14.05.678,exp3,2022.2.2,
,,,,,,,,,,,,,,,,,,,,,,,97,-1158,Valid,signal,0,2,2018.6061874001753,0,3.0,3.029530700063333,True,6,A,2023-09-01_09h14.05.678,exp3,2022.2.2,
,,,,,,,,,,,,,,,,,,,,,,,98,-1716,Valid,noise,0,2,2022.349424000131,1,3.0,2.579547100001946,True,6,A,2023-09-01_09h14.05.678,exp3,2022.2.2,
,,,,,,,,,,,,,,,,,,,,,,,99,-1716,Valid,signal,0,2,2025.8693522000685,0,3.0,2.4294364999514073,True,6,A,2023-09-01_09h14.05.678,exp3,2022.2.2,
,,,,,,,,,,,,,,,,,,,,,,,100,2274,Valid,noise,0,2,2029.1974486000836,1,3.0,2.3287945000920445,True,6,A,2023-09-01_09h14.05.678,exp3,2022.2.2,
,,,,,,,,,,,,,,,,,,,,,,,101,557,Valid,noise,0,2,2032.5417830001097,1,3.0,2.679752300027758,True,6,A,2023-09-01_09h14.05.678,exp3,2022.2.2,
,,,,,,,,,,,,,,,,,,,,,,,102,-1158,Valid,noise,0,2,2038.4288804000244,1,1.0,4.596952099818736,True,6,A,2023-09-01_09h14.05.678,exp3,2022.2.2,
,,,,,,,,,,,,,,,,,,,,,,,103,-2274,Valid,noise,0,2,2047.118002400035,1,1.0,8.26502769999206,True,6,A,2023-09-01_09h14.05.678,exp3,2022.2.2,
,,,,,,,,,,,,,,,,,,,,,,,104,-2274,Valid,signal,0,2,2050.669286800083,0,1.0,2.4792424000333995,True,6,A,2023-09-01_09h14.05.678,exp3,2022.2.2,
,,,,,,,,,,,,,,,,,,,,,,,105,-1716,Valid,signal,0,1,2054.845605300041,1,4.0,3.130208699963987,True,6,A,2023-09-01_09h14.05.678,exp3,2022.2.2,
,,,,,,,,,,,,,,,,,,,,,,,106,-2274,Valid,noise,0,2,2058.909585400019,1,3.0,3.329385899938643,True,6,A,2023-09-01_09h14.05.678,exp3,2022.2.2,
,,,,,,,,,,,,,,,,,,,,,,,107,-1158,Invalid,noise,0,2,2063.0698997001164,1,3.0,2.779143499908969,True,6,A,2023-09-01_09h14.05.678,exp3,2022.2.2,
,,,,,,,,,,,,,,,,,,,,,,,108,-1158,Valid,noise,0,1,2067.020896400092,0,1.0,4.046512299915776,True,6,A,2023-09-01_09h14.05.678,exp3,2022.2.2,
,,,,,,,,,,,,,,,,,,,,,,,109,2274,Invalid,noise,0,2,2071.9658324001357,1,3.0,2.6127355999778956,True,6,A,2023-09-01_09h14.05.678,exp3,2022.2.2,
,,,,,,,,,,,,,,,,,,,,,,,110,1716,Valid,noise,0,2,2075.421809000196,1,3.0,2.7965079999994487,True,6,A,2023-09-01_09h14.05.678,exp3,2022.2.2,
,,,,,,,,,,,,,,,,,,,,,,,111,-1158,Valid,noise,0,2,2079.437213400146,1,3.0,2.595563600072637,True,6,A,2023-09-01_09h14.05.678,exp3,2022.2.2,
,,,,,,,,,,,,,,,,,,,,,,,112,557,Invalid,signal,0,2,2083.1180118001066,0,3.0,3.2960540000349283,True,6,A,2023-09-01_09h14.05.678,exp3,2022.2.2,
,,,,,,,,,,,,,,,,,,,,,,,113,-2274,Valid,noise,0,2,2087.9336552000605,1,2.0,3.8468438000418246,True,6,A,2023-09-01_09h14.05.678,exp3,2022.2.2,
,,,,,,,,,,,,,,,,,,,,,,,114,1158,Valid,noise,0,2,2093.244798900094,1,3.0,3.6463126000016928,True,6,A,2023-09-01_09h14.05.678,exp3,2022.2.2,
,,,,,,,,,,,,,,,,,,,,,,,115,1158,Valid,signal,0,2,2098.4300634001847,0,3.0,4.296897200169042,True,6,A,2023-09-01_09h14.05.678,exp3,2022.2.2,
,,,,,,,,,,,,,,,,,,,,,,,116,557,Invalid,signal,0,2,2101.9977739001624,0,3.0,2.4126973999664187,True,6,A,2023-09-01_09h14.05.678,exp3,2022.2.2,
,,,,,,,,,,,,,,,,,,,,,,,117,557,Valid,noise,0,2,2105.2447300001513,1,3.0,2.179574300069362,True,6,A,2023-09-01_09h14.05.678,exp3,2022.2.2,
,,,,,,,,,,,,,,,,,,,,,,,118,1158,Valid,signal,0,2,2108.4453191000503,0,3.0,2.245753400027752,True,6,A,2023-09-01_09h14.05.678,exp3,2022.2.2,
,,,,,,,,,,,,,,,,,,,,,,,119,557,Valid,noise,0,2,2111.7734579001553,1,3.0,2.429530099965632,True,6,A,2023-09-01_09h14.05.678,exp3,2022.2.2,
,,,,,,,,,,,,,,,,,,,,,,,120,1158,Valid,signal,0,2,2115.1499191001058,0,3.0,2.229084099875763,True,6,A,2023-09-01_09h14.05.678,exp3,2022.2.2,
,,,,,,,,,,,,,,,,,,,,,,,121,-1716,Invalid,signal,0,2,2118.8298469001893,0,3.0,2.679632799932733,True,6,A,2023-09-01_09h14.05.678,exp3,2022.2.2,
,,,,,,,,,,,,,,,,,,,,,,,122,-2274,Invalid,signal,0,2,2122.093296700157,0,3.0,2.3293146998621523,True,6,A,2023-09-01_09h14.05.678,exp3,2022.2.2,
,,,,,,,,,,,,,,,,,,,,,,,123,557,Valid,noise,0,2,2125.3735601000953,1,3.0,2.146279999986291,True,6,A,2023-09-01_09h14.05.678,exp3,2022.2.2,
,,,,,,,,,,,,,,,,,,,,,,,124,1716,Valid,noise,0,2,2128.7328343000263,1,3.0,2.4294884998816997,True,6,A,2023-09-01_09h14.05.678,exp3,2022.2.2,
,,,,,,,,,,,,,,,,,,,,,,,125,-1716,Valid,noise,0,2,2135.6609399002045,1,3.0,6.063657299848273,True,6,A,2023-09-01_09h14.05.678,exp3,2022.2.2,
,,,,,,,,,,,,,,,,,,,,,,,126,1716,Valid,signal,0,1,2139.3249807001557,1,4.0,2.5963813001289964,True,6,A,2023-09-01_09h14.05.678,exp3,2022.2.2,
,,,,,,,,,,,,,,,,,,,,,,,127,-557,Valid,noise,0,2,2142.813501600176,1,3.0,2.412614000029862,True,6,A,2023-09-01_09h14.05.678,exp3,2022.2.2,
,,,,,,,,,,,,,,,,,,,,,,,128,-2274,Valid,signal,0,2,2146.028774500126,0,3.0,2.3464783001691103,True,6,A,2023-09-01_09h14.05.678,exp3,2022.2.2,
,,,,,,,,,,,,,,,,,,,,,,,129,-557,Valid,noise,0,2,2149.389318900183,1,3.0,2.2623833999969065,True,6,A,2023-09-01_09h14.05.678,exp3,2022.2.2,
,,,,,,,,,,,,,,,,,,,,,,,130,-1158,Valid,noise,0,2,2152.750093600014,1,3.0,2.2953723000828177,True,6,A,2023-09-01_09h14.05.678,exp3,2022.2.2,
,,,,,,,,,,,,,,,,,,,,,,,131,-557,Valid,signal,0,1,2156.1252669000532,1,4.0,2.546755700139329,True,6,A,2023-09-01_09h14.05.678,exp3,2022.2.2,
,,,,,,,,,,,,,,,,,,,,,,,132,1158,Valid,noise,0,2,2159.6449204999954,1,3.0,2.2953528999350965,True,6,A,2023-09-01_09h14.05.678,exp3,2022.2.2,
,,,,,,,,,,,,,,,,,,,,,,,133,1716,Valid,noise,0,1,2166.556847400032,0,1.0,7.231086099985987,True,6,A,2023-09-01_09h14.05.678,exp3,2022.2.2,
,,,,,,,,,,,,,,,,,,,,,,,134,-1716,Valid,signal,0,1,2171.134052900132,1,4.0,2.462592300027609,True,6,A,2023-09-01_09h14.05.678,exp3,2022.2.2,
,,,,,,,,,,,,,,,,,,,,,,,135,557,Valid,signal,0,1,2174.5258454000577,1,4.0,2.129478800110519,True,6,A,2023-09-01_09h14.05.678,exp3,2022.2.2,
,,,,,,,,,,,,,,,,,,,,,,,136,2274,Valid,noise,0,2,2177.82148280018,1,3.0,2.4633428999222815,True,6,A,2023-09-01_09h14.05.678,exp3,2022.2.2,
,,,,,,,,,,,,,,,,,,,,,,,137,2274,Valid,signal,0,1,2181.405806099996,1,3.0,2.4621946001425385,True,6,A,2023-09-01_09h14.05.678,exp3,2022.2.2,
,,,,,,,,,,,,,,,,,,,,,,,138,-1716,Valid,noise,0,2,2194.429328000173,1,1.0,12.19922069995664,True,6,A,2023-09-01_09h14.05.678,exp3,2022.2.2,
,,,,,,,,,,,,,,,,,,,,,,,139,-557,Valid,signal,0,2,2198.045246800175,0,3.0,3.0135612001176924,True,6,A,2023-09-01_09h14.05.678,exp3,2022.2.2,
,,,,,,,,,,,,,,,,,,,,,,,140,557,Valid,signal,0,1,2202.5738103000913,1,3.0,3.095473000081256,True,6,A,2023-09-01_09h14.05.678,exp3,2022.2.2,
,,,,,,,,,,,,,,,,,,,,,,,141,1158,Valid,signal,0,1,2206.0454925000668,1,3.0,2.4467120999470353,True,6,A,2023-09-01_09h14.05.678,exp3,2022.2.2,
,,,,,,,,,,,,,,,,,,,,,,,142,-557,Valid,noise,0,2,2209.6936849001795,1,3.0,2.7625828001182526,True,6,A,2023-09-01_09h14.05.678,exp3,2022.2.2,
,,,,,,,,,,,,,,,,,,,,,,,143,-1158,Valid,signal,0,2,2213.517655500211,0,3.0,2.612329699797556,True,6,A,2023-09-01_09h14.05.678,exp3,2022.2.2,
,,,,,,,,,,,,,,,,,,,,,,,144,-557,Valid,signal,0,1,2217.3095007000957,1,4.0,4.23076119995676,True,6,A,2023-09-01_09h14.05.678,exp3,2022.2.2,
,,,,,,,,,,,,,,,,,,,,,,,145,-1716,Valid,signal,0,1,2223.069036500063,1,4.0,3.512540699914098,True,6,A,2023-09-01_09h14.05.678,exp3,2022.2.2,
,,,,,,,,,,,,,,,,,,,,,,,146,2274,Valid,signal,0,2,2226.4130596001633,0,3.0,2.162361399969086,True,6,A,2023-09-01_09h14.05.678,exp3,2022.2.2,
,,,,,,,,,,,,,,,,,,,,,,,147,1716,Valid,signal,0,1,2229.757211800199,1,3.0,2.2470555999316275,True,6,A,2023-09-01_09h14.05.678,exp3,2022.2.2,
,,,,,,,,,,,,,,,,,,,,,,,148,-2274,Valid,noise,0,2,2232.957956300117,1,3.0,2.278957099886611,True,6,A,2023-09-01_09h14.05.678,exp3,2022.2.2,
,,,,,,,,,,,,,,,,,,,,,,,149,1158,Valid,noise,0,2,2236.4933728000615,1,2.0,2.5620201001875103,True,6,A,2023-09-01_09h14.05.678,exp3,2022.2.2,
,,,,,,,,,,,,,,,,,,,,,,,150,-557,Valid,noise,0,2,2239.9168345001526,1,2.0,2.379612199962139,True,6,A,2023-09-01_09h14.05.678,exp3,2022.2.2,
,,,,,,,,,,,,,,,,,,,,,,,151,1158,Valid,noise,0,2,2243.325633500004,1,2.0,2.379859499866143,True,6,A,2023-09-01_09h14.05.678,exp3,2022.2.2,
,,,,,,,,,,,,,,,,,,,,,,,152,-1158,Valid,noise,0,2,2246.525146700209,1,2.0,2.12873989995569,True,6,A,2023-09-01_09h14.05.678,exp3,2022.2.2,
,,,,,,,,,,,,,,,,,,,,,,,153,-2274,Valid,signal,0,2,2249.6300880000927,0,2.0,2.0628082999028265,True,6,A,2023-09-01_09h14.05.678,exp3,2022.2.2,
,,,,,,,,,,,,,,,,,,,,,,,154,-557,Valid,signal,0,2,2252.73301480012,0,3.0,2.078876500017941,True,6,A,2023-09-01_09h14.05.678,exp3,2022.2.2,
,,,,,,,,,,,,,,,,,,,,,,,155,557,Valid,signal,0,1,2256.8608646001667,1,3.0,3.5305039000231773,True,6,A,2023-09-01_09h14.05.678,exp3,2022.2.2,
,,,,,,,,,,,,,,,,,,,,,,,156,-1158,Valid,signal,0,2,2260.4129062001593,0,3.0,2.6627690999303013,True,6,A,2023-09-01_09h14.05.678,exp3,2022.2.2,
,,,,,,,,,,,,,,,,,,,,,,,157,1158,Valid,signal,0,2,2264.605970100034,0,2.0,3.029151799855754,True,6,A,2023-09-01_09h14.05.678,exp3,2022.2.2,
,,,,,,,,,,,,,,,,,,,,,,,158,2274,Valid,signal,0,2,2271.181969200028,0,1.0,5.480443599866703,True,6,A,2023-09-01_09h14.05.678,exp3,2022.2.2,
,,,,,,,,,,,,,,,,,,,,,,,159,-1716,Valid,noise,0,2,2274.973248500144,1,3.0,2.6793484000954777,True,6,A,2023-09-01_09h14.05.678,exp3,2022.2.2,
,,,,,,,,,,,,,,,,,,,,,,,160,-2274,Valid,signal,0,2,2278.2689301001374,0,3.0,2.0625573999714106,True,6,A,2023-09-01_09h14.05.678,exp3,2022.2.2,
,,,,,,,,,,,,,,,,,,,,,,,161,1158,Valid,signal,0,2,2285.9498299001716,0,1.0,7.031271799933165,True,6,A,2023-09-01_09h14.05.678,exp3,2022.2.2,
,,,,,,,,,,,,,,,,,,,,,,,162,557,Valid,signal,0,1,2290.6373622000683,1,2.0,3.646706599975005,True,6,A,2023-09-01_09h14.05.678,exp3,2022.2.2,
,,,,,,,,,,,,,,,,,,,,,,,163,1158,Valid,noise,0,2,2294.268781400053,1,3.0,2.995965100126341,True,6,A,2023-09-01_09h14.05.678,exp3,2022.2.2,
,,,,,,,,,,,,,,,,,,,,,,,164,2274,Invalid,signal,0,2,2298.573115900159,0,2.0,3.2964245001785457,True,6,A,2023-09-01_09h14.05.678,exp3,2022.2.2,
,,,,,,,,,,,,,,,,,,,,,,,165,1716,Invalid,signal,0,2,2302.4446914000437,0,3.0,2.579711499856785,True,6,A,2023-09-01_09h14.05.678,exp3,2022.2.2,
,,,,,,,,,,,,,,,,,,,,,,,166,1716,Valid,noise,0,2,2305.8539649001323,1,3.0,2.0794273000210524,True,6,A,2023-09-01_09h14.05.678,exp3,2022.2.2,
,,,,,,,,,,,,,,,,,,,,,,,167,-1716,Valid,signal,0,1,2309.613685000222,1,3.0,3.179709499934688,True,6,A,2023-09-01_09h14.05.678,exp3,2022.2.2,
,,,,,,,,,,,,,,,,,,,,,,,168,1158,Valid,noise,0,2,2313.196610300103,1,3.0,2.379596099955961,True,6,A,2023-09-01_09h14.05.678,exp3,2022.2.2,
,,,,,,,,,,,,,,,,,,,,,,,169,2274,Valid,noise,0,2,2316.8297099000774,1,1.0,5.0306835998781025,True,6,A,2023-09-01_09h14.05.678,exp3,2022.2.2,
,,,,,,,,,,,,,,,,,,,,,,,170,557,Valid,noise,0,2,2322.652950100135,1,3.0,2.2125309999100864,True,6,A,2023-09-01_09h14.05.678,exp3,2022.2.2,
,,,,,,,,,,,,,,,,,,,,,,,171,-1716,Valid,signal,0,2,2325.885855600005,0,3.0,2.179388399934396,True,6,A,2023-09-01_09h14.05.678,exp3,2022.2.2,
,,,,,,,,,,,,,,,,,,,,,,,172,-1716,Valid,noise,0,2,2329.117315400159,1,3.0,2.2453296999447048,True,6,A,2023-09-01_09h14.05.678,exp3,2022.2.2,
,,,,,,,,,,,,,,,,,,,,,,,173,1158,Valid,signal,0,2,2332.108740600059,0,3.0,1.9961423000786453,True,6,A,2023-09-01_09h14.05.678,exp3,2022.2.2,
,,,,,,,,,,,,,,,,,,,,,,,174,557,Invalid,noise,0,2,2335.245838600211,1,3.0,2.0125370000023395,True,6,A,2023-09-01_09h14.05.678,exp3,2022.2.2,
,,,,,,,,,,,,,,,,,,,,,,,175,-2274,Valid,signal,0,2,2338.397139100125,0,3.0,2.1794235000852495,True,6,A,2023-09-01_09h14.05.678,exp3,2022.2.2,
,,,,,,,,,,,,,,,,,,,,,,,176,2274,Invalid,signal,0,2,2341.229257500032,0,3.0,1.7789658000692725,True,6,A,2023-09-01_09h14.05.678,exp3,2022.2.2,
,,,,,,,,,,,,,,,,,,,,,,,2,1716,Valid,signal,0,2,2481.7734206002206,0,3.0,4.754554099868983,True,6,A,2023-09-01_09h14.05.678,exp3,2022.2.2,
,,,,,,,,,,,,,,,,,,,,,,,4,2274,Valid,signal,0,2,2485.309889000142,0,3.0,2.1456444000359625,True,6,A,2023-09-01_09h14.05.678,exp3,2022.2.2,
,,,,,,,,,,,,,,,,,,,,,,,6,-2274,Invalid,signal,0,2,2488.5738318001386,0,3.0,2.279389299917966,True,6,A,2023-09-01_09h14.05.678,exp3,2022.2.2,
,,,,,,,,,,,,,,,,,,,,,,,8,2274,Valid,noise,0,2,2491.6289991000667,1,3.0,1.9626981001347303,True,6,A,2023-09-01_09h14.05.678,exp3,2022.2.2,
,,,,,,,,,,,,,,,,,,,,,,,10,-1716,Valid,signal,0,2,2495.9489622002,0,3.0,3.380085199838504,True,6,A,2023-09-01_09h14.05.678,exp3,2022.2.2,
,,,,,,,,,,,,,,,,,,,,,,,12,2274,Valid,signal,0,2,2499.0209684001748,0,3.0,2.161779999965802,True,6,A,2023-09-01_09h14.05.678,exp3,2022.2.2,
,,,,,,,,,,,,,,,,,,,,,,,14,1158,Valid,noise,0,2,2502.013672800036,1,3.0,1.7962887999601662,True,6,A,2023-09-01_09h14.05.678,exp3,2022.2.2,
,,,,,,,,,,,,,,,,,,,,,,,16,-2274,Valid,noise,0,2,2505.1009449001867,1,3.0,2.24560229992494,True,6,A,2023-09-01_09h14.05.678,exp3,2022.2.2,
,,,,,,,,,,,,,,,,,,,,,,,18,1716,Valid,noise,0,2,2508.1417142001446,1,3.0,2.0292952999006957,True,6,A,2023-09-01_09h14.05.678,exp3,2022.2.2,
,,,,,,,,,,,,,,,,,,,,,,,20,557,Valid,noise,0,2,2511.1329803001136,1,3.0,1.8624430999625474,True,6,A,2023-09-01_09h14.05.678,exp3,2022.2.2,
,,,,,,,,,,,,,,,,,,,,,,,22,557,Valid,noise,0,2,2513.94916180009,1,3.0,1.8126914000604302,True,6,A,2023-09-01_09h14.05.678,exp3,2022.2.2,
,,,,,,,,,,,,,,,,,,,,,,,24,1716,Valid,noise,0,2,2516.9096437001135,1,3.0,2.1126763001084328,True,6,A,2023-09-01_09h14.05.678,exp3,2022.2.2,
,,,,,,,,,,,,,,,,,,,,,,,26,1158,Valid,signal,0,2,2519.965379500063,0,3.0,1.8625072001013905,True,6,A,2023-09-01_09h14.05.678,exp3,2022.2.2,
,,,,,,,,,,,,,,,,,,,,,,,28,-557,Valid,noise,0,2,2522.7969761001877,1,3.0,1.8793987999670208,True,6,A,2023-09-01_09h14.05.678,exp3,2022.2.2,
,,,,,,,,,,,,,,,,,,,,,,,30,-1716,Valid,noise,0,2,2525.6775336000137,1,3.0,1.895621000090614,True,6,A,2023-09-01_09h14.05.678,exp3,2022.2.2,
,,,,,,,,,,,,,,,,,,,,,,,32,1716,Valid,signal,0,2,2528.780719100032,0,3.0,2.012523900019005,True,6,A,2023-09-01_09h14.05.678,exp3,2022.2.2,
,,,,,,,,,,,,,,,,,,,,,,,34,2274,Invalid,signal,0,2,2531.8698994000442,0,3.0,2.0955771999433637,True,6,A,2023-09-01_09h14.05.678,exp3,2022.2.2,
,,,,,,,,,,,,,,,,,,,,,,,36,-1158,Valid,signal,0,2,2534.8928294000216,0,3.0,2.0298615000210702,True,6,A,2023-09-01_09h14.05.678,exp3,2022.2.2,
,,,,,,,,,,,,,,,,,,,,,,,38,-1158,Valid,noise,0,2,2537.724623200018,1,3.0,1.9454504998866469,True,6,A,2023-09-01_09h14.05.678,exp3,2022.2.2,
,,,,,,,,,,,,,,,,,,,,,,,40,1716,Valid,signal,0,2,2540.73384300014,0,3.0,1.9287676000967622,True,6,A,2023-09-01_09h14.05.678,exp3,2022.2.2,
,,,,,,,,,,,,,,,,,,,,,,,42,1716,Invalid,noise,0,2,2543.773496300215,1,3.0,2.1458076999988407,True,6,A,2023-09-01_09h14.05.678,exp3,2022.2.2,
,,,,,,,,,,,,,,,,,,,,,,,44,-2274,Valid,signal,0,2,2546.8137906000484,0,3.0,1.846070900093764,True,6,A,2023-09-01_09h14.05.678,exp3,2022.2.2,
,,,,,,,,,,,,,,,,,,,,,,,46,2274,Valid,noise,0,2,2549.5974161000922,1,3.0,1.795561800012365,True,6,A,2023-09-01_09h14.05.678,exp3,2022.2.2,
,,,,,,,,,,,,,,,,,,,,,,,48,1158,Valid,noise,0,2,2552.525170000037,1,3.0,1.9798951998818666,True,6,A,2023-09-01_09h14.05.678,exp3,2022.2.2,
,,,,,,,,,,,,,,,,,,,,,,,50,-557,Valid,signal,0,2,2555.6291522001848,0,3.0,2.0121836999896914,True,6,A,2023-09-01_09h14.05.678,exp3,2022.2.2,
,,,,,,,,,,,,,,,,,,,,,,,52,-1158,Valid,signal,0,2,2558.4931797001045,0,3.0,1.9122448998969048,True,6,A,2023-09-01_09h14.05.678,exp3,2022.2.2,
,,,,,,,,,,,,,,,,,,,,,,,54,-1716,Valid,signal,0,2,2561.4206298000645,0,3.0,1.9291815999895334,True,6,A,2023-09-01_09h14.05.678,exp3,2022.2.2,
,,,,,,,,,,,,,,,,,,,,,,,56,-2274,Valid,noise,0,2,2564.5567801001016,1,3.0,2.195999199990183,True,6,A,2023-09-01_09h14.05.678,exp3,2022.2.2,
,,,,,,,,,,,,,,,,,,,,,,,58,-1716,Valid,noise,0,2,2567.67651930009,1,3.0,2.095780299976468,True,6,A,2023-09-01_09h14.05.678,exp3,2022.2.2,
,,,,,,,,,,,,,,,,,,,,,,,60,-1158,Valid,noise,0,2,2571.2128332001157,1,3.0,2.646031399955973,True,6,A,2023-09-01_09h14.05.678,exp3,2022.2.2,
,,,,,,,,,,,,,,,,,,,,,,,62,-557,Valid,signal,0,1,2574.6845414000563,1,3.0,2.4461848998907954,True,6,A,2023-09-01_09h14.05.678,exp3,2022.2.2,
,,,,,,,,,,,,,,,,,,,,,,,64,-1716,Valid,signal,0,1,2578.029160000151,1,3.0,2.1460426000412554,True,6,A,2023-09-01_09h14.05.678,exp3,2022.2.2,
,,,,,,,,,,,,,,,,,,,,,,,66,557,Valid,signal,0,1,2581.2615073001944,1,4.0,2.5458890998270363,True,6,A,2023-09-01_09h14.05.678,exp3,2022.2.2,
,,,,,,,,,,,,,,,,,,,,,,,68,-2274,Valid,noise,0,2,2584.557115700096,1,3.0,1.9793366000521928,True,6,A,2023-09-01_09h14.05.678,exp3,2022.2.2,
,,,,,,,,,,,,,,,,,,,,,,,70,1716,Valid,noise,0,1,2587.9326327000745,0,2.0,2.3629275001585484,True,6,A,2023-09-01_09h14.05.678,exp3,2022.2.2,
,,,,,,,,,,,,,,,,,,,,,,,72,1716,Invalid,signal,0,1,2591.213336300105,1,2.0,2.4956470001488924,True,6,A,2023-09-01_09h14.05.678,exp3,2022.2.2,
,,,,,,,,,,,,,,,,,,,,,,,74,-1158,Valid,signal,0,1,2594.4609866000246,1,2.0,2.279642299981788,True,6,A,2023-09-01_09h14.05.678,exp3,2022.2.2,
,,,,,,,,,,,,,,,,,,,,,,,76,1716,Valid,signal,0,1,2597.8858124001417,1,2.0,2.3462353001814336,True,6,A,2023-09-01_09h14.05.678,exp3,2022.2.2,
,,,,,,,,,,,,,,,,,,,,,,,78,557,Valid,noise,0,2,2601.2125021000393,1,4.0,2.3285181999672204,True,6,A,2023-09-01_09h14.05.678,exp3,2022.2.2,
,,,,,,,,,,,,,,,,,,,,,,,80,557,Valid,noise,0,2,2604.3974060001783,1,4.0,3.180354000069201,True,6,A,2023-09-01_09h14.05.678,exp3,2022.2.2,
,,,,,,,,,,,,,,,,,,,,,,,82,-557,Invalid,noise,0,2,2608.749454700155,1,4.0,2.262059200089425,True,6,A,2023-09-01_09h14.05.678,exp3,2022.2.2,
,,,,,,,,,,,,,,,,,,,,,,,84,-2274,Valid,noise,0,2,2611.9014914000873,1,3.0,2.2962154999841005,True,6,A,2023-09-01_09h14.05.678,exp3,2022.2.2,
,,,,,,,,,,,,,,,,,,,,,,,86,-2274,Valid,signal,0,2,2615.292494100053,0,1.0,2.845853399951011,True,6,A,2023-09-01_09h14.05.678,exp3,2022.2.2,
,,,,,,,,,,,,,,,,,,,,,,,88,-1158,Valid,signal,0,1,2619.1977593000047,1,1.0,2.812246900051832,True,6,A,2023-09-01_09h14.05.678,exp3,2022.2.2,
,,,,,,,,,,,,,,,,,,,,,,,90,1716,Valid,signal,0,2,2623.1806846000254,0,3.0,3.2131626999471337,True,6,A,2023-09-01_09h14.05.678,exp3,2022.2.2,
,,,,,,,,,,,,,,,,,,,,,,,92,-1158,Invalid,signal,0,2,2627.276854700176,0,3.0,2.379315600031987,True,6,A,2023-09-01_09h14.05.678,exp3,2022.2.2,
,,,,,,,,,,,,,,,,,,,,,,,94,-2274,Valid,signal,0,2,2630.541625400074,0,3.0,2.262891400139779,True,6,A,2023-09-01_09h14.05.678,exp3,2022.2.2,
,,,,,,,,,,,,,,,,,,,,,,,96,-557,Valid,noise,0,2,2633.916589600034,1,3.0,2.1958832000382245,True,6,A,2023-09-01_09h14.05.678,exp3,2022.2.2,
,,,,,,,,,,,,,,,,,,,,,,,98,1716,Valid,noise,0,2,2636.829135000007,1,3.0,1.979449399979785,True,6,A,2023-09-01_09h14.05.678,exp3,2022.2.2,
,,,,,,,,,,,,,,,,,,,,,,,100,1158,Valid,noise,0,2,2639.6937987001147,1,3.0,1.8956867000088096,True,6,A,2023-09-01_09h14.05.678,exp3,2022.2.2,
,,,,,,,,,,,,,,,,,,,,,,,102,2274,Invalid,noise,0,2,2643.7406228000764,1,3.0,3.0465081001166254,True,6,A,2023-09-01_09h14.05.678,exp3,2022.2.2,
,,,,,,,,,,,,,,,,,,,,,,,104,2274,Valid,noise,0,2,2646.9569374001585,1,3.0,2.1460142999421805,True,6,A,2023-09-01_09h14.05.678,exp3,2022.2.2,
,,,,,,,,,,,,,,,,,,,,,,,106,557,Valid,noise,0,2,2649.8693701000884,1,3.0,2.162527099950239,True,6,A,2023-09-01_09h14.05.678,exp3,2022.2.2,
,,,,,,,,,,,,,,,,,,,,,,,108,557,Invalid,signal,0,2,2652.9885679001454,0,3.0,1.895597100025043,True,6,A,2023-09-01_09h14.05.678,exp3,2022.2.2,
,,,,,,,,,,,,,,,,,,,,,,,110,557,Valid,signal,0,2,2656.940479500219,0,3.0,2.9794721000362188,True,6,A,2023-09-01_09h14.05.678,exp3,2022.2.2,
,,,,,,,,,,,,,,,,,,,,,,,112,-557,Valid,noise,0,2,2660.0296291999985,1,3.0,2.1292001998517662,True,6,A,2023-09-01_09h14.05.678,exp3,2022.2.2,
,,,,,,,,,,,,,,,,,,,,,,,114,-2274,Invalid,signal,0,2,2663.4218397000805,0,3.0,2.3133656999561936,True,6,A,2023-09-01_09h14.05.678,exp3,2022.2.2,
,,,,,,,,,,,,,,,,,,,,,,,116,2274,Valid,signal,0,2,2666.49361720006,0,3.0,2.128958099987358,True,6,A,2023-09-01_09h14.05.678,exp3,2022.2.2,
,,,,,,,,,,,,,,,,,,,,,,,118,-1716,Invalid,signal,0,2,2669.6138458000496,0,3.0,2.0128218000754714,True,6,A,2023-09-01_09h14.05.678,exp3,2022.2.2,
,,,,,,,,,,,,,,,,,,,,,,,120,-1716,Valid,signal,0,2,2672.6526011000387,0,3.0,2.312378600006923,True,6,A,2023-09-01_09h14.05.678,exp3,2022.2.2,
,,,,,,,,,,,,,,,,,,,,,,,122,-2274,Invalid,noise,0,2,2676.9895434000064,1,2.0,3.4299230000469834,True,6,A,2023-09-01_09h14.05.678,exp3,2022.2.2,
,,,,,,,,,,,,,,,,,,,,,,,124,-1158,Valid,signal,0,1,2680.780592299998,1,2.0,2.9630517999175936,True,6,A,2023-09-01_09h14.05.678,exp3,2022.2.2,
,,,,,,,,,,,,,,,,,,,,,,,126,-557,Invalid,noise,0,2,2684.62114560022,1,3.0,2.479370699962601,True,6,A,2023-09-01_09h14.05.678,exp3,2022.2.2,
,,,,,,,,,,,,,,,,,,,,,,,128,-1716,Valid,signal,0,1,2688.2205106001347,1,4.0,2.5956339999102056,True,6,A,2023-09-01_09h14.05.678,exp3,2022.2.2,
,,,,,,,,,,,,,,,,,,,,,,,130,557,Invalid,noise,0,2,2691.5965482001193,1,4.0,2.312494399957359,True,6,A,2023-09-01_09h14.05.678,exp3,2022.2.2,
