trials.label,trials.startVal,trials.maxVal,trials.minVal,trials.startValSd,trials.pthreshold,trials.beta,trials.delta,trials.gamma,trials.grain,trials.stepSize,trials.range,trials.cue,trials.thisIndex,trials.thisRepN,trials.thisN,trials.direction,trials.stepType,trials.intensity,signalOpacity,level,trials.response,stair_eye_ok,nTrial,position,validity,Stimulus,orientation,response_key,response_rt,response_correct,confidence,confidence_rt,curr_trial_rep,eye_ok,participant,session,date,expName,psychopyVersion
high_opac_v,0.01,1,0.01,3,0.82,3.5,0.01,0,0.01,4,5,Valid,1,1,0,start,lin,0.01,0,0.01,1,TRUE,,,,,,,,,,,,,11,A,2023-09-08_08h47.46.613,exp3,2022.2.2
low_opac_i,0.4,1,0.01,3,0.82,3.5,0.01,0,0.01,4,5,Invalid,2,1,1,start,lin,0.4,0,0.4,1,TRUE,,,,,,,,,,,,,11,A,2023-09-08_08h47.46.613,exp3,2022.2.2
low_opac_v,0.4,1,0.01,3,0.82,3.5,0.01,0,0.01,4,5,Valid,0,1,2,start,lin,0.4,0.4,0.4,0,TRUE,,,,,,,,,,,,,11,A,2023-09-08_08h47.46.613,exp3,2022.2.2
low_opac_i,0.4,1,0.01,3,0.82,3.5,0.01,0,0.01,4,5,Invalid,2,2,3,start,lin,0.01,0,0.01,1,TRUE,,,,,,,,,,,,,11,A,2023-09-08_08h47.46.613,exp3,2022.2.2
high_opac_v,0.01,1,0.01,3,0.82,3.5,0.01,0,0.01,4,5,Valid,1,2,4,start,lin,0.01,0.01,0.01,1,TRUE,,,,,,,,,,,,,11,A,2023-09-08_08h47.46.613,exp3,2022.2.2
low_opac_v,0.4,1,0.01,3,0.82,3.5,0.01,0,0.01,4,5,Valid,0,2,5,start,lin,1,1,1,0,TRUE,,,,,,,,,,,,,11,A,2023-09-08_08h47.46.613,exp3,2022.2.2
high_opac_v,0.01,1,0.01,3,0.82,3.5,0.01,0,0.01,4,5,Valid,1,3,6,start,lin,0.01,0,0.01,0,TRUE,,,,,,,,,,,,,11,A,2023-09-08_08h47.46.613,exp3,2022.2.2
low_opac_i,0.4,1,0.01,3,0.82,3.5,0.01,0,0.01,4,5,Invalid,2,3,7,start,lin,0.01,0,0.01,1,TRUE,,,,,,,,,,,,,11,A,2023-09-08_08h47.46.613,exp3,2022.2.2
low_opac_v,0.4,1,0.01,3,0.82,3.5,0.01,0,0.01,4,5,Valid,0,3,8,start,lin,1,0,1,1,TRUE,,,,,,,,,,,,,11,A,2023-09-08_08h47.46.613,exp3,2022.2.2
low_opac_i,0.4,1,0.01,3,0.82,3.5,0.01,0,0.01,4,5,Invalid,2,4,9,start,lin,0.01,0.01,0.01,1,TRUE,,,,,,,,,,,,,11,A,2023-09-08_08h47.46.613,exp3,2022.2.2
low_opac_v,0.4,1,0.01,3,0.82,3.5,0.01,0,0.01,4,5,Valid,0,4,10,start,lin,1,0,1,1,TRUE,,,,,,,,,,,,,11,A,2023-09-08_08h47.46.613,exp3,2022.2.2
high_opac_v,0.01,1,0.01,3,0.82,3.5,0.01,0,0.01,4,5,Valid,1,4,11,start,lin,0.01,0,0.01,0,TRUE,,,,,,,,,,,,,11,A,2023-09-08_08h47.46.613,exp3,2022.2.2
low_opac_v,0.4,1,0.01,3,0.82,3.5,0.01,0,0.01,4,5,Valid,0,5,12,start,lin,1,0,1,1,TRUE,,,,,,,,,,,,,11,A,2023-09-08_08h47.46.613,exp3,2022.2.2
low_opac_i,0.4,1,0.01,3,0.82,3.5,0.01,0,0.01,4,5,Invalid,2,5,13,start,lin,0.01,0,0.01,1,TRUE,,,,,,,,,,,,,11,A,2023-09-08_08h47.46.613,exp3,2022.2.2
high_opac_v,0.01,1,0.01,3,0.82,3.5,0.01,0,0.01,4,5,Valid,1,5,14,start,lin,0.135022945,0,0.135022945,0,TRUE,,,,,,,,,,,,,11,A,2023-09-08_08h47.46.613,exp3,2022.2.2
high_opac_v,0.01,1,0.01,3,0.82,3.5,0.01,0,0.01,4,5,Valid,1,6,15,start,lin,0.222810128,0,0.222810128,0,TRUE,,,,,,,,,,,,,11,A,2023-09-08_08h47.46.613,exp3,2022.2.2
low_opac_i,0.4,1,0.01,3,0.82,3.5,0.01,0,0.01,4,5,Invalid,2,6,16,start,lin,0.01,0.01,0.01,1,TRUE,,,,,,,,,,,,,11,A,2023-09-08_08h47.46.613,exp3,2022.2.2
low_opac_v,0.4,1,0.01,3,0.82,3.5,0.01,0,0.01,4,5,Valid,0,6,17,start,lin,1,0,1,1,TRUE,,,,,,,,,,,,,11,A,2023-09-08_08h47.46.613,exp3,2022.2.2
high_opac_v,0.01,1,0.01,3,0.82,3.5,0.01,0,0.01,4,5,Valid,1,7,18,start,lin,0.305342357,0.305342357,0.305342357,0,TRUE,,,,,,,,,,,,,11,A,2023-09-08_08h47.46.613,exp3,2022.2.2
low_opac_v,0.4,1,0.01,3,0.82,3.5,0.01,0,0.01,4,5,Valid,0,7,19,start,lin,0.985243077,0,0.985243077,1,TRUE,,,,,,,,,,,,,11,A,2023-09-08_08h47.46.613,exp3,2022.2.2
low_opac_i,0.4,1,0.01,3,0.82,3.5,0.01,0,0.01,4,5,Invalid,2,7,20,start,lin,0.01,0,0.01,1,TRUE,,,,,,,,,,,,,11,A,2023-09-08_08h47.46.613,exp3,2022.2.2
low_opac_i,0.4,1,0.01,3,0.82,3.5,0.01,0,0.01,4,5,Invalid,2,8,21,start,lin,0.01,0.01,0.01,1,TRUE,,,,,,,,,,,,,11,A,2023-09-08_08h47.46.613,exp3,2022.2.2
low_opac_v,0.4,1,0.01,3,0.82,3.5,0.01,0,0.01,4,5,Valid,0,8,22,start,lin,0.962479267,0.962479267,0.962479267,0,TRUE,,,,,,,,,,,,,11,A,2023-09-08_08h47.46.613,exp3,2022.2.2
high_opac_v,0.01,1,0.01,3,0.82,3.5,0.01,0,0.01,4,5,Valid,1,8,23,start,lin,0.390931523,0,0.390931523,0,TRUE,,,,,,,,,,,,,11,A,2023-09-08_08h47.46.613,exp3,2022.2.2
high_opac_v,0.01,1,0.01,3,0.82,3.5,0.01,0,0.01,4,5,Valid,1,9,24,start,lin,0.473912926,0,0.473912926,0,TRUE,,,,,,,,,,,,,11,A,2023-09-08_08h47.46.613,exp3,2022.2.2
low_opac_v,0.4,1,0.01,3,0.82,3.5,0.01,0,0.01,4,5,Valid,0,9,25,start,lin,1,1,1,0,TRUE,,,,,,,,,,,,,11,A,2023-09-08_08h47.46.613,exp3,2022.2.2
low_opac_i,0.4,1,0.01,3,0.82,3.5,0.01,0,0.01,4,5,Invalid,2,9,26,start,lin,0.01,0,0.01,0,TRUE,,,,,,,,,,,,,11,A,2023-09-08_08h47.46.613,exp3,2022.2.2
high_opac_v,0.01,1,0.01,3,0.82,3.5,0.01,0,0.01,4,5,Valid,1,10,27,start,lin,0.555403866,0.555403866,0.555403866,0,TRUE,,,,,,,,,,,,,11,A,2023-09-08_08h47.46.613,exp3,2022.2.2
low_opac_i,0.4,1,0.01,3,0.82,3.5,0.01,0,0.01,4,5,Invalid,2,10,28,start,lin,0.01,0,0.01,0,TRUE,,,,,,,,,,,,,11,A,2023-09-08_08h47.46.613,exp3,2022.2.2
low_opac_v,0.4,1,0.01,3,0.82,3.5,0.01,0,0.01,4,5,Valid,0,10,29,start,lin,1,1,1,0,TRUE,,,,,,,,,,,,,11,A,2023-09-08_08h47.46.613,exp3,2022.2.2
low_opac_i,0.4,1,0.01,3,0.82,3.5,0.01,0,0.01,4,5,Invalid,2,11,30,start,lin,0.01390025,0,0.01390025,0,TRUE,,,,,,,,,,,,,11,A,2023-09-08_08h47.46.613,exp3,2022.2.2
high_opac_v,0.01,1,0.01,3,0.82,3.5,0.01,0,0.01,4,5,Valid,1,11,31,start,lin,0.640732109,0.640732109,0.640732109,0,TRUE,,,,,,,,,,,,,11,A,2023-09-08_08h47.46.613,exp3,2022.2.2
low_opac_v,0.4,1,0.01,3,0.82,3.5,0.01,0,0.01,4,5,Valid,0,11,32,start,lin,1,1,1,0,TRUE,,,,,,,,,,,,,11,A,2023-09-08_08h47.46.613,exp3,2022.2.2
low_opac_v,0.4,1,0.01,3,0.82,3.5,0.01,0,0.01,4,5,Valid,0,12,33,start,lin,1,1,1,0,TRUE,,,,,,,,,,,,,11,A,2023-09-08_08h47.46.613,exp3,2022.2.2
low_opac_i,0.4,1,0.01,3,0.82,3.5,0.01,0,0.01,4,5,Invalid,2,12,34,start,lin,0.052873938,0.052873938,0.052873938,0,TRUE,,,,,,,,,,,,,11,A,2023-09-08_08h47.46.613,exp3,2022.2.2
high_opac_v,0.01,1,0.01,3,0.82,3.5,0.01,0,0.01,4,5,Valid,1,12,35,start,lin,0.723660332,0.723660332,0.723660332,0,TRUE,,,,,,,,,,,,,11,A,2023-09-08_08h47.46.613,exp3,2022.2.2
low_opac_i,0.4,1,0.01,3,0.82,3.5,0.01,0,0.01,4,5,Invalid,2,13,36,start,lin,0.082602199,0.082602199,0.082602199,0,TRUE,,,,,,,,,,,,,11,A,2023-09-08_08h47.46.613,exp3,2022.2.2
high_opac_v,0.01,1,0.01,3,0.82,3.5,0.01,0,0.01,4,5,Valid,1,13,37,start,lin,0.805143798,0,0.805143798,0,TRUE,,,,,,,,,,,,,11,A,2023-09-08_08h47.46.613,exp3,2022.2.2
low_opac_v,0.4,1,0.01,3,0.82,3.5,0.01,0,0.01,4,5,Valid,0,13,38,start,lin,1,1,1,0,TRUE,,,,,,,,,,,,,11,A,2023-09-08_08h47.46.613,exp3,2022.2.2
low_opac_i,0.4,1,0.01,3,0.82,3.5,0.01,0,0.01,4,5,Invalid,2,14,39,start,lin,0.110959079,0.110959079,0.110959079,0,TRUE,,,,,,,,,,,,,11,A,2023-09-08_08h47.46.613,exp3,2022.2.2
high_opac_v,0.01,1,0.01,3,0.82,3.5,0.01,0,0.01,4,5,Valid,1,14,40,start,lin,0.890468774,0,0.890468774,1,TRUE,,,,,,,,,,,,,11,A,2023-09-08_08h47.46.613,exp3,2022.2.2
low_opac_v,0.4,1,0.01,3,0.82,3.5,0.01,0,0.01,4,5,Valid,0,14,41,start,lin,1,0,1,0,TRUE,,,,,,,,,,,,,11,A,2023-09-08_08h47.46.613,exp3,2022.2.2
low_opac_v,0.4,1,0.01,3,0.82,3.5,0.01,0,0.01,4,5,Valid,0,15,42,start,lin,1,1,1,0,TRUE,,,,,,,,,,,,,11,A,2023-09-08_08h47.46.613,exp3,2022.2.2
low_opac_i,0.4,1,0.01,3,0.82,3.5,0.01,0,0.01,4,5,Invalid,2,15,43,start,lin,0.13895678,0,0.13895678,1,TRUE,,,,,,,,,,,,,11,A,2023-09-08_08h47.46.613,exp3,2022.2.2
high_opac_v,0.01,1,0.01,3,0.82,3.5,0.01,0,0.01,4,5,Valid,1,15,44,start,lin,0.866389876,0,0.866389876,0,TRUE,,,,,,,,,,,,,11,A,2023-09-08_08h47.46.613,exp3,2022.2.2
low_opac_i,0.4,1,0.01,3,0.82,3.5,0.01,0,0.01,4,5,Invalid,2,16,45,start,lin,0.131882963,0,0.131882963,0,TRUE,,,,,,,,,,,,,11,A,2023-09-08_08h47.46.613,exp3,2022.2.2
high_opac_v,0.01,1,0.01,3,0.82,3.5,0.01,0,0.01,4,5,Valid,1,16,46,start,lin,0.930092357,0,0.930092357,1,TRUE,,,,,,,,,,,,,11,A,2023-09-08_08h47.46.613,exp3,2022.2.2
low_opac_v,0.4,1,0.01,3,0.82,3.5,0.01,0,0.01,4,5,Valid,0,16,47,start,lin,1,1,1,0,TRUE,,,,,,,,,,,,,11,A,2023-09-08_08h47.46.613,exp3,2022.2.2
high_opac_v,0.01,1,0.01,3,0.82,3.5,0.01,0,0.01,4,5,Valid,1,17,48,start,lin,0.913384118,0,0.913384118,0,TRUE,,,,,,,,,,,,,11,A,2023-09-08_08h47.46.613,exp3,2022.2.2
low_opac_v,0.4,1,0.01,3,0.82,3.5,0.01,0,0.01,4,5,Valid,0,17,49,start,lin,1,1,1,0,TRUE,,,,,,,,,,,,,11,A,2023-09-08_08h47.46.613,exp3,2022.2.2
low_opac_i,0.4,1,0.01,3,0.82,3.5,0.01,0,0.01,4,5,Invalid,2,17,50,start,lin,0.156718057,0.156718057,0.156718057,0,TRUE,,,,,,,,,,,,,11,A,2023-09-08_08h47.46.613,exp3,2022.2.2
low_opac_v,0.4,1,0.01,3,0.82,3.5,0.01,0,0.01,4,5,Valid,0,18,51,start,lin,1,1,1,0,TRUE,,,,,,,,,,,,,11,A,2023-09-08_08h47.46.613,exp3,2022.2.2
low_opac_i,0.4,1,0.01,3,0.82,3.5,0.01,0,0.01,4,5,Invalid,2,18,52,start,lin,0.181993498,0,0.181993498,0,TRUE,,,,,,,,,,,,,11,A,2023-09-08_08h47.46.613,exp3,2022.2.2
high_opac_v,0.01,1,0.01,3,0.82,3.5,0.01,0,0.01,4,5,Valid,1,18,53,start,lin,0.961321553,0.961321553,0.961321553,0,TRUE,,,,,,,,,,,,,11,A,2023-09-08_08h47.46.613,exp3,2022.2.2
high_opac_v,0.01,1,0.01,3,0.82,3.5,0.01,0,0.01,4,5,Valid,1,19,54,start,lin,1,1,1,0,TRUE,,,,,,,,,,,,,11,A,2023-09-08_08h47.46.613,exp3,2022.2.2
low_opac_v,0.4,1,0.01,3,0.82,3.5,0.01,0,0.01,4,5,Valid,0,19,55,start,lin,1,1,1,0,TRUE,,,,,,,,,,,,,11,A,2023-09-08_08h47.46.613,exp3,2022.2.2
low_opac_i,0.4,1,0.01,3,0.82,3.5,0.01,0,0.01,4,5,Invalid,2,19,56,start,lin,0.206067771,0,0.206067771,1,TRUE,,,,,,,,,,,,,11,A,2023-09-08_08h47.46.613,exp3,2022.2.2
low_opac_v,0.4,1,0.01,3,0.82,3.5,0.01,0,0.01,4,5,Valid,0,20,57,start,lin,1,0,1,0,TRUE,,,,,,,,,,,,,11,A,2023-09-08_08h47.46.613,exp3,2022.2.2
low_opac_i,0.4,1,0.01,3,0.82,3.5,0.01,0,0.01,4,5,Invalid,2,20,58,start,lin,0.200095344,0,0.200095344,1,TRUE,,,,,,,,,,,,,11,A,2023-09-08_08h47.46.613,exp3,2022.2.2
high_opac_v,0.01,1,0.01,3,0.82,3.5,0.01,0,0.01,4,5,Valid,1,20,59,start,lin,1,0,1,0,TRUE,,,,,,,,,,,,,11,A,2023-09-08_08h47.46.613,exp3,2022.2.2
low_opac_i,0.4,1,0.01,3,0.82,3.5,0.01,0,0.01,4,5,Invalid,2,21,60,start,lin,0.194485358,0.194485358,0.194485358,0,TRUE,,,,,,,,,,,,,11,A,2023-09-08_08h47.46.613,exp3,2022.2.2
low_opac_v,0.4,1,0.01,3,0.82,3.5,0.01,0,0.01,4,5,Valid,0,21,61,start,lin,1,0,1,1,TRUE,,,,,,,,,,,,,11,A,2023-09-08_08h47.46.613,exp3,2022.2.2
high_opac_v,0.01,1,0.01,3,0.82,3.5,0.01,0,0.01,4,5,Valid,1,21,62,start,lin,1,1,1,0,TRUE,,,,,,,,,,,,,11,A,2023-09-08_08h47.46.613,exp3,2022.2.2
low_opac_i,0.4,1,0.01,3,0.82,3.5,0.01,0,0.01,4,5,Invalid,2,22,63,start,lin,0.2143576,0,0.2143576,0,TRUE,,,,,,,,,,,,,11,A,2023-09-08_08h47.46.613,exp3,2022.2.2
low_opac_v,0.4,1,0.01,3,0.82,3.5,0.01,0,0.01,4,5,Valid,0,22,64,start,lin,1,1,1,0,TRUE,,,,,,,,,,,,,11,A,2023-09-08_08h47.46.613,exp3,2022.2.2
high_opac_v,0.01,1,0.01,3,0.82,3.5,0.01,0,0.01,4,5,Valid,1,22,65,start,lin,1,0,1,0,TRUE,,,,,,,,,,,,,11,A,2023-09-08_08h47.46.613,exp3,2022.2.2
low_opac_v,0.4,1,0.01,3,0.82,3.5,0.01,0,0.01,4,5,Valid,0,23,66,start,lin,1,0,1,0,TRUE,,,,,,,,,,,,,11,A,2023-09-08_08h47.46.613,exp3,2022.2.2
high_opac_v,0.01,1,0.01,3,0.82,3.5,0.01,0,0.01,4,5,Valid,1,23,67,start,lin,1,1,1,0,TRUE,,,,,,,,,,,,,11,A,2023-09-08_08h47.46.613,exp3,2022.2.2
low_opac_i,0.4,1,0.01,3,0.82,3.5,0.01,0,0.01,4,5,Invalid,2,23,68,start,lin,0.233852688,0,0.233852688,1,TRUE,,,,,,,,,,,,,11,A,2023-09-08_08h47.46.613,exp3,2022.2.2
high_opac_v,0.01,1,0.01,3,0.82,3.5,0.01,0,0.01,4,5,Valid,1,24,69,start,lin,1,0,1,0,TRUE,,,,,,,,,,,,,11,A,2023-09-08_08h47.46.613,exp3,2022.2.2
low_opac_i,0.4,1,0.01,3,0.82,3.5,0.01,0,0.01,4,5,Invalid,2,24,70,start,lin,0.228689688,0,0.228689688,0,TRUE,,,,,,,,,,,,,11,A,2023-09-08_08h47.46.613,exp3,2022.2.2
low_opac_v,0.4,1,0.01,3,0.82,3.5,0.01,0,0.01,4,5,Valid,0,24,71,start,lin,1,1,1,0,TRUE,,,,,,,,,,,,,11,A,2023-09-08_08h47.46.613,exp3,2022.2.2
low_opac_i,0.4,1,0.01,3,0.82,3.5,0.01,0,0.01,4,5,Invalid,2,25,72,start,lin,0.247268602,0,0.247268602,0,TRUE,,,,,,,,,,,,,11,A,2023-09-08_08h47.46.613,exp3,2022.2.2
high_opac_v,0.01,1,0.01,3,0.82,3.5,0.01,0,0.01,4,5,Valid,1,25,73,start,lin,1,1,1,0,TRUE,,,,,,,,,,,,,11,A,2023-09-08_08h47.46.613,exp3,2022.2.2
low_opac_v,0.4,1,0.01,3,0.82,3.5,0.01,0,0.01,4,5,Valid,0,25,74,start,lin,1,0,1,1,TRUE,,,,,,,,,,,,,11,A,2023-09-08_08h47.46.613,exp3,2022.2.2
low_opac_i,0.4,1,0.01,3,0.82,3.5,0.01,0,0.01,4,5,Invalid,2,26,75,start,lin,0.265712725,0.265712725,0.265712725,0,TRUE,,,,,,,,,,,,,11,A,2023-09-08_08h47.46.613,exp3,2022.2.2
low_opac_v,0.4,1,0.01,3,0.82,3.5,0.01,0,0.01,4,5,Valid,0,26,76,start,lin,1,0,1,0,TRUE,,,,,,,,,,,,,11,A,2023-09-08_08h47.46.613,exp3,2022.2.2
high_opac_v,0.01,1,0.01,3,0.82,3.5,0.01,0,0.01,4,5,Valid,1,26,77,start,lin,1,0,1,0,TRUE,,,,,,,,,,,,,11,A,2023-09-08_08h47.46.613,exp3,2022.2.2
low_opac_v,0.4,1,0.01,3,0.82,3.5,0.01,0,0.01,4,5,Valid,0,27,78,start,lin,1,1,1,0,TRUE,,,,,,,,,,,,,11,A,2023-09-08_08h47.46.613,exp3,2022.2.2
high_opac_v,0.01,1,0.01,3,0.82,3.5,0.01,0,0.01,4,5,Valid,1,27,79,start,lin,1,1,1,0,TRUE,,,,,,,,,,,,,11,A,2023-09-08_08h47.46.613,exp3,2022.2.2
low_opac_i,0.4,1,0.01,3,0.82,3.5,0.01,0,0.01,4,5,Invalid,2,27,80,start,lin,0.284072384,0.284072384,0.284072384,0,TRUE,,,,,,,,,,,,,11,A,2023-09-08_08h47.46.613,exp3,2022.2.2
high_opac_v,0.01,1,0.01,3,0.82,3.5,0.01,0,0.01,4,5,Valid,1,28,81,start,lin,1,1,1,0,TRUE,,,,,,,,,,,,,11,A,2023-09-08_08h47.46.613,exp3,2022.2.2
low_opac_v,0.4,1,0.01,3,0.82,3.5,0.01,0,0.01,4,5,Valid,0,28,82,start,lin,1,1,1,0,TRUE,,,,,,,,,,,,,11,A,2023-09-08_08h47.46.613,exp3,2022.2.2
low_opac_i,0.4,1,0.01,3,0.82,3.5,0.01,0,0.01,4,5,Invalid,2,28,83,start,lin,0.301157766,0.301157766,0.301157766,0,TRUE,,,,,,,,,,,,,11,A,2023-09-08_08h47.46.613,exp3,2022.2.2
low_opac_v,0.4,1,0.01,3,0.82,3.5,0.01,0,0.01,4,5,Valid,0,29,84,start,lin,1,0,1,0,TRUE,,,,,,,,,,,,,11,A,2023-09-08_08h47.46.613,exp3,2022.2.2
high_opac_v,0.01,1,0.01,3,0.82,3.5,0.01,0,0.01,4,5,Valid,1,29,85,start,lin,1,0,1,0,TRUE,,,,,,,,,,,,,11,A,2023-09-08_08h47.46.613,exp3,2022.2.2
low_opac_i,0.4,1,0.01,3,0.82,3.5,0.01,0,0.01,4,5,Invalid,2,29,86,start,lin,0.318354191,0,0.318354191,0,TRUE,,,,,,,,,,,,,11,A,2023-09-08_08h47.46.613,exp3,2022.2.2
low_opac_v,0.4,1,0.01,3,0.82,3.5,0.01,0,0.01,4,5,Valid,0,30,87,start,lin,1,1,1,0,TRUE,,,,,,,,,,,,,11,A,2023-09-08_08h47.46.613,exp3,2022.2.2
high_opac_v,0.01,1,0.01,3,0.82,3.5,0.01,0,0.01,4,5,Valid,1,30,88,start,lin,1,0,1,0,TRUE,,,,,,,,,,,,,11,A,2023-09-08_08h47.46.613,exp3,2022.2.2
low_opac_i,0.4,1,0.01,3,0.82,3.5,0.01,0,0.01,4,5,Invalid,2,30,89,start,lin,0.335724397,0,0.335724397,0,TRUE,,,,,,,,,,,,,11,A,2023-09-08_08h47.46.613,exp3,2022.2.2
high_opac_v,0.01,1,0.01,3,0.82,3.5,0.01,0,0.01,4,5,Valid,1,31,90,start,lin,1,1,1,0,TRUE,,,,,,,,,,,,,11,A,2023-09-08_08h47.46.613,exp3,2022.2.2
low_opac_v,0.4,1,0.01,3,0.82,3.5,0.01,0,0.01,4,5,Valid,0,31,91,start,lin,1,0,1,0,TRUE,,,,,,,,,,,,,11,A,2023-09-08_08h47.46.613,exp3,2022.2.2
low_opac_i,0.4,1,0.01,3,0.82,3.5,0.01,0,0.01,4,5,Invalid,2,31,92,start,lin,0.353244351,0,0.353244351,0,TRUE,,,,,,,,,,,,,11,A,2023-09-08_08h47.46.613,exp3,2022.2.2
low_opac_i,0.4,1,0.01,3,0.82,3.5,0.01,0,0.01,4,5,Invalid,2,32,93,start,lin,0.369711054,0,0.369711054,0,TRUE,,,,,,,,,,,,,11,A,2023-09-08_08h47.46.613,exp3,2022.2.2
low_opac_v,0.4,1,0.01,3,0.82,3.5,0.01,0,0.01,4,5,Valid,0,32,94,start,lin,1,1,1,0,TRUE,,,,,,,,,,,,,11,A,2023-09-08_08h47.46.613,exp3,2022.2.2
high_opac_v,0.01,1,0.01,3,0.82,3.5,0.01,0,0.01,4,5,Valid,1,32,95,start,lin,1,0,1,0,TRUE,,,,,,,,,,,,,11,A,2023-09-08_08h47.46.613,exp3,2022.2.2
low_opac_i,0.4,1,0.01,3,0.82,3.5,0.01,0,0.01,4,5,Invalid,2,33,96,start,lin,0.386497618,0.386497618,0.386497618,0,TRUE,,,,,,,,,,,,,11,A,2023-09-08_08h47.46.613,exp3,2022.2.2
high_opac_v,0.01,1,0.01,3,0.82,3.5,0.01,0,0.01,4,5,Valid,1,33,97,start,lin,1,1,1,0,TRUE,,,,,,,,,,,,,11,A,2023-09-08_08h47.46.613,exp3,2022.2.2
low_opac_v,0.4,1,0.01,3,0.82,3.5,0.01,0,0.01,4,5,Valid,0,33,98,start,lin,1,0,1,0,TRUE,,,,,,,,,,,,,11,A,2023-09-08_08h47.46.613,exp3,2022.2.2
high_opac_v,0.01,1,0.01,3,0.82,3.5,0.01,0,0.01,4,5,Valid,1,34,99,start,lin,1,0,1,0,TRUE,,,,,,,,,,,,,11,A,2023-09-08_08h47.46.613,exp3,2022.2.2
low_opac_v,0.4,1,0.01,3,0.82,3.5,0.01,0,0.01,4,5,Valid,0,34,100,start,lin,1,0,1,1,TRUE,,,,,,,,,,,,,11,A,2023-09-08_08h47.46.613,exp3,2022.2.2
low_opac_i,0.4,1,0.01,3,0.82,3.5,0.01,0,0.01,4,5,Invalid,2,34,101,start,lin,0.403569946,0.403569946,0.403569946,0,TRUE,,,,,,,,,,,,,11,A,2023-09-08_08h47.46.613,exp3,2022.2.2
low_opac_i,0.4,1,0.01,3,0.82,3.5,0.01,0,0.01,4,5,Invalid,2,35,102,start,lin,0.419714589,0,0.419714589,0,TRUE,,,,,,,,,,,,,11,A,2023-09-08_08h47.46.613,exp3,2022.2.2
low_opac_v,0.4,1,0.01,3,0.82,3.5,0.01,0,0.01,4,5,Valid,0,35,103,start,lin,1,1,1,0,TRUE,,,,,,,,,,,,,11,A,2023-09-08_08h47.46.613,exp3,2022.2.2
high_opac_v,0.01,1,0.01,3,0.82,3.5,0.01,0,0.01,4,5,Valid,1,35,104,start,lin,1,1,1,0,TRUE,,,,,,,,,,,,,11,A,2023-09-08_08h47.46.613,exp3,2022.2.2
low_opac_i,0.4,1,0.01,3,0.82,3.5,0.01,0,0.01,4,5,Invalid,2,36,105,start,lin,0.43626636,0.43626636,0.43626636,0,TRUE,,,,,,,,,,,,,11,A,2023-09-08_08h47.46.613,exp3,2022.2.2
low_opac_v,0.4,1,0.01,3,0.82,3.5,0.01,0,0.01,4,5,Valid,0,36,106,start,lin,1,0,1,0,TRUE,,,,,,,,,,,,,11,A,2023-09-08_08h47.46.613,exp3,2022.2.2
high_opac_v,0.01,1,0.01,3,0.82,3.5,0.01,0,0.01,4,5,Valid,1,36,107,start,lin,1,1,1,0,TRUE,,,,,,,,,,,,,11,A,2023-09-08_08h47.46.613,exp3,2022.2.2
low_opac_v,0.4,1,0.01,3,0.82,3.5,0.01,0,0.01,4,5,Valid,0,37,108,start,lin,1,0,1,0,TRUE,,,,,,,,,,,,,11,A,2023-09-08_08h47.46.613,exp3,2022.2.2
low_opac_i,0.4,1,0.01,3,0.82,3.5,0.01,0,0.01,4,5,Invalid,2,37,109,start,lin,0.453171842,0,0.453171842,0,TRUE,,,,,,,,,,,,,11,A,2023-09-08_08h47.46.613,exp3,2022.2.2
high_opac_v,0.01,1,0.01,3,0.82,3.5,0.01,0,0.01,4,5,Valid,1,37,110,start,lin,1,1,1,0,TRUE,,,,,,,,,,,,,11,A,2023-09-08_08h47.46.613,exp3,2022.2.2
low_opac_i,0.4,1,0.01,3,0.82,3.5,0.01,0,0.01,4,5,Invalid,2,38,111,start,lin,0.469214024,0.469214024,0.469214024,0,TRUE,,,,,,,,,,,,,11,A,2023-09-08_08h47.46.613,exp3,2022.2.2
high_opac_v,0.01,1,0.01,3,0.82,3.5,0.01,0,0.01,4,5,Valid,1,38,112,start,lin,1,0,1,1,TRUE,,,,,,,,,,,,,11,A,2023-09-08_08h47.46.613,exp3,2022.2.2
low_opac_v,0.4,1,0.01,3,0.82,3.5,0.01,0,0.01,4,5,Valid,0,38,113,start,lin,1,1,1,0,TRUE,,,,,,,,,,,,,11,A,2023-09-08_08h47.46.613,exp3,2022.2.2
high_opac_v,0.01,1,0.01,3,0.82,3.5,0.01,0,0.01,4,5,Valid,1,39,114,start,lin,1,0,1,0,TRUE,,,,,,,,,,,,,11,A,2023-09-08_08h47.46.613,exp3,2022.2.2
low_opac_i,0.4,1,0.01,3,0.82,3.5,0.01,0,0.01,4,5,Invalid,2,39,115,start,lin,0.48571025,0.48571025,0.48571025,0,TRUE,,,,,,,,,,,,,11,A,2023-09-08_08h47.46.613,exp3,2022.2.2
low_opac_v,0.4,1,0.01,3,0.82,3.5,0.01,0,0.01,4,5,Valid,0,39,116,start,lin,1,1,1,0,TRUE,,,,,,,,,,,,,11,A,2023-09-08_08h47.46.613,exp3,2022.2.2
low_opac_v,0.4,1,0.01,3,0.82,3.5,0.01,0,0.01,4,5,Valid,0,40,117,start,lin,1,1,1,0,TRUE,,,,,,,,,,,,,11,A,2023-09-08_08h47.46.613,exp3,2022.2.2
low_opac_i,0.4,1,0.01,3,0.82,3.5,0.01,0,0.01,4,5,Invalid,2,40,118,start,lin,0.502583076,0.502583076,0.502583076,0,TRUE,,,,,,,,,,,,,11,A,2023-09-08_08h47.46.613,exp3,2022.2.2
high_opac_v,0.01,1,0.01,3,0.82,3.5,0.01,0,0.01,4,5,Valid,1,40,119,start,lin,1,0,1,1,TRUE,,,,,,,,,,,,,11,A,2023-09-08_08h47.46.613,exp3,2022.2.2
low_opac_v,0.4,1,0.01,3,0.82,3.5,0.01,0,0.01,4,5,Valid,0,41,120,start,lin,1,1,1,0,TRUE,,,,,,,,,,,,,11,A,2023-09-08_08h47.46.613,exp3,2022.2.2
high_opac_v,0.01,1,0.01,3,0.82,3.5,0.01,0,0.01,4,5,Valid,1,41,121,start,lin,1,1,1,0,TRUE,,,,,,,,,,,,,11,A,2023-09-08_08h47.46.613,exp3,2022.2.2
low_opac_i,0.4,1,0.01,3,0.82,3.5,0.01,0,0.01,4,5,Invalid,2,41,122,start,lin,0.518624351,0,0.518624351,0,TRUE,,,,,,,,,,,,,11,A,2023-09-08_08h47.46.613,exp3,2022.2.2
high_opac_v,0.01,1,0.01,3,0.82,3.5,0.01,0,0.01,4,5,Valid,1,42,123,start,lin,1,0,1,0,TRUE,,,,,,,,,,,,,11,A,2023-09-08_08h47.46.613,exp3,2022.2.2
low_opac_i,0.4,1,0.01,3,0.82,3.5,0.01,0,0.01,4,5,Invalid,2,42,124,start,lin,0.535137114,0.535137114,0.535137114,0,TRUE,,,,,,,,,,,,,11,A,2023-09-08_08h47.46.613,exp3,2022.2.2
low_opac_v,0.4,1,0.01,3,0.82,3.5,0.01,0,0.01,4,5,Valid,0,42,125,start,lin,1,1,1,0,TRUE,,,,,,,,,,,,,11,A,2023-09-08_08h47.46.613,exp3,2022.2.2
low_opac_v,0.4,1,0.01,3,0.82,3.5,0.01,0,0.01,4,5,Valid,0,43,126,start,lin,1,0,1,0,TRUE,,,,,,,,,,,,,11,A,2023-09-08_08h47.46.613,exp3,2022.2.2
low_opac_i,0.4,1,0.01,3,0.82,3.5,0.01,0,0.01,4,5,Invalid,2,43,127,start,lin,0.552028841,0.552028841,0.552028841,0,TRUE,,,,,,,,,,,,,11,A,2023-09-08_08h47.46.613,exp3,2022.2.2
high_opac_v,0.01,1,0.01,3,0.82,3.5,0.01,0,0.01,4,5,Valid,1,43,128,start,lin,1,1,1,0,TRUE,,,,,,,,,,,,,11,A,2023-09-08_08h47.46.613,exp3,2022.2.2
low_opac_i,0.4,1,0.01,3,0.82,3.5,0.01,0,0.01,4,5,Invalid,2,44,129,start,lin,0.568106365,0.568106365,0.568106365,0,TRUE,,,,,,,,,,,,,11,A,2023-09-08_08h47.46.613,exp3,2022.2.2
low_opac_v,0.4,1,0.01,3,0.82,3.5,0.01,0,0.01,4,5,Valid,0,44,130,start,lin,1,0,1,0,TRUE,,,,,,,,,,,,,11,A,2023-09-08_08h47.46.613,exp3,2022.2.2
high_opac_v,0.01,1,0.01,3,0.82,3.5,0.01,0,0.01,4,5,Valid,1,44,131,start,lin,1,1,1,0,TRUE,,,,,,,,,,,,,11,A,2023-09-08_08h47.46.613,exp3,2022.2.2
low_opac_v,0.4,1,0.01,3,0.82,3.5,0.01,0,0.01,4,5,Valid,0,45,132,start,lin,1,1,1,0,TRUE,,,,,,,,,,,,,11,A,2023-09-08_08h47.46.613,exp3,2022.2.2
high_opac_v,0.01,1,0.01,3,0.82,3.5,0.01,0,0.01,4,5,Valid,1,45,133,start,lin,1,1,1,0,TRUE,,,,,,,,,,,,,11,A,2023-09-08_08h47.46.613,exp3,2022.2.2
low_opac_i,0.4,1,0.01,3,0.82,3.5,0.01,0,0.01,4,5,Invalid,2,45,134,start,lin,0.584656196,0.584656196,0.584656196,0,TRUE,,,,,,,,,,,,,11,A,2023-09-08_08h47.46.613,exp3,2022.2.2
low_opac_v,0.4,1,0.01,3,0.82,3.5,0.01,0,0.01,4,5,Valid,0,46,135,start,lin,1,0,1,0,TRUE,,,,,,,,,,,,,11,A,2023-09-08_08h47.46.613,exp3,2022.2.2
high_opac_v,0.01,1,0.01,3,0.82,3.5,0.01,0,0.01,4,5,Valid,1,46,136,start,lin,1,1,1,0,TRUE,,,,,,,,,,,,,11,A,2023-09-08_08h47.46.613,exp3,2022.2.2
low_opac_i,0.4,1,0.01,3,0.82,3.5,0.01,0,0.01,4,5,Invalid,2,46,137,start,lin,0.600428691,0.600428691,0.600428691,0,TRUE,,,,,,,,,,,,,11,A,2023-09-08_08h47.46.613,exp3,2022.2.2
low_opac_v,0.4,1,0.01,3,0.82,3.5,0.01,0,0.01,4,5,Valid,0,47,138,start,lin,1,1,1,0,TRUE,,,,,,,,,,,,,11,A,2023-09-08_08h47.46.613,exp3,2022.2.2
low_opac_i,0.4,1,0.01,3,0.82,3.5,0.01,0,0.01,4,5,Invalid,2,47,139,start,lin,0.616675123,0,0.616675123,0,TRUE,,,,,,,,,,,,,11,A,2023-09-08_08h47.46.613,exp3,2022.2.2
high_opac_v,0.01,1,0.01,3,0.82,3.5,0.01,0,0.01,4,5,Valid,1,47,140,start,lin,1,0,1,0,TRUE,,,,,,,,,,,,,11,A,2023-09-08_08h47.46.613,exp3,2022.2.2
low_opac_v,0.4,1,0.01,3,0.82,3.5,0.01,0,0.01,4,5,Valid,0,48,141,start,lin,1,1,1,0,TRUE,,,,,,,,,,,,,11,A,2023-09-08_08h47.46.613,exp3,2022.2.2
low_opac_i,0.4,1,0.01,3,0.82,3.5,0.01,0,0.01,4,5,Invalid,2,48,142,start,lin,0.633364434,0.633364434,0.633364434,0,TRUE,,,,,,,,,,,,,11,A,2023-09-08_08h47.46.613,exp3,2022.2.2
high_opac_v,0.01,1,0.01,3,0.82,3.5,0.01,0,0.01,4,5,Valid,1,48,143,start,lin,1,0,1,1,TRUE,,,,,,,,,,,,,11,A,2023-09-08_08h47.46.613,exp3,2022.2.2
low_opac_i,0.4,1,0.01,3,0.82,3.5,0.01,0,0.01,4,5,Invalid,2,49,144,start,lin,0.64925617,0.64925617,0.64925617,0,TRUE,,,,,,,,,,,,,11,A,2023-09-08_08h47.46.613,exp3,2022.2.2
high_opac_v,0.01,1,0.01,3,0.82,3.5,0.01,0,0.01,4,5,Valid,1,49,145,start,lin,1,1,1,0,TRUE,,,,,,,,,,,,,11,A,2023-09-08_08h47.46.613,exp3,2022.2.2
low_opac_v,0.4,1,0.01,3,0.82,3.5,0.01,0,0.01,4,5,Valid,0,49,146,start,lin,1,0,1,0,TRUE,,,,,,,,,,,,,11,A,2023-09-08_08h47.46.613,exp3,2022.2.2
low_opac_v,0.4,1,0.01,3,0.82,3.5,0.01,0,0.01,4,5,Valid,0,50,147,start,lin,1,1,1,0,TRUE,,,,,,,,,,,,,11,A,2023-09-08_08h47.46.613,exp3,2022.2.2
low_opac_i,0.4,1,0.01,3,0.82,3.5,0.01,0,0.01,4,5,Invalid,2,50,148,start,lin,0.665645602,0,0.665645602,0,TRUE,,,,,,,,,,,,,11,A,2023-09-08_08h47.46.613,exp3,2022.2.2
high_opac_v,0.01,1,0.01,3,0.82,3.5,0.01,0,0.01,4,5,Valid,1,50,149,start,lin,1,1,1,0,TRUE,,,,,,,,,,,,,11,A,2023-09-08_08h47.46.613,exp3,2022.2.2
high_opac_v,0.01,1,0.01,3,0.82,3.5,0.01,0,0.01,4,5,Valid,1,51,150,start,lin,1,0,1,0,TRUE,,,,,,,,,,,,,11,A,2023-09-08_08h47.46.613,exp3,2022.2.2
low_opac_i,0.4,1,0.01,3,0.82,3.5,0.01,0,0.01,4,5,Invalid,2,51,151,start,lin,0.682443735,0.682443735,0.682443735,0,TRUE,,,,,,,,,,,,,11,A,2023-09-08_08h47.46.613,exp3,2022.2.2
low_opac_v,0.4,1,0.01,3,0.82,3.5,0.01,0,0.01,4,5,Valid,0,51,152,start,lin,1,0,1,0,TRUE,,,,,,,,,,,,,11,A,2023-09-08_08h47.46.613,exp3,2022.2.2
high_opac_v,0.01,1,0.01,3,0.82,3.5,0.01,0,0.01,4,5,Valid,1,52,153,start,lin,1,1,1,0,TRUE,,,,,,,,,,,,,11,A,2023-09-08_08h47.46.613,exp3,2022.2.2
low_opac_i,0.4,1,0.01,3,0.82,3.5,0.01,0,0.01,4,5,Invalid,2,52,154,start,lin,0.698441202,0,0.698441202,0,TRUE,,,,,,,,,,,,,11,A,2023-09-08_08h47.46.613,exp3,2022.2.2
low_opac_v,0.4,1,0.01,3,0.82,3.5,0.01,0,0.01,4,5,Valid,0,52,155,start,lin,1,1,1,0,TRUE,,,,,,,,,,,,,11,A,2023-09-08_08h47.46.613,exp3,2022.2.2
low_opac_i,0.4,1,0.01,3,0.82,3.5,0.01,0,0.01,4,5,Invalid,2,53,156,start,lin,0.714927839,0,0.714927839,0,TRUE,,,,,,,,,,,,,11,A,2023-09-08_08h47.46.613,exp3,2022.2.2
low_opac_v,0.4,1,0.01,3,0.82,3.5,0.01,0,0.01,4,5,Valid,0,53,157,start,lin,1,1,1,0,TRUE,,,,,,,,,,,,,11,A,2023-09-08_08h47.46.613,exp3,2022.2.2
high_opac_v,0.01,1,0.01,3,0.82,3.5,0.01,0,0.01,4,5,Valid,1,53,158,start,lin,1,0,1,0,TRUE,,,,,,,,,,,,,11,A,2023-09-08_08h47.46.613,exp3,2022.2.2
low_opac_v,0.4,1,0.01,3,0.82,3.5,0.01,0,0.01,4,5,Valid,0,54,159,start,lin,1,1,1,0,TRUE,,,,,,,,,,,,,11,A,2023-09-08_08h47.46.613,exp3,2022.2.2
high_opac_v,0.01,1,0.01,3,0.82,3.5,0.01,0,0.01,4,5,Valid,1,54,160,start,lin,1,0,1,0,TRUE,,,,,,,,,,,,,11,A,2023-09-08_08h47.46.613,exp3,2022.2.2
low_opac_i,0.4,1,0.01,3,0.82,3.5,0.01,0,0.01,4,5,Invalid,2,54,161,start,lin,0.730656383,0.730656383,0.730656383,0,TRUE,,,,,,,,,,,,,11,A,2023-09-08_08h47.46.613,exp3,2022.2.2
low_opac_v,0.4,1,0.01,3,0.82,3.5,0.01,0,0.01,4,5,Valid,0,55,162,start,lin,1,0,1,0,TRUE,,,,,,,,,,,,,11,A,2023-09-08_08h47.46.613,exp3,2022.2.2
high_opac_v,0.01,1,0.01,3,0.82,3.5,0.01,0,0.01,4,5,Valid,1,55,163,start,lin,1,0,1,0,TRUE,,,,,,,,,,,,,11,A,2023-09-08_08h47.46.613,exp3,2022.2.2
low_opac_i,0.4,1,0.01,3,0.82,3.5,0.01,0,0.01,4,5,Invalid,2,55,164,start,lin,0.746856732,0,0.746856732,0,TRUE,,,,,,,,,,,,,11,A,2023-09-08_08h47.46.613,exp3,2022.2.2
high_opac_v,0.01,1,0.01,3,0.82,3.5,0.01,0,0.01,4,5,Valid,1,56,165,start,lin,1,1,1,0,TRUE,,,,,,,,,,,,,11,A,2023-09-08_08h47.46.613,exp3,2022.2.2
low_opac_i,0.4,1,0.01,3,0.82,3.5,0.01,0,0.01,4,5,Invalid,2,56,166,start,lin,0.763513042,0,0.763513042,0,TRUE,,,,,,,,,,,,,11,A,2023-09-08_08h47.46.613,exp3,2022.2.2
low_opac_v,0.4,1,0.01,3,0.82,3.5,0.01,0,0.01,4,5,Valid,0,56,167,start,lin,1,0,1,0,TRUE,,,,,,,,,,,,,11,A,2023-09-08_08h47.46.613,exp3,2022.2.2
low_opac_v,0.4,1,0.01,3,0.82,3.5,0.01,0,0.01,4,5,Valid,0,57,168,start,lin,1,0,1,0,TRUE,,,,,,,,,,,,,11,A,2023-09-08_08h47.46.613,exp3,2022.2.2
low_opac_i,0.4,1,0.01,3,0.82,3.5,0.01,0,0.01,4,5,Invalid,2,57,169,start,lin,0.779378018,0.779378018,0.779378018,0,TRUE,,,,,,,,,,,,,11,A,2023-09-08_08h47.46.613,exp3,2022.2.2
high_opac_v,0.01,1,0.01,3,0.82,3.5,0.01,0,0.01,4,5,Valid,1,57,170,start,lin,1,1,1,0,TRUE,,,,,,,,,,,,,11,A,2023-09-08_08h47.46.613,exp3,2022.2.2
high_opac_v,0.01,1,0.01,3,0.82,3.5,0.01,0,0.01,4,5,Valid,1,58,171,start,lin,1,0,1,0,TRUE,,,,,,,,,,,,,11,A,2023-09-08_08h47.46.613,exp3,2022.2.2
low_opac_v,0.4,1,0.01,3,0.82,3.5,0.01,0,0.01,4,5,Valid,0,58,172,start,lin,1,1,1,0,TRUE,,,,,,,,,,,,,11,A,2023-09-08_08h47.46.613,exp3,2022.2.2
low_opac_i,0.4,1,0.01,3,0.82,3.5,0.01,0,0.01,4,5,Invalid,2,58,173,start,lin,0.795744157,0.795744157,0.795744157,0,TRUE,,,,,,,,,,,,,11,A,2023-09-08_08h47.46.613,exp3,2022.2.2
low_opac_i,0.4,1,0.01,3,0.82,3.5,0.01,0,0.01,4,5,Invalid,2,59,174,start,lin,0.812524252,0.812524252,0.812524252,0,TRUE,,,,,,,,,,,,,11,A,2023-09-08_08h47.46.613,exp3,2022.2.2
high_opac_v,0.01,1,0.01,3,0.82,3.5,0.01,0,0.01,4,5,Valid,1,59,175,start,lin,1,1,1,0,TRUE,,,,,,,,,,,,,11,A,2023-09-08_08h47.46.613,exp3,2022.2.2
low_opac_v,0.4,1,0.01,3,0.82,3.5,0.01,0,0.01,4,5,Valid,0,59,176,start,lin,1,1,1,0,TRUE,,,,,,,,,,,,,11,A,2023-09-08_08h47.46.613,exp3,2022.2.2
low_opac_i,0.4,1,0.01,3,0.82,3.5,0.01,0,0.01,4,5,Invalid,2,60,177,start,lin,0.828506054,0.828506054,0.828506054,0,TRUE,,,,,,,,,,,,,11,A,2023-09-08_08h47.46.613,exp3,2022.2.2
high_opac_v,0.01,1,0.01,3,0.82,3.5,0.01,0,0.01,4,5,Valid,1,60,178,start,lin,1,1,1,0,TRUE,,,,,,,,,,,,,11,A,2023-09-08_08h47.46.613,exp3,2022.2.2
low_opac_v,0.4,1,0.01,3,0.82,3.5,0.01,0,0.01,4,5,Valid,0,60,179,start,lin,1,1,1,0,TRUE,,,,,,,,,,,,,11,A,2023-09-08_08h47.46.613,exp3,2022.2.2
high_opac_v,0.01,1,0.01,3,0.82,3.5,0.01,0,0.01,4,5,Valid,1,61,180,start,lin,1,1,1,0,TRUE,,,,,,,,,,,,,11,A,2023-09-08_08h47.46.613,exp3,2022.2.2
low_opac_v,0.4,1,0.01,3,0.82,3.5,0.01,0,0.01,4,5,Valid,0,61,181,start,lin,1,1,1,0,TRUE,,,,,,,,,,,,,11,A,2023-09-08_08h47.46.613,exp3,2022.2.2
low_opac_i,0.4,1,0.01,3,0.82,3.5,0.01,0,0.01,4,5,Invalid,2,61,182,start,lin,0.844979746,0,0.844979746,0,TRUE,,,,,,,,,,,,,11,A,2023-09-08_08h47.46.613,exp3,2022.2.2
low_opac_v,0.4,1,0.01,3,0.82,3.5,0.01,0,0.01,4,5,Valid,0,62,183,start,lin,1,0,1,0,TRUE,,,,,,,,,,,,,11,A,2023-09-08_08h47.46.613,exp3,2022.2.2
high_opac_v,0.01,1,0.01,3,0.82,3.5,0.01,0,0.01,4,5,Valid,1,62,184,start,lin,1,0,1,0,TRUE,,,,,,,,,,,,,11,A,2023-09-08_08h47.46.613,exp3,2022.2.2
low_opac_i,0.4,1,0.01,3,0.82,3.5,0.01,0,0.01,4,5,Invalid,2,62,185,start,lin,0.860698909,0.860698909,0.860698909,0,TRUE,,,,,,,,,,,,,11,A,2023-09-08_08h47.46.613,exp3,2022.2.2
low_opac_i,0.4,1,0.01,3,0.82,3.5,0.01,0,0.01,4,5,Invalid,2,63,186,start,lin,0.87688946,0,0.87688946,0,TRUE,,,,,,,,,,,,,11,A,2023-09-08_08h47.46.613,exp3,2022.2.2
high_opac_v,0.01,1,0.01,3,0.82,3.5,0.01,0,0.01,4,5,Valid,1,63,187,start,lin,1,0,1,0,TRUE,,,,,,,,,,,,,11,A,2023-09-08_08h47.46.613,exp3,2022.2.2
low_opac_v,0.4,1,0.01,3,0.82,3.5,0.01,0,0.01,4,5,Valid,0,63,188,start,lin,1,1,1,0,TRUE,,,,,,,,,,,,,11,A,2023-09-08_08h47.46.613,exp3,2022.2.2
high_opac_v,0.01,1,0.01,3,0.82,3.5,0.01,0,0.01,4,5,Valid,1,64,189,start,lin,1,1,1,0,TRUE,,,,,,,,,,,,,11,A,2023-09-08_08h47.46.613,exp3,2022.2.2
low_opac_i,0.4,1,0.01,3,0.82,3.5,0.01,0,0.01,4,5,Invalid,2,64,190,start,lin,0.893538307,0,0.893538307,0,TRUE,,,,,,,,,,,,,11,A,2023-09-08_08h47.46.613,exp3,2022.2.2
low_opac_v,0.4,1,0.01,3,0.82,3.5,0.01,0,0.01,4,5,Valid,0,64,191,start,lin,1,1,1,0,TRUE,,,,,,,,,,,,,11,A,2023-09-08_08h47.46.613,exp3,2022.2.2
low_opac_v,0.4,1,0.01,3,0.82,3.5,0.01,0,0.01,4,5,Valid,0,65,192,start,lin,1,0,1,0,TRUE,,,,,,,,,,,,,11,A,2023-09-08_08h47.46.613,exp3,2022.2.2
low_opac_i,0.4,1,0.01,3,0.82,3.5,0.01,0,0.01,4,5,Invalid,2,65,193,start,lin,0.909397104,0.909397104,0.909397104,0,TRUE,,,,,,,,,,,,,11,A,2023-09-08_08h47.46.613,exp3,2022.2.2
high_opac_v,0.01,1,0.01,3,0.82,3.5,0.01,0,0.01,4,5,Valid,1,65,194,start,lin,1,1,1,0,TRUE,,,,,,,,,,,,,11,A,2023-09-08_08h47.46.613,exp3,2022.2.2
low_opac_v,0.4,1,0.01,3,0.82,3.5,0.01,0,0.01,4,5,Valid,0,66,195,start,lin,1,1,1,0,TRUE,,,,,,,,,,,,,11,A,2023-09-08_08h47.46.613,exp3,2022.2.2
high_opac_v,0.01,1,0.01,3,0.82,3.5,0.01,0,0.01,4,5,Valid,1,66,196,start,lin,1,1,1,0,TRUE,,,,,,,,,,,,,11,A,2023-09-08_08h47.46.613,exp3,2022.2.2
low_opac_i,0.4,1,0.01,3,0.82,3.5,0.01,0,0.01,4,5,Invalid,2,66,197,start,lin,0.925757744,0,0.925757744,0,TRUE,,,,,,,,,,,,,11,A,2023-09-08_08h47.46.613,exp3,2022.2.2
high_opac_v,0.01,1,0.01,3,0.82,3.5,0.01,0,0.01,4,5,Valid,1,67,198,start,lin,1,1,1,0,TRUE,,,,,,,,,,,,,11,A,2023-09-08_08h47.46.613,exp3,2022.2.2
low_opac_i,0.4,1,0.01,3,0.82,3.5,0.01,0,0.01,4,5,Invalid,2,67,199,start,lin,0.942533278,0,0.942533278,0,TRUE,,,,,,,,,,,,,11,A,2023-09-08_08h47.46.613,exp3,2022.2.2
low_opac_v,0.4,1,0.01,3,0.82,3.5,0.01,0,0.01,4,5,Valid,0,67,200,start,lin,1,1,1,0,TRUE,,,,,,,,,,,,,11,A,2023-09-08_08h47.46.613,exp3,2022.2.2
low_opac_i,0.4,1,0.01,3,0.82,3.5,0.01,0,0.01,4,5,Invalid,2,68,201,start,lin,0.958511199,0.958511199,0.958511199,0,TRUE,,,,,,,,,,,,,11,A,2023-09-08_08h47.46.613,exp3,2022.2.2
high_opac_v,0.01,1,0.01,3,0.82,3.5,0.01,0,0.01,4,5,Valid,1,68,202,start,lin,1,1,1,0,TRUE,,,,,,,,,,,,,11,A,2023-09-08_08h47.46.613,exp3,2022.2.2
low_opac_v,0.4,1,0.01,3,0.82,3.5,0.01,0,0.01,4,5,Valid,0,68,203,start,lin,1,0,1,0,TRUE,,,,,,,,,,,,,11,A,2023-09-08_08h47.46.613,exp3,2022.2.2
low_opac_i,0.4,1,0.01,3,0.82,3.5,0.01,0,0.01,4,5,Invalid,2,69,204,start,lin,0.974981545,0.974981545,0.974981545,0,TRUE,,,,,,,,,,,,,11,A,2023-09-08_08h47.46.613,exp3,2022.2.2
high_opac_v,0.01,1,0.01,3,0.82,3.5,0.01,0,0.01,4,5,Valid,1,69,205,start,lin,1,0,1,0,TRUE,,,,,,,,,,,,,11,A,2023-09-08_08h47.46.613,exp3,2022.2.2
low_opac_v,0.4,1,0.01,3,0.82,3.5,0.01,0,0.01,4,5,Valid,0,69,206,start,lin,1,1,1,0,TRUE,,,,,,,,,,,,,11,A,2023-09-08_08h47.46.613,exp3,2022.2.2
high_opac_v,0.01,1,0.01,3,0.82,3.5,0.01,0,0.01,4,5,Valid,1,70,207,start,lin,1,0,1,0,TRUE,,,,,,,,,,,,,11,A,2023-09-08_08h47.46.613,exp3,2022.2.2
low_opac_i,0.4,1,0.01,3,0.82,3.5,0.01,0,0.01,4,5,Invalid,2,70,208,start,lin,0.990697948,0.990697948,0.990697948,0,TRUE,,,,,,,,,,,,,11,A,2023-09-08_08h47.46.613,exp3,2022.2.2
low_opac_v,0.4,1,0.01,3,0.82,3.5,0.01,0,0.01,4,5,Valid,0,70,209,start,lin,1,1,1,0,TRUE,,,,,,,,,,,,,11,A,2023-09-08_08h47.46.613,exp3,2022.2.2
low_opac_i,0.4,1,0.01,3,0.82,3.5,0.01,0,0.01,4,5,Invalid,2,71,210,start,lin,1,1,1,0,TRUE,,,,,,,,,,,,,11,A,2023-09-08_08h47.46.613,exp3,2022.2.2
high_opac_v,0.01,1,0.01,3,0.82,3.5,0.01,0,0.01,4,5,Valid,1,71,211,start,lin,1,0,1,0,TRUE,,,,,,,,,,,,,11,A,2023-09-08_08h47.46.613,exp3,2022.2.2
low_opac_v,0.4,1,0.01,3,0.82,3.5,0.01,0,0.01,4,5,Valid,0,71,212,start,lin,1,1,1,0,TRUE,,,,,,,,,,,,,11,A,2023-09-08_08h47.46.613,exp3,2022.2.2
high_opac_v,0.01,1,0.01,3,0.82,3.5,0.01,0,0.01,4,5,Valid,1,72,213,start,lin,1,0,1,0,TRUE,,,,,,,,,,,,,11,A,2023-09-08_08h47.46.613,exp3,2022.2.2
low_opac_v,0.4,1,0.01,3,0.82,3.5,0.01,0,0.01,4,5,Valid,0,72,214,start,lin,1,1,1,0,TRUE,,,,,,,,,,,,,11,A,2023-09-08_08h47.46.613,exp3,2022.2.2
low_opac_i,0.4,1,0.01,3,0.82,3.5,0.01,0,0.01,4,5,Invalid,2,72,215,start,lin,1,0,1,0,TRUE,,,,,,,,,,,,,11,A,2023-09-08_08h47.46.613,exp3,2022.2.2
high_opac_v,0.01,1,0.01,3,0.82,3.5,0.01,0,0.01,4,5,Valid,1,73,216,start,lin,1,1,1,0,TRUE,,,,,,,,,,,,,11,A,2023-09-08_08h47.46.613,exp3,2022.2.2
low_opac_v,0.4,1,0.01,3,0.82,3.5,0.01,0,0.01,4,5,Valid,0,73,217,start,lin,1,0,1,0,TRUE,,,,,,,,,,,,,11,A,2023-09-08_08h47.46.613,exp3,2022.2.2
low_opac_i,0.4,1,0.01,3,0.82,3.5,0.01,0,0.01,4,5,Invalid,2,73,218,start,lin,1,1,1,0,TRUE,,,,,,,,,,,,,11,A,2023-09-08_08h47.46.613,exp3,2022.2.2
high_opac_v,0.01,1,0.01,3,0.82,3.5,0.01,0,0.01,4,5,Valid,1,74,219,start,lin,1,1,1,0,TRUE,,,,,,,,,,,,,11,A,2023-09-08_08h47.46.613,exp3,2022.2.2
low_opac_i,0.4,1,0.01,3,0.82,3.5,0.01,0,0.01,4,5,Invalid,2,74,220,start,lin,1,1,1,0,TRUE,,,,,,,,,,,,,11,A,2023-09-08_08h47.46.613,exp3,2022.2.2
low_opac_v,0.4,1,0.01,3,0.82,3.5,0.01,0,0.01,4,5,Valid,0,74,221,start,lin,1,0,1,0,TRUE,,,,,,,,,,,,,11,A,2023-09-08_08h47.46.613,exp3,2022.2.2
low_opac_i,0.4,1,0.01,3,0.82,3.5,0.01,0,0.01,4,5,Invalid,2,75,222,start,lin,1,0,1,0,TRUE,,,,,,,,,,,,,11,A,2023-09-08_08h47.46.613,exp3,2022.2.2
low_opac_v,0.4,1,0.01,3,0.82,3.5,0.01,0,0.01,4,5,Valid,0,75,223,start,lin,1,0,1,0,TRUE,,,,,,,,,,,,,11,A,2023-09-08_08h47.46.613,exp3,2022.2.2
high_opac_v,0.01,1,0.01,3,0.82,3.5,0.01,0,0.01,4,5,Valid,1,75,224,start,lin,1,1,1,0,TRUE,,,,,,,,,,,,,11,A,2023-09-08_08h47.46.613,exp3,2022.2.2
,,,,,,,,,,,,,,,,,,,,,,,0,557,Valid,noise,0,2,964.1212781,1,2,11.6537513,1,TRUE,11,A,2023-09-08_08h47.46.613,exp3,2022.2.2
,,,,,,,,,,,,,,,,,,,,,,,0,2274,Valid,signal,0,2,979.8663331,0,4,10.632699,1,TRUE,11,A,2023-09-08_08h47.46.613,exp3,2022.2.2
,,,,,,,,,,,,,,,,,,,,,,,0,1158,Valid,signal,0,2,987.4331074,0,4,3.3457549,1,TRUE,11,A,2023-09-08_08h47.46.613,exp3,2022.2.2
,,,,,,,,,,,,,,,,,,,,,,,0,-1716,Valid,noise,0,1,991.9305292,0,1,3.9469058,1,TRUE,11,A,2023-09-08_08h47.46.613,exp3,2022.2.2
,,,,,,,,,,,,,,,,,,,,,,,0,2274,Valid,noise,0,1,996.6980059,0,1,3.5965275,1,TRUE,11,A,2023-09-08_08h47.46.613,exp3,2022.2.2
,,,,,,,,,,,,,,,,,,,,,,,0,-1158,Valid,signal,0,2,1001.434232,0,4,3.8131473,1,TRUE,11,A,2023-09-08_08h47.46.613,exp3,2022.2.2
,,,,,,,,,,,,,,,,,,,,,,,0,-1716,Valid,noise,0,1,1006.202275,0,2,3.3130198,1,TRUE,11,A,2023-09-08_08h47.46.613,exp3,2022.2.2
,,,,,,,,,,,,,,,,,,,,,,,0,-1716,Valid,signal,0,2,1010.330304,0,4,2.7293495,1,TRUE,11,A,2023-09-08_08h47.46.613,exp3,2022.2.2
,,,,,,,,,,,,,,,,,,,,,,,0,-1716,Valid,noise,0,1,1013.97768,0,2,2.6964482,1,TRUE,11,A,2023-09-08_08h47.46.613,exp3,2022.2.2
,,,,,,,,,,,,,,,,,,,,,,,0,-557,Valid,noise,0,1,1023.401397,0,2,8.69823,2,TRUE,11,A,2023-09-08_08h47.46.613,exp3,2022.2.2
,,,,,,,,,,,,,,,,,,,,,,,0,-557,Invalid,noise,0,2,1028.122508,1,2,3.5798267,1,TRUE,11,A,2023-09-08_08h47.46.613,exp3,2022.2.2
,,,,,,,,,,,,,,,,,,,,,,,0,-557,Valid,signal,0,2,1032.218128,0,4,3.613449,1,TRUE,11,A,2023-09-08_08h47.46.613,exp3,2022.2.2
,,,,,,,,,,,,,,,,,,,,,,,0,557,Valid,noise,0,1,1037.0025,0,3,4.0466113,1,TRUE,11,A,2023-09-08_08h47.46.613,exp3,2022.2.2
,,,,,,,,,,,,,,,,,,,,,,,0,-1716,Valid,signal,0,2,1041.802203,0,4,2.6960974,1,TRUE,11,A,2023-09-08_08h47.46.613,exp3,2022.2.2
,,,,,,,,,,,,,,,,,,,,,,,0,1158,Valid,signal,0,2,1046.64945,0,4,4.3463263,1,TRUE,11,A,2023-09-08_08h47.46.613,exp3,2022.2.2
,,,,,,,,,,,,,,,,,,,,,,,0,1158,Valid,noise,0,1,1050.841066,0,3,3.1623829,1,TRUE,11,A,2023-09-08_08h47.46.613,exp3,2022.2.2
,,,,,,,,,,,,,,,,,,,,,,,0,1158,Invalid,signal,0,2,1055.434472,0,4,3.0459123,1,TRUE,11,A,2023-09-08_08h47.46.613,exp3,2022.2.2
,,,,,,,,,,,,,,,,,,,,,,,0,1716,Invalid,signal,0,2,1058.937923,0,4,7.1815214,1,TRUE,11,A,2023-09-08_08h47.46.613,exp3,2022.2.2
,,,,,,,,,,,,,,,,,,,,,,,0,2274,Valid,signal,0,2,1067.385396,0,4,2.64621,1,TRUE,11,A,2023-09-08_08h47.46.613,exp3,2022.2.2
,,,,,,,,,,,,,,,,,,,,,,,0,557,Valid,signal,0,2,1070.665191,0,4,2.2124394,1,TRUE,11,A,2023-09-08_08h47.46.613,exp3,2022.2.2
,,,,,,,,,,,,,,,,,,,,,,,0,1158,Valid,signal,0,2,1073.897667,0,4,2.2626288,1,TRUE,11,A,2023-09-08_08h47.46.613,exp3,2022.2.2
,,,,,,,,,,,,,,,,,,,,,,,0,-2274,Valid,noise,0,1,1077.434254,0,3,2.7962249,1,TRUE,11,A,2023-09-08_08h47.46.613,exp3,2022.2.2
,,,,,,,,,,,,,,,,,,,,,,,0,-1716,Valid,noise,0,1,1081.54551,0,2,3.2796422,1,TRUE,11,A,2023-09-08_08h47.46.613,exp3,2022.2.2
,,,,,,,,,,,,,,,,,,,,,,,0,557,Valid,noise,0,1,1085.81773,0,3,3.4632217,1,TRUE,11,A,2023-09-08_08h47.46.613,exp3,2022.2.2
,,,,,,,,,,,,,,,,,,,,,,,0,-1158,Valid,noise,0,1,1091.081291,0,2,6.330638,1,TRUE,11,A,2023-09-08_08h47.46.613,exp3,2022.2.2
,,,,,,,,,,,,,,,,,,,,,,,0,-2274,Valid,noise,0,2,1098.137618,1,3,3.5791837,1,TRUE,11,A,2023-09-08_08h47.46.613,exp3,2022.2.2
,,,,,,,,,,,,,,,,,,,,,,,0,-557,Valid,noise,0,1,1102.72975,0,2,3.6799096,1,TRUE,11,A,2023-09-08_08h47.46.613,exp3,2022.2.2
,,,,,,,,,,,,,,,,,,,,,,,0,1716,Valid,signal,0,2,1106.505385,0,4,2.8961672,1,TRUE,11,A,2023-09-08_08h47.46.613,exp3,2022.2.2
,,,,,,,,,,,,,,,,,,,,,,,0,-1716,Invalid,noise,0,2,1111.946178,1,2,4.1632749,1,TRUE,11,A,2023-09-08_08h47.46.613,exp3,2022.2.2
,,,,,,,,,,,,,,,,,,,,,,,0,-1158,Valid,signal,0,2,1115.802254,0,4,3.029642,1,TRUE,11,A,2023-09-08_08h47.46.613,exp3,2022.2.2
,,,,,,,,,,,,,,,,,,,,,,,0,-2274,Valid,noise,0,1,1120.025675,0,2,2.9129478,1,TRUE,11,A,2023-09-08_08h47.46.613,exp3,2022.2.2
,,,,,,,,,,,,,,,,,,,,,,,0,-557,Valid,signal,0,2,1123.593848,0,4,2.6464192,1,TRUE,11,A,2023-09-08_08h47.46.613,exp3,2022.2.2
,,,,,,,,,,,,,,,,,,,,,,,0,-1716,Valid,noise,0,2,1127.337454,1,1,5.113776,1,TRUE,11,A,2023-09-08_08h47.46.613,exp3,2022.2.2
,,,,,,,,,,,,,,,,,,,,,,,0,2274,Valid,signal,0,2,1133.29,0,4,2.612305,1,TRUE,11,A,2023-09-08_08h47.46.613,exp3,2022.2.2
,,,,,,,,,,,,,,,,,,,,,,,0,557,Invalid,signal,0,2,1136.761617,0,4,3.0300437,1,TRUE,11,A,2023-09-08_08h47.46.613,exp3,2022.2.2
,,,,,,,,,,,,,,,,,,,,,,,0,2274,Invalid,signal,0,2,1141.113671,0,4,2.8289782,1,TRUE,11,A,2023-09-08_08h47.46.613,exp3,2022.2.2
,,,,,,,,,,,,,,,,,,,,,,,0,-2274,Valid,signal,0,2,1144.745297,0,4,2.6290383,1,TRUE,11,A,2023-09-08_08h47.46.613,exp3,2022.2.2
,,,,,,,,,,,,,,,,,,,,,,,0,-1158,Invalid,signal,0,2,1148.682351,0,4,3.2300068,1,TRUE,11,A,2023-09-08_08h47.46.613,exp3,2022.2.2
,,,,,,,,,,,,,,,,,,,,,,,0,1716,Valid,noise,0,1,1152.71368,0,2,3.0132595,1,TRUE,11,A,2023-09-08_08h47.46.613,exp3,2022.2.2
,,,,,,,,,,,,,,,,,,,,,,,0,-1158,Valid,noise,0,1,1157.753885,0,2,4.0793514,1,TRUE,11,A,2023-09-08_08h47.46.613,exp3,2022.2.2
,,,,,,,,,,,,,,,,,,,,,,,0,1716,Valid,noise,0,1,1163.338062,0,1,4.7296704,1,TRUE,11,A,2023-09-08_08h47.46.613,exp3,2022.2.2
,,,,,,,,,,,,,,,,,,,,,,,0,-1158,Invalid,signal,0,2,1167.529236,0,4,2.5795825,1,TRUE,11,A,2023-09-08_08h47.46.613,exp3,2022.2.2
,,,,,,,,,,,,,,,,,,,,,,,0,1716,Valid,signal,0,2,1170.922395,0,4,2.2459124,1,TRUE,11,A,2023-09-08_08h47.46.613,exp3,2022.2.2
,,,,,,,,,,,,,,,,,,,,,,,0,2274,Valid,signal,0,2,1174.090224,0,4,2.2623773,1,TRUE,11,A,2023-09-08_08h47.46.613,exp3,2022.2.2
,,,,,,,,,,,,,,,,,,,,,,,0,-1158,Valid,noise,0,1,1177.898118,0,2,3.7468336,1,TRUE,11,A,2023-09-08_08h47.46.613,exp3,2022.2.2
,,,,,,,,,,,,,,,,,,,,,,,0,2274,Valid,signal,0,2,1182.185118,0,4,2.6793437,1,TRUE,11,A,2023-09-08_08h47.46.613,exp3,2022.2.2
,,,,,,,,,,,,,,,,,,,,,,,0,1716,Valid,signal,0,2,1186.121747,0,4,3.0297165,1,TRUE,11,A,2023-09-08_08h47.46.613,exp3,2022.2.2
,,,,,,,,,,,,,,,,,,,,,,,0,1158,Valid,noise,0,1,1190.36207,0,3,3.3965303,1,TRUE,11,A,2023-09-08_08h47.46.613,exp3,2022.2.2
,,,,,,,,,,,,,,,,,,,,,,,0,-1158,Valid,signal,0,2,1194.409928,0,4,3.0796409,1,TRUE,11,A,2023-09-08_08h47.46.613,exp3,2022.2.2
,,,,,,,,,,,,,,,,,,,,,,,0,-2274,Valid,signal,0,2,1198.585495,0,4,5.2970544,1,TRUE,11,A,2023-09-08_08h47.46.613,exp3,2022.2.2
,,,,,,,,,,,,,,,,,,,,,,,0,2274,Valid,noise,0,1,1205.818244,0,1,3.6303761,1,TRUE,11,A,2023-09-08_08h47.46.613,exp3,2022.2.2
,,,,,,,,,,,,,,,,,,,,,,,0,557,Invalid,noise,0,2,1211.497338,1,4,6.1967868,1,TRUE,11,A,2023-09-08_08h47.46.613,exp3,2022.2.2
,,,,,,,,,,,,,,,,,,,,,,,0,-1158,Valid,signal,0,2,1216.585117,0,4,4.8803891,1,TRUE,11,A,2023-09-08_08h47.46.613,exp3,2022.2.2
,,,,,,,,,,,,,,,,,,,,,,,0,-1716,Invalid,noise,0,1,1222.761544,0,2,3.2968832,1,TRUE,11,A,2023-09-08_08h47.46.613,exp3,2022.2.2
,,,,,,,,,,,,,,,,,,,,,,,0,2274,Invalid,signal,0,2,1227.257137,0,4,2.8458048,1,TRUE,11,A,2023-09-08_08h47.46.613,exp3,2022.2.2
,,,,,,,,,,,,,,,,,,,,,,,0,557,Valid,signal,0,2,1230.745312,0,4,2.545655,1,TRUE,11,A,2023-09-08_08h47.46.613,exp3,2022.2.2
,,,,,,,,,,,,,,,,,,,,,,,0,-557,Valid,noise,0,1,1235.386105,0,2,4.3300848,1,TRUE,11,A,2023-09-08_08h47.46.613,exp3,2022.2.2
,,,,,,,,,,,,,,,,,,,,,,,0,-2274,Invalid,signal,0,2,1239.642379,0,4,3.0132065,1,TRUE,11,A,2023-09-08_08h47.46.613,exp3,2022.2.2
,,,,,,,,,,,,,,,,,,,,,,,0,-557,Valid,noise,0,2,1244.601901,1,3,4.0959133,1,TRUE,11,A,2023-09-08_08h47.46.613,exp3,2022.2.2
,,,,,,,,,,,,,,,,,,,,,,,0,1716,Valid,noise,0,1,1248.79298,0,1,3.5466243,1,TRUE,11,A,2023-09-08_08h47.46.613,exp3,2022.2.2
,,,,,,,,,,,,,,,,,,,,,,,0,-1158,Valid,signal,0,2,1253.562333,0,4,3.1965224,1,TRUE,11,A,2023-09-08_08h47.46.613,exp3,2022.2.2
,,,,,,,,,,,,,,,,,,,,,,,0,-2274,Valid,signal,0,2,1257.561942,0,4,3.1628163,1,TRUE,11,A,2023-09-08_08h47.46.613,exp3,2022.2.2
,,,,,,,,,,,,,,,,,,,,,,,0,-2274,Valid,signal,0,2,1261.769594,0,4,3.4972658,1,TRUE,11,A,2023-09-08_08h47.46.613,exp3,2022.2.2
,,,,,,,,,,,,,,,,,,,,,,,0,-557,Valid,signal,0,2,1266.217566,0,4,2.7457529,1,TRUE,11,A,2023-09-08_08h47.46.613,exp3,2022.2.2
,,,,,,,,,,,,,,,,,,,,,,,0,1158,Invalid,signal,0,2,1269.929208,0,4,2.5791621,1,TRUE,11,A,2023-09-08_08h47.46.613,exp3,2022.2.2
,,,,,,,,,,,,,,,,,,,,,,,0,-1716,Valid,noise,0,1,1273.417067,0,2,3.246563,1,TRUE,11,A,2023-09-08_08h47.46.613,exp3,2022.2.2
,,,,,,,,,,,,,,,,,,,,,,,0,557,Valid,noise,0,1,1279.642288,0,2,4.6133024,1,TRUE,11,A,2023-09-08_08h47.46.613,exp3,2022.2.2
,,,,,,,,,,,,,,,,,,,,,,,0,1158,Invalid,noise,0,2,1284.28163,1,2,4.1467229,1,TRUE,11,A,2023-09-08_08h47.46.613,exp3,2022.2.2
,,,,,,,,,,,,,,,,,,,,,,,0,2274,Valid,noise,0,2,1290.713662,1,1,7.9647726,1,TRUE,11,A,2023-09-08_08h47.46.613,exp3,2022.2.2
,,,,,,,,,,,,,,,,,,,,,,,0,-2274,Valid,signal,0,2,1297.865487,0,3,3.7797982,1,TRUE,11,A,2023-09-08_08h47.46.613,exp3,2022.2.2
,,,,,,,,,,,,,,,,,,,,,,,0,557,Valid,noise,0,1,1305.208977,0,3,5.6476728,2,TRUE,11,A,2023-09-08_08h47.46.613,exp3,2022.2.2
,,,,,,,,,,,,,,,,,,,,,,,0,-2274,Valid,signal,0,2,1309.049188,0,3,3.8630802,1,TRUE,11,A,2023-09-08_08h47.46.613,exp3,2022.2.2
,,,,,,,,,,,,,,,,,,,,,,,0,1158,Valid,noise,0,1,1313.865074,0,3,2.7960272,1,TRUE,11,A,2023-09-08_08h47.46.613,exp3,2022.2.2
,,,,,,,,,,,,,,,,,,,,,,,0,-557,Invalid,signal,0,2,1318.058161,0,4,5.6134051,1,TRUE,11,A,2023-09-08_08h47.46.613,exp3,2022.2.2
,,,,,,,,,,,,,,,,,,,,,,,0,2274,Valid,noise,0,1,1325.530041,0,1,5.3977014,1,TRUE,11,A,2023-09-08_08h47.46.613,exp3,2022.2.2
,,,,,,,,,,,,,,,,,,,,,,,0,1158,Valid,signal,0,2,1330.554285,0,4,3.6461183,1,TRUE,11,A,2023-09-08_08h47.46.613,exp3,2022.2.2
,,,,,,,,,,,,,,,,,,,,,,,0,-557,Valid,noise,0,1,1337.049528,0,3,4.8638487,1,TRUE,11,A,2023-09-08_08h47.46.613,exp3,2022.2.2
,,,,,,,,,,,,,,,,,,,,,,,0,1716,Valid,signal,0,2,1341.354339,0,4,3.2963177,1,TRUE,11,A,2023-09-08_08h47.46.613,exp3,2022.2.2
,,,,,,,,,,,,,,,,,,,,,,,0,1158,Valid,signal,0,2,1345.753698,0,4,8.5145728,1,TRUE,11,A,2023-09-08_08h47.46.613,exp3,2022.2.2
,,,,,,,,,,,,,,,,,,,,,,,0,-557,Valid,noise,0,1,1354.825381,0,3,2.7958104,1,TRUE,11,A,2023-09-08_08h47.46.613,exp3,2022.2.2
,,,,,,,,,,,,,,,,,,,,,,,0,557,Valid,noise,0,1,1359.321326,0,2,4.0134196,1,TRUE,11,A,2023-09-08_08h47.46.613,exp3,2022.2.2
,,,,,,,,,,,,,,,,,,,,,,,0,2274,Invalid,noise,0,1,1363.84902,0,1,5.4636574,1,TRUE,11,A,2023-09-08_08h47.46.613,exp3,2022.2.2
,,,,,,,,,,,,,,,,,,,,,,,0,2274,Valid,noise,0,1,1370.490112,0,2,3.1294145,1,TRUE,11,A,2023-09-08_08h47.46.613,exp3,2022.2.2
,,,,,,,,,,,,,,,,,,,,,,,0,-1716,Valid,noise,0,1,1374.537799,0,1,3.2129701,1,TRUE,11,A,2023-09-08_08h47.46.613,exp3,2022.2.2
,,,,,,,,,,,,,,,,,,,,,,,0,1716,Invalid,noise,0,2,1379.849837,1,3,4.5468389,1,TRUE,11,A,2023-09-08_08h47.46.613,exp3,2022.2.2
,,,,,,,,,,,,,,,,,,,,,,,0,-1716,Valid,noise,0,1,1384.45713,0,2,3.8132728,1,TRUE,11,A,2023-09-08_08h47.46.613,exp3,2022.2.2
,,,,,,,,,,,,,,,,,,,,,,,0,-1716,Valid,signal,0,2,1388.841503,0,4,2.6291992,1,TRUE,11,A,2023-09-08_08h47.46.613,exp3,2022.2.2
,,,,,,,,,,,,,,,,,,,,,,,0,-2274,Invalid,noise,0,1,1392.969225,0,3,3.5295351,1,TRUE,11,A,2023-09-08_08h47.46.613,exp3,2022.2.2
,,,,,,,,,,,,,,,,,,,,,,,0,-1158,Valid,noise,0,1,1397.049965,0,2,2.880035,1,TRUE,11,A,2023-09-08_08h47.46.613,exp3,2022.2.2
,,,,,,,,,,,,,,,,,,,,,,,0,-557,Valid,noise,0,1,1401.513762,0,2,4.880078,1,TRUE,11,A,2023-09-08_08h47.46.613,exp3,2022.2.2
,,,,,,,,,,,,,,,,,,,,,,,0,557,Valid,signal,0,2,1406.825567,0,4,3.1801388,1,TRUE,11,A,2023-09-08_08h47.46.613,exp3,2022.2.2
,,,,,,,,,,,,,,,,,,,,,,,0,1158,Valid,signal,0,2,1411.161205,0,4,2.7790517,1,TRUE,11,A,2023-09-08_08h47.46.613,exp3,2022.2.2
,,,,,,,,,,,,,,,,,,,,,,,0,-1716,Valid,noise,0,1,1414.905019,0,3,3.1792536,1,TRUE,11,A,2023-09-08_08h47.46.613,exp3,2022.2.2
,,,,,,,,,,,,,,,,,,,,,,,0,557,Valid,signal,0,2,1419.066111,0,4,2.8957856,1,TRUE,11,A,2023-09-08_08h47.46.613,exp3,2022.2.2
,,,,,,,,,,,,,,,,,,,,,,,0,2274,Invalid,noise,0,1,1423.721064,0,2,3.34655,1,TRUE,11,A,2023-09-08_08h47.46.613,exp3,2022.2.2
,,,,,,,,,,,,,,,,,,,,,,,0,-2274,Valid,signal,0,2,1427.385601,0,4,3.0794795,1,TRUE,11,A,2023-09-08_08h47.46.613,exp3,2022.2.2
,,,,,,,,,,,,,,,,,,,,,,,0,1716,Invalid,signal,0,2,1431.561253,0,4,2.6798242,1,TRUE,11,A,2023-09-08_08h47.46.613,exp3,2022.2.2
,,,,,,,,,,,,,,,,,,,,,,,0,557,Valid,noise,0,1,1435.354266,0,3,3.0789223,1,TRUE,11,A,2023-09-08_08h47.46.613,exp3,2022.2.2
,,,,,,,,,,,,,,,,,,,,,,,0,-2274,Valid,noise,0,2,1440.441565,1,4,4.2468979,1,TRUE,11,A,2023-09-08_08h47.46.613,exp3,2022.2.2
,,,,,,,,,,,,,,,,,,,,,,,0,1716,Valid,noise,0,1,1444.505928,0,2,2.6629771,1,TRUE,11,A,2023-09-08_08h47.46.613,exp3,2022.2.2
,,,,,,,,,,,,,,,,,,,,,,,0,1158,Valid,noise,0,1,1448.217213,0,2,2.5627016,1,TRUE,11,A,2023-09-08_08h47.46.613,exp3,2022.2.2
,,,,,,,,,,,,,,,,,,,,,,,0,-557,Invalid,signal,0,2,1451.609236,0,4,3.5130053,1,TRUE,11,A,2023-09-08_08h47.46.613,exp3,2022.2.2
,,,,,,,,,,,,,,,,,,,,,,,0,-2274,Valid,noise,0,2,1457.816987,1,3,6.7976432,1,TRUE,11,A,2023-09-08_08h47.46.613,exp3,2022.2.2
,,,,,,,,,,,,,,,,,,,,,,,0,1716,Valid,noise,0,1,1463.961761,0,1,2.8956566,1,TRUE,11,A,2023-09-08_08h47.46.613,exp3,2022.2.2
,,,,,,,,,,,,,,,,,,,,,,,0,1716,Valid,noise,0,1,1467.914228,0,1,2.8633863,1,TRUE,11,A,2023-09-08_08h47.46.613,exp3,2022.2.2
,,,,,,,,,,,,,,,,,,,,,,,0,-1158,Valid,noise,0,2,1474.121188,1,2,5.0968785,1,TRUE,11,A,2023-09-08_08h47.46.613,exp3,2022.2.2
,,,,,,,,,,,,,,,,,,,,,,,0,-1716,Valid,signal,0,2,1478.010104,0,4,2.6621862,1,TRUE,11,A,2023-09-08_08h47.46.613,exp3,2022.2.2
,,,,,,,,,,,,,,,,,,,,,,,0,-2274,Valid,noise,0,1,1481.785147,0,3,3.1962909,1,TRUE,11,A,2023-09-08_08h47.46.613,exp3,2022.2.2
,,,,,,,,,,,,,,,,,,,,,,,0,1716,Valid,signal,0,2,1485.993948,0,4,3.1298046,1,TRUE,11,A,2023-09-08_08h47.46.613,exp3,2022.2.2
,,,,,,,,,,,,,,,,,,,,,,,0,1716,Valid,signal,0,2,1490.009932,0,4,2.8461285,1,TRUE,11,A,2023-09-08_08h47.46.613,exp3,2022.2.2
,,,,,,,,,,,,,,,,,,,,,,,0,-2274,Invalid,signal,0,2,1493.625903,0,4,2.5460029,1,TRUE,11,A,2023-09-08_08h47.46.613,exp3,2022.2.2
,,,,,,,,,,,,,,,,,,,,,,,0,-1158,Valid,noise,0,1,1497.193032,0,3,2.8462797,1,TRUE,11,A,2023-09-08_08h47.46.613,exp3,2022.2.2
,,,,,,,,,,,,,,,,,,,,,,,0,-2274,Valid,signal,0,2,1501.896865,0,4,3.8127392,1,TRUE,11,A,2023-09-08_08h47.46.613,exp3,2022.2.2
,,,,,,,,,,,,,,,,,,,,,,,0,-1158,Valid,noise,0,1,1506.041563,0,2,2.5799706,1,TRUE,11,A,2023-09-08_08h47.46.613,exp3,2022.2.2
,,,,,,,,,,,,,,,,,,,,,,,0,557,Valid,signal,0,2,1509.337122,0,4,2.8959199,1,TRUE,11,A,2023-09-08_08h47.46.613,exp3,2022.2.2
,,,,,,,,,,,,,,,,,,,,,,,0,-1158,Valid,noise,0,1,1513.25695,0,3,2.3797911,1,TRUE,11,A,2023-09-08_08h47.46.613,exp3,2022.2.2
,,,,,,,,,,,,,,,,,,,,,,,0,1716,Valid,signal,0,2,1516.713645,0,4,2.5125747,1,TRUE,11,A,2023-09-08_08h47.46.613,exp3,2022.2.2
,,,,,,,,,,,,,,,,,,,,,,,0,2274,Valid,noise,0,1,1520.665068,0,3,3.5467945,1,TRUE,11,A,2023-09-08_08h47.46.613,exp3,2022.2.2
,,,,,,,,,,,,,,,,,,,,,,,0,-1158,Valid,signal,0,2,1524.776841,0,4,6.280201,1,TRUE,11,A,2023-09-08_08h47.46.613,exp3,2022.2.2
,,,,,,,,,,,,,,,,,,,,,,,0,-2274,Valid,signal,0,2,1532.088956,0,4,2.4794092,1,TRUE,11,A,2023-09-08_08h47.46.613,exp3,2022.2.2
,,,,,,,,,,,,,,,,,,,,,,,0,-557,Invalid,noise,0,1,1535.786276,0,4,2.5964347,1,TRUE,11,A,2023-09-08_08h47.46.613,exp3,2022.2.2
,,,,,,,,,,,,,,,,,,,,,,,0,2274,Valid,noise,0,1,1539.257449,0,3,2.8458018,1,TRUE,11,A,2023-09-08_08h47.46.613,exp3,2022.2.2
,,,,,,,,,,,,,,,,,,,,,,,0,-1158,Invalid,noise,0,1,1542.953745,0,2,3.1626401,1,TRUE,11,A,2023-09-08_08h47.46.613,exp3,2022.2.2
,,,,,,,,,,,,,,,,,,,,,,,0,-1158,Valid,signal,0,2,1547.880963,0,4,3.8629581,1,TRUE,11,A,2023-09-08_08h47.46.613,exp3,2022.2.2
,,,,,,,,,,,,,,,,,,,,,,,0,1158,Valid,noise,0,1,1552.073915,0,2,3.8639048,1,TRUE,11,A,2023-09-08_08h47.46.613,exp3,2022.2.2
,,,,,,,,,,,,,,,,,,,,,,,0,1716,Valid,noise,0,1,1557.033188,0,2,2.4290442,1,TRUE,11,A,2023-09-08_08h47.46.613,exp3,2022.2.2
,,,,,,,,,,,,,,,,,,,,,,,0,-557,Valid,noise,0,1,1560.569532,0,3,3.1289576,1,TRUE,11,A,2023-09-08_08h47.46.613,exp3,2022.2.2
,,,,,,,,,,,,,,,,,,,,,,,0,1158,Valid,signal,0,2,1564.457266,0,4,2.2296824,1,TRUE,11,A,2023-09-08_08h47.46.613,exp3,2022.2.2
,,,,,,,,,,,,,,,,,,,,,,,0,2274,Valid,signal,0,2,1567.624807,0,4,2.1290021,1,TRUE,11,A,2023-09-08_08h47.46.613,exp3,2022.2.2
,,,,,,,,,,,,,,,,,,,,,,,0,-1158,Valid,noise,0,1,1570.905527,0,2,3.1797294,1,TRUE,11,A,2023-09-08_08h47.46.613,exp3,2022.2.2
,,,,,,,,,,,,,,,,,,,,,,,0,2274,Valid,noise,0,1,1575.064983,0,1,3.8961403,1,TRUE,11,A,2023-09-08_08h47.46.613,exp3,2022.2.2
,,,,,,,,,,,,,,,,,,,,,,,0,-557,Valid,signal,0,2,1579.92989,0,4,3.012315,1,TRUE,11,A,2023-09-08_08h47.46.613,exp3,2022.2.2
,,,,,,,,,,,,,,,,,,,,,,,0,1158,Valid,noise,0,1,1585.241478,0,3,4.1635345,1,TRUE,11,A,2023-09-08_08h47.46.613,exp3,2022.2.2
,,,,,,,,,,,,,,,,,,,,,,,0,2274,Valid,signal,0,2,1589.449388,0,4,2.9290857,1,TRUE,11,A,2023-09-08_08h47.46.613,exp3,2022.2.2
,,,,,,,,,,,,,,,,,,,,,,,0,-557,Valid,noise,0,1,1593.176847,0,2,3.4636074,1,TRUE,11,A,2023-09-08_08h47.46.613,exp3,2022.2.2
,,,,,,,,,,,,,,,,,,,,,,,0,-1158,Invalid,noise,0,1,1597.673569,0,3,2.7788037,1,TRUE,11,A,2023-09-08_08h47.46.613,exp3,2022.2.2
,,,,,,,,,,,,,,,,,,,,,,,0,557,Invalid,noise,0,1,1601.208965,0,2,2.34577,1,TRUE,11,A,2023-09-08_08h47.46.613,exp3,2022.2.2
,,,,,,,,,,,,,,,,,,,,,,,0,557,Valid,signal,0,2,1605.032894,0,4,3.1960986,1,TRUE,11,A,2023-09-08_08h47.46.613,exp3,2022.2.2
,,,,,,,,,,,,,,,,,,,,,,,0,557,Valid,noise,0,1,1608.889586,0,4,4.7643081,1,TRUE,11,A,2023-09-08_08h47.46.613,exp3,2022.2.2
,,,,,,,,,,,,,,,,,,,,,,,0,557,Valid,signal,0,2,1614.473233,0,4,2.1452167,1,TRUE,11,A,2023-09-08_08h47.46.613,exp3,2022.2.2
,,,,,,,,,,,,,,,,,,,,,,,0,2274,Valid,signal,0,2,1617.658183,0,4,2.2125715,1,TRUE,11,A,2023-09-08_08h47.46.613,exp3,2022.2.2
,,,,,,,,,,,,,,,,,,,,,,,0,557,Valid,signal,0,2,1620.777001,0,4,1.9623283,1,TRUE,11,A,2023-09-08_08h47.46.613,exp3,2022.2.2
,,,,,,,,,,,,,,,,,,,,,,,0,1158,Invalid,noise,0,1,1624.073246,0,3,3.2302901,1,TRUE,11,A,2023-09-08_08h47.46.613,exp3,2022.2.2
,,,,,,,,,,,,,,,,,,,,,,,0,-2274,Invalid,noise,0,2,1629.097203,1,2,3.1292453,1,TRUE,11,A,2023-09-08_08h47.46.613,exp3,2022.2.2
,,,,,,,,,,,,,,,,,,,,,,,0,-1716,Valid,signal,0,2,1632.361528,0,4,2.9457216,1,TRUE,11,A,2023-09-08_08h47.46.613,exp3,2022.2.2
,,,,,,,,,,,,,,,,,,,,,,,0,-557,Valid,signal,0,2,1636.329318,0,4,2.2627463,1,TRUE,11,A,2023-09-08_08h47.46.613,exp3,2022.2.2
,,,,,,,,,,,,,,,,,,,,,,,0,-1158,Valid,signal,0,2,1639.40111,0,4,2.1461575,1,TRUE,11,A,2023-09-08_08h47.46.613,exp3,2022.2.2
,,,,,,,,,,,,,,,,,,,,,,,0,-1716,Valid,signal,0,2,1642.666097,0,4,2.2627359,1,TRUE,11,A,2023-09-08_08h47.46.613,exp3,2022.2.2
,,,,,,,,,,,,,,,,,,,,,,,0,1158,Valid,noise,0,1,1646.025743,0,2,2.7789259,1,TRUE,11,A,2023-09-08_08h47.46.613,exp3,2022.2.2
,,,,,,,,,,,,,,,,,,,,,,,0,1716,Invalid,noise,0,1,1650.008822,0,2,2.4964546,1,TRUE,11,A,2023-09-08_08h47.46.613,exp3,2022.2.2
,,,,,,,,,,,,,,,,,,,,,,,0,-557,Valid,signal,0,2,1653.209865,0,4,2.8962624,1,TRUE,11,A,2023-09-08_08h47.46.613,exp3,2022.2.2
,,,,,,,,,,,,,,,,,,,,,,,0,-557,Valid,signal,0,2,1656.98572,0,4,2.0463076,1,TRUE,11,A,2023-09-08_08h47.46.613,exp3,2022.2.2
,,,,,,,,,,,,,,,,,,,,,,,0,557,Valid,noise,0,1,1660.153906,0,2,2.6792816,1,TRUE,11,A,2023-09-08_08h47.46.613,exp3,2022.2.2
,,,,,,,,,,,,,,,,,,,,,,,0,1716,Valid,noise,0,1,1666.424952,0,2,5.4301108,2,TRUE,11,A,2023-09-08_08h47.46.613,exp3,2022.2.2
,,,,,,,,,,,,,,,,,,,,,,,0,-2274,Valid,noise,0,1,1671.129542,0,2,4.0633611,1,TRUE,11,A,2023-09-08_08h47.46.613,exp3,2022.2.2
,,,,,,,,,,,,,,,,,,,,,,,0,1158,Valid,noise,0,1,1675.417907,0,1,3.3796463,1,TRUE,11,A,2023-09-08_08h47.46.613,exp3,2022.2.2
,,,,,,,,,,,,,,,,,,,,,,,0,-2274,Valid,noise,0,1,1680.361047,0,1,3.0791006,1,TRUE,11,A,2023-09-08_08h47.46.613,exp3,2022.2.2
,,,,,,,,,,,,,,,,,,,,,,,0,-1158,Valid,signal,0,2,1684.281115,0,4,3.7295378,1,TRUE,11,A,2023-09-08_08h47.46.613,exp3,2022.2.2
,,,,,,,,,,,,,,,,,,,,,,,0,-1716,Valid,signal,0,2,1688.952775,0,4,2.9462211,1,TRUE,11,A,2023-09-08_08h47.46.613,exp3,2022.2.2
,,,,,,,,,,,,,,,,,,,,,,,0,1158,Valid,signal,0,2,1692.505164,0,4,2.2127363,1,TRUE,11,A,2023-09-08_08h47.46.613,exp3,2022.2.2
,,,,,,,,,,,,,,,,,,,,,,,0,-557,Valid,signal,0,2,1695.720805,0,4,2.246041,1,TRUE,11,A,2023-09-08_08h47.46.613,exp3,2022.2.2
,,,,,,,,,,,,,,,,,,,,,,,0,-557,Valid,signal,0,2,1698.969479,0,4,2.2959658,1,TRUE,11,A,2023-09-08_08h47.46.613,exp3,2022.2.2
,,,,,,,,,,,,,,,,,,,,,,,0,-1716,Invalid,signal,0,2,1702.376991,0,4,2.31167,1,TRUE,11,A,2023-09-08_08h47.46.613,exp3,2022.2.2
,,,,,,,,,,,,,,,,,,,,,,,0,1716,Valid,noise,0,1,1705.753366,0,1,3.1137395,1,TRUE,11,A,2023-09-08_08h47.46.613,exp3,2022.2.2
,,,,,,,,,,,,,,,,,,,,,,,0,1716,Valid,signal,0,2,1709.960991,0,4,4.4127124,1,TRUE,11,A,2023-09-08_08h47.46.613,exp3,2022.2.2
,,,,,,,,,,,,,,,,,,,,,,,0,557,Valid,signal,0,2,1715.480745,0,4,2.7795213,1,TRUE,11,A,2023-09-08_08h47.46.613,exp3,2022.2.2
,,,,,,,,,,,,,,,,,,,,,,,0,1716,Valid,signal,0,2,1719.209254,0,4,3.3296938,1,TRUE,11,A,2023-09-08_08h47.46.613,exp3,2022.2.2
,,,,,,,,,,,,,,,,,,,,,,,0,-1716,Valid,signal,0,2,1723.688959,0,4,2.8467729,1,TRUE,11,A,2023-09-08_08h47.46.613,exp3,2022.2.2
,,,,,,,,,,,,,,,,,,,,,,,0,-1716,Valid,signal,0,2,1727.416673,0,4,2.5958416,1,TRUE,11,A,2023-09-08_08h47.46.613,exp3,2022.2.2
,,,,,,,,,,,,,,,,,,,,,,,0,1158,Valid,noise,0,1,1730.72876,0,3,2.6123613,1,TRUE,11,A,2023-09-08_08h47.46.613,exp3,2022.2.2
,,,,,,,,,,,,,,,,,,,,,,,0,-2274,Valid,noise,0,1,1734.329975,0,2,2.3295668,1,TRUE,11,A,2023-09-08_08h47.46.613,exp3,2022.2.2
,,,,,,,,,,,,,,,,,,,,,,,0,-1716,Invalid,signal,0,2,1737.946172,0,4,3.179375,1,TRUE,11,A,2023-09-08_08h47.46.613,exp3,2022.2.2
,,,,,,,,,,,,,,,,,,,,,,,0,2274,Valid,signal,0,2,1741.864869,0,4,2.2623046,1,TRUE,11,A,2023-09-08_08h47.46.613,exp3,2022.2.2
,,,,,,,,,,,,,,,,,,,,,,,0,1158,Valid,signal,0,2,1745.129982,0,4,2.2295144,1,TRUE,11,A,2023-09-08_08h47.46.613,exp3,2022.2.2
,,,,,,,,,,,,,,,,,,,,,,,0,2274,Valid,noise,0,2,1748.665576,1,1,3.6462938,1,TRUE,11,A,2023-09-08_08h47.46.613,exp3,2022.2.2
,,,,,,,,,,,,,,,,,,,,,,,0,557,Invalid,signal,0,2,1753.401453,0,4,3.6300934,1,TRUE,11,A,2023-09-08_08h47.46.613,exp3,2022.2.2
,,,,,,,,,,,,,,,,,,,,,,,1,-1716,Valid,signal,0,2,1975.865701,0,4,7.6468481,2,TRUE,11,A,2023-09-08_08h47.46.613,exp3,2022.2.2
,,,,,,,,,,,,,,,,,,,,,,,2,1716,Valid,signal,0,2,1980.360649,0,4,2.429406,1,TRUE,11,A,2023-09-08_08h47.46.613,exp3,2022.2.2
,,,,,,,,,,,,,,,,,,,,,,,3,1716,Valid,signal,0,2,1983.657396,0,4,2.0625324,1,TRUE,11,A,2023-09-08_08h47.46.613,exp3,2022.2.2
,,,,,,,,,,,,,,,,,,,,,,,4,-1158,Valid,noise,0,1,1986.969779,0,2,5.8640837,1,TRUE,11,A,2023-09-08_08h47.46.613,exp3,2022.2.2
,,,,,,,,,,,,,,,,,,,,,,,5,-557,Valid,signal,0,2,1993.673556,0,4,2.9129472,1,TRUE,11,A,2023-09-08_08h47.46.613,exp3,2022.2.2
,,,,,,,,,,,,,,,,,,,,,,,6,557,Valid,signal,0,2,1997.801588,0,4,2.7297356,1,TRUE,11,A,2023-09-08_08h47.46.613,exp3,2022.2.2
,,,,,,,,,,,,,,,,,,,,,,,7,2274,Valid,signal,0,2,2001.402019,0,4,2.4620945,1,TRUE,11,A,2023-09-08_08h47.46.613,exp3,2022.2.2
,,,,,,,,,,,,,,,,,,,,,,,8,-2274,Valid,signal,0,2,2004.696737,0,4,2.0794021,1,TRUE,11,A,2023-09-08_08h47.46.613,exp3,2022.2.2
,,,,,,,,,,,,,,,,,,,,,,,9,-2274,Valid,signal,0,2,2007.753003,0,4,1.9125746,1,TRUE,11,A,2023-09-08_08h47.46.613,exp3,2022.2.2
,,,,,,,,,,,,,,,,,,,,,,,10,557,Valid,signal,0,2,2010.793464,0,4,2.0455517,1,TRUE,11,A,2023-09-08_08h47.46.613,exp3,2022.2.2
,,,,,,,,,,,,,,,,,,,,,,,11,1716,Valid,noise,0,1,2014.296691,0,3,3.9963086,1,TRUE,11,A,2023-09-08_08h47.46.613,exp3,2022.2.2
,,,,,,,,,,,,,,,,,,,,,,,12,557,Valid,noise,0,1,2023.081547,0,2,7.7641467,3,TRUE,11,A,2023-09-08_08h47.46.613,exp3,2022.2.2
,,,,,,,,,,,,,,,,,,,,,,,13,-1158,Valid,noise,0,1,2065.193684,0,1,41.3281866,18,TRUE,11,A,2023-09-08_08h47.46.613,exp3,2022.2.2
,,,,,,,,,,,,,,,,,,,,,,,14,2274,Valid,noise,0,1,2072.104778,0,2,5.0637882,2,TRUE,11,A,2023-09-08_08h47.46.613,exp3,2022.2.2
,,,,,,,,,,,,,,,,,,,,,,,15,2274,Valid,signal,0,2,2076.345454,0,4,7.9152868,1,TRUE,11,A,2023-09-08_08h47.46.613,exp3,2022.2.2
,,,,,,,,,,,,,,,,,,,,,,,16,1158,Valid,noise,0,1,2085.001885,0,3,2.7619257,1,TRUE,11,A,2023-09-08_08h47.46.613,exp3,2022.2.2
,,,,,,,,,,,,,,,,,,,,,,,17,-1158,Invalid,noise,0,1,2088.953251,0,2,2.4130839,1,TRUE,11,A,2023-09-08_08h47.46.613,exp3,2022.2.2
,,,,,,,,,,,,,,,,,,,,,,,18,1158,Valid,noise,0,1,2092.248928,0,4,3.2792161,1,TRUE,11,A,2023-09-08_08h47.46.613,exp3,2022.2.2
,,,,,,,,,,,,,,,,,,,,,,,19,-557,Valid,signal,0,2,2097.992837,0,4,3.7135472,1,TRUE,11,A,2023-09-08_08h47.46.613,exp3,2022.2.2
,,,,,,,,,,,,,,,,,,,,,,,20,-557,Valid,noise,0,1,2101.416757,0,4,2.7958346,1,TRUE,11,A,2023-09-08_08h47.46.613,exp3,2022.2.2
,,,,,,,,,,,,,,,,,,,,,,,21,1716,Valid,signal,0,2,2105.049646,0,4,2.3127968,1,TRUE,11,A,2023-09-08_08h47.46.613,exp3,2022.2.2
,,,,,,,,,,,,,,,,,,,,,,,22,-1716,Valid,signal,0,2,2108.329284,0,4,2.1960931,1,TRUE,11,A,2023-09-08_08h47.46.613,exp3,2022.2.2
,,,,,,,,,,,,,,,,,,,,,,,23,-1158,Valid,signal,0,2,2111.321373,0,4,1.9627429,1,TRUE,11,A,2023-09-08_08h47.46.613,exp3,2022.2.2
,,,,,,,,,,,,,,,,,,,,,,,24,1716,Valid,noise,0,1,2114.361283,0,3,2.5625286,1,TRUE,11,A,2023-09-08_08h47.46.613,exp3,2022.2.2
,,,,,,,,,,,,,,,,,,,,,,,25,1158,Invalid,signal,0,2,2118.041564,0,4,2.445677,1,TRUE,11,A,2023-09-08_08h47.46.613,exp3,2022.2.2
,,,,,,,,,,,,,,,,,,,,,,,26,1158,Valid,noise,0,2,2122.569731,1,4,3.596372,1,TRUE,11,A,2023-09-08_08h47.46.613,exp3,2022.2.2
,,,,,,,,,,,,,,,,,,,,,,,27,1158,Valid,signal,0,2,2126.216638,0,4,1.8769909,1,TRUE,11,A,2023-09-08_08h47.46.613,exp3,2022.2.2
,,,,,,,,,,,,,,,,,,,,,,,28,-2274,Valid,noise,0,1,2129.177165,0,3,2.448378,1,TRUE,11,A,2023-09-08_08h47.46.613,exp3,2022.2.2
,,,,,,,,,,,,,,,,,,,,,,,29,2274,Valid,signal,0,2,2132.505221,0,4,2.3126196,1,TRUE,11,A,2023-09-08_08h47.46.613,exp3,2022.2.2
,,,,,,,,,,,,,,,,,,,,,,,30,-557,Valid,noise,0,1,2135.945566,0,3,3.4630061,1,TRUE,11,A,2023-09-08_08h47.46.613,exp3,2022.2.2
,,,,,,,,,,,,,,,,,,,,,,,31,1158,Valid,signal,0,2,2140.409286,0,4,3.1133616,1,TRUE,11,A,2023-09-08_08h47.46.613,exp3,2022.2.2
,,,,,,,,,,,,,,,,,,,,,,,32,-1716,Valid,noise,0,1,2144.712708,0,4,2.5624584,1,TRUE,11,A,2023-09-08_08h47.46.613,exp3,2022.2.2
,,,,,,,,,,,,,,,,,,,,,,,33,1158,Valid,signal,0,2,2148.105169,0,4,2.3793584,1,TRUE,11,A,2023-09-08_08h47.46.613,exp3,2022.2.2
,,,,,,,,,,,,,,,,,,,,,,,34,-557,Valid,noise,0,1,2151.352947,0,3,3.8297689,1,TRUE,11,A,2023-09-08_08h47.46.613,exp3,2022.2.2
,,,,,,,,,,,,,,,,,,,,,,,35,-1158,Invalid,signal,0,2,2156.16915,0,4,2.1630087,1,TRUE,11,A,2023-09-08_08h47.46.613,exp3,2022.2.2
,,,,,,,,,,,,,,,,,,,,,,,36,-1716,Valid,signal,0,2,2159.065726,0,4,2.0292749,1,TRUE,11,A,2023-09-08_08h47.46.613,exp3,2022.2.2
,,,,,,,,,,,,,,,,,,,,,,,37,-2274,Valid,signal,0,2,2162.185053,0,4,1.9959934,1,TRUE,11,A,2023-09-08_08h47.46.613,exp3,2022.2.2
,,,,,,,,,,,,,,,,,,,,,,,38,1158,Valid,signal,0,2,2165.096487,0,4,1.86233,1,TRUE,11,A,2023-09-08_08h47.46.613,exp3,2022.2.2
,,,,,,,,,,,,,,,,,,,,,,,39,-2274,Valid,signal,0,2,2168.120846,0,4,2.0960188,1,TRUE,11,A,2023-09-08_08h47.46.613,exp3,2022.2.2
,,,,,,,,,,,,,,,,,,,,,,,40,-1716,Valid,signal,0,2,2171.320893,0,4,2.129023,1,TRUE,11,A,2023-09-08_08h47.46.613,exp3,2022.2.2
,,,,,,,,,,,,,,,,,,,,,,,41,-557,Valid,noise,0,1,2174.408945,0,4,2.8468203,1,TRUE,11,A,2023-09-08_08h47.46.613,exp3,2022.2.2
,,,,,,,,,,,,,,,,,,,,,,,42,557,Valid,signal,0,2,2178.408701,0,4,2.2954472,1,TRUE,11,A,2023-09-08_08h47.46.613,exp3,2022.2.2
,,,,,,,,,,,,,,,,,,,,,,,43,557,Valid,noise,0,1,2181.960719,0,4,2.5126197,1,TRUE,11,A,2023-09-08_08h47.46.613,exp3,2022.2.2
,,,,,,,,,,,,,,,,,,,,,,,44,1158,Valid,signal,0,2,2185.177344,0,4,2.5298383,1,TRUE,11,A,2023-09-08_08h47.46.613,exp3,2022.2.2
,,,,,,,,,,,,,,,,,,,,,,,45,1158,Invalid,noise,0,1,2189.081832,0,3,3.0959475,1,TRUE,11,A,2023-09-08_08h47.46.613,exp3,2022.2.2
,,,,,,,,,,,,,,,,,,,,,,,46,-557,Valid,signal,0,2,2192.632803,0,4,2.5293383,1,TRUE,11,A,2023-09-08_08h47.46.613,exp3,2022.2.2
,,,,,,,,,,,,,,,,,,,,,,,47,-1158,Valid,signal,0,2,2196.345203,0,4,3.0297525,1,TRUE,11,A,2023-09-08_08h47.46.613,exp3,2022.2.2
,,,,,,,,,,,,,,,,,,,,,,,48,1158,Valid,signal,0,2,2200.649136,0,4,2.5965908,1,TRUE,11,A,2023-09-08_08h47.46.613,exp3,2022.2.2
,,,,,,,,,,,,,,,,,,,,,,,49,-1158,Valid,signal,0,2,2203.848464,0,4,2.1627308,1,TRUE,11,A,2023-09-08_08h47.46.613,exp3,2022.2.2
,,,,,,,,,,,,,,,,,,,,,,,50,1716,Valid,signal,0,2,2206.937912,0,4,2.0282323,1,TRUE,11,A,2023-09-08_08h47.46.613,exp3,2022.2.2
,,,,,,,,,,,,,,,,,,,,,,,51,-1716,Valid,signal,0,2,2210.184502,0,4,2.2628922,1,TRUE,11,A,2023-09-08_08h47.46.613,exp3,2022.2.2
,,,,,,,,,,,,,,,,,,,,,,,52,557,Invalid,signal,0,2,2213.800562,0,4,2.6455852,1,TRUE,11,A,2023-09-08_08h47.46.613,exp3,2022.2.2
,,,,,,,,,,,,,,,,,,,,,,,53,-1716,Valid,noise,0,1,2217.240935,0,3,4.4472704,1,TRUE,11,A,2023-09-08_08h47.46.613,exp3,2022.2.2
,,,,,,,,,,,,,,,,,,,,,,,54,1716,Invalid,signal,0,2,2222.456715,0,4,2.4795409,1,TRUE,11,A,2023-09-08_08h47.46.613,exp3,2022.2.2
,,,,,,,,,,,,,,,,,,,,,,,55,2274,Valid,signal,0,2,2225.976949,0,4,2.1628615,1,TRUE,11,A,2023-09-08_08h47.46.613,exp3,2022.2.2
,,,,,,,,,,,,,,,,,,,,,,,56,-2274,Valid,signal,0,2,2229.160621,0,4,2.1123151,1,TRUE,11,A,2023-09-08_08h47.46.613,exp3,2022.2.2
,,,,,,,,,,,,,,,,,,,,,,,57,2274,Valid,noise,0,1,2232.361473,0,3,2.5456679,1,TRUE,11,A,2023-09-08_08h47.46.613,exp3,2022.2.2
,,,,,,,,,,,,,,,,,,,,,,,58,-1716,Valid,signal,0,2,2235.62585,0,4,2.5127587,1,TRUE,11,A,2023-09-08_08h47.46.613,exp3,2022.2.2
,,,,,,,,,,,,,,,,,,,,,,,59,-2274,Invalid,signal,0,2,2239.352405,0,4,2.4131739,1,TRUE,11,A,2023-09-08_08h47.46.613,exp3,2022.2.2
,,,,,,,,,,,,,,,,,,,,,,,60,1716,Valid,signal,0,2,2242.568859,0,4,1.9119029,1,TRUE,11,A,2023-09-08_08h47.46.613,exp3,2022.2.2
,,,,,,,,,,,,,,,,,,,,,,,61,1158,Valid,noise,0,1,2245.625642,0,3,2.4631219,1,TRUE,11,A,2023-09-08_08h47.46.613,exp3,2022.2.2
,,,,,,,,,,,,,,,,,,,,,,,62,-1158,Invalid,signal,0,2,2248.9371,0,4,2.5461268,1,TRUE,11,A,2023-09-08_08h47.46.613,exp3,2022.2.2
,,,,,,,,,,,,,,,,,,,,,,,63,1158,Valid,signal,0,2,2252.745521,0,4,2.2451025,1,TRUE,11,A,2023-09-08_08h47.46.613,exp3,2022.2.2
,,,,,,,,,,,,,,,,,,,,,,,64,-1158,Valid,signal,0,2,2255.785203,0,4,1.945695,1,TRUE,11,A,2023-09-08_08h47.46.613,exp3,2022.2.2
,,,,,,,,,,,,,,,,,,,,,,,65,-2274,Valid,signal,0,2,2258.873729,0,4,3.913752,1,TRUE,11,A,2023-09-08_08h47.46.613,exp3,2022.2.2
,,,,,,,,,,,,,,,,,,,,,,,66,557,Valid,noise,0,1,2263.801243,0,4,2.2294603,1,TRUE,11,A,2023-09-08_08h47.46.613,exp3,2022.2.2
,,,,,,,,,,,,,,,,,,,,,,,67,1716,Valid,signal,0,2,2266.873656,0,4,2.0291892,1,TRUE,11,A,2023-09-08_08h47.46.613,exp3,2022.2.2
,,,,,,,,,,,,,,,,,,,,,,,68,-2274,Valid,noise,0,1,2270.201771,0,2,2.9288713,1,TRUE,11,A,2023-09-08_08h47.46.613,exp3,2022.2.2
,,,,,,,,,,,,,,,,,,,,,,,69,1716,Valid,signal,0,2,2273.848926,0,4,6.5975265,1,TRUE,11,A,2023-09-08_08h47.46.613,exp3,2022.2.2
,,,,,,,,,,,,,,,,,,,,,,,70,1158,Valid,noise,0,1,2281.625174,0,3,3.1797162,1,TRUE,11,A,2023-09-08_08h47.46.613,exp3,2022.2.2
,,,,,,,,,,,,,,,,,,,,,,,71,557,Invalid,signal,0,2,2285.768614,0,4,2.8627451,1,TRUE,11,A,2023-09-08_08h47.46.613,exp3,2022.2.2
,,,,,,,,,,,,,,,,,,,,,,,72,-2274,Valid,noise,0,1,2289.945549,0,3,2.9626262,1,TRUE,11,A,2023-09-08_08h47.46.613,exp3,2022.2.2
,,,,,,,,,,,,,,,,,,,,,,,73,-557,Invalid,noise,0,1,2293.753681,0,3,2.6299167,1,TRUE,11,A,2023-09-08_08h47.46.613,exp3,2022.2.2
,,,,,,,,,,,,,,,,,,,,,,,74,2274,Valid,noise,0,1,2297.385472,0,3,2.2959259,1,TRUE,11,A,2023-09-08_08h47.46.613,exp3,2022.2.2
,,,,,,,,,,,,,,,,,,,,,,,75,2274,Valid,noise,0,1,2300.728996,0,2,2.9462529,1,TRUE,11,A,2023-09-08_08h47.46.613,exp3,2022.2.2
,,,,,,,,,,,,,,,,,,,,,,,76,-1158,Valid,signal,0,2,2304.585171,0,4,2.3962969,1,TRUE,11,A,2023-09-08_08h47.46.613,exp3,2022.2.2
,,,,,,,,,,,,,,,,,,,,,,,77,-557,Valid,signal,0,2,2307.849546,0,4,3.2123245,1,TRUE,11,A,2023-09-08_08h47.46.613,exp3,2022.2.2
,,,,,,,,,,,,,,,,,,,,,,,78,-1158,Valid,noise,0,1,2312.392423,0,2,2.8128353,1,TRUE,11,A,2023-09-08_08h47.46.613,exp3,2022.2.2
,,,,,,,,,,,,,,,,,,,,,,,79,-2274,Valid,noise,0,1,2315.993106,0,2,2.2630819,1,TRUE,11,A,2023-09-08_08h47.46.613,exp3,2022.2.2
,,,,,,,,,,,,,,,,,,,,,,,80,-1158,Valid,noise,0,1,2319.448714,0,1,2.8626828,1,TRUE,11,A,2023-09-08_08h47.46.613,exp3,2022.2.2
,,,,,,,,,,,,,,,,,,,,,,,81,1158,Valid,noise,0,2,2323.176854,1,2,3.3788818,1,TRUE,11,A,2023-09-08_08h47.46.613,exp3,2022.2.2
,,,,,,,,,,,,,,,,,,,,,,,82,-1158,Valid,noise,0,1,2327.432887,0,2,2.4463846,1,TRUE,11,A,2023-09-08_08h47.46.613,exp3,2022.2.2
,,,,,,,,,,,,,,,,,,,,,,,83,2274,Valid,noise,0,1,2330.856933,0,3,2.4288802,1,TRUE,11,A,2023-09-08_08h47.46.613,exp3,2022.2.2
,,,,,,,,,,,,,,,,,,,,,,,84,1158,Invalid,noise,0,1,2334.265046,0,3,2.112324,1,TRUE,11,A,2023-09-08_08h47.46.613,exp3,2022.2.2
,,,,,,,,,,,,,,,,,,,,,,,85,-557,Valid,noise,0,1,2338.153431,0,3,4.7302504,1,TRUE,11,A,2023-09-08_08h47.46.613,exp3,2022.2.2
,,,,,,,,,,,,,,,,,,,,,,,86,557,Valid,signal,0,2,2343.17763,0,4,2.862866,1,TRUE,11,A,2023-09-08_08h47.46.613,exp3,2022.2.2
,,,,,,,,,,,,,,,,,,,,,,,87,1716,Valid,noise,0,1,2347.321393,0,2,2.6967288,1,TRUE,11,A,2023-09-08_08h47.46.613,exp3,2022.2.2
,,,,,,,,,,,,,,,,,,,,,,,88,-1158,Valid,noise,0,1,2350.696515,0,3,2.5290531,1,TRUE,11,A,2023-09-08_08h47.46.613,exp3,2022.2.2
,,,,,,,,,,,,,,,,,,,,,,,89,-1158,Invalid,noise,0,1,2354.281451,0,3,2.4130479,1,TRUE,11,A,2023-09-08_08h47.46.613,exp3,2022.2.2
,,,,,,,,,,,,,,,,,,,,,,,90,-1716,Valid,signal,0,2,2359.416402,0,4,4.0295704,1,TRUE,11,A,2023-09-08_08h47.46.613,exp3,2022.2.2
,,,,,,,,,,,,,,,,,,,,,,,91,2274,Valid,signal,0,2,2362.7774,0,4,2.1614492,1,TRUE,11,A,2023-09-08_08h47.46.613,exp3,2022.2.2
,,,,,,,,,,,,,,,,,,,,,,,92,-557,Valid,signal,0,2,2365.752544,0,4,2.0462249,1,TRUE,11,A,2023-09-08_08h47.46.613,exp3,2022.2.2
,,,,,,,,,,,,,,,,,,,,,,,93,1716,Invalid,noise,0,1,2369.11362,0,3,2.4957923,1,TRUE,11,A,2023-09-08_08h47.46.613,exp3,2022.2.2
,,,,,,,,,,,,,,,,,,,,,,,94,-1158,Valid,noise,0,1,2372.968621,0,2,2.6293905,1,TRUE,11,A,2023-09-08_08h47.46.613,exp3,2022.2.2
,,,,,,,,,,,,,,,,,,,,,,,95,-557,Valid,noise,0,2,2376.633164,1,2,7.0479276,1,TRUE,11,A,2023-09-08_08h47.46.613,exp3,2022.2.2
,,,,,,,,,,,,,,,,,,,,,,,96,1716,Valid,noise,0,1,2384.169276,0,2,2.1794004,1,TRUE,11,A,2023-09-08_08h47.46.613,exp3,2022.2.2
,,,,,,,,,,,,,,,,,,,,,,,97,-557,Valid,signal,0,2,2387.369576,0,4,2.7629451,1,TRUE,11,A,2023-09-08_08h47.46.613,exp3,2022.2.2
,,,,,,,,,,,,,,,,,,,,,,,98,-557,Valid,noise,0,2,2392.344626,1,3,4.4633325,1,TRUE,11,A,2023-09-08_08h47.46.613,exp3,2022.2.2
,,,,,,,,,,,,,,,,,,,,,,,99,557,Invalid,noise,0,1,2396.536391,0,2,2.895982,1,TRUE,11,A,2023-09-08_08h47.46.613,exp3,2022.2.2
,,,,,,,,,,,,,,,,,,,,,,,100,-1158,Valid,signal,0,2,2400.584379,0,3,2.4469096,1,TRUE,11,A,2023-09-08_08h47.46.613,exp3,2022.2.2
,,,,,,,,,,,,,,,,,,,,,,,101,1716,Valid,noise,0,1,2405.081462,0,2,3.6622256,1,TRUE,11,A,2023-09-08_08h47.46.613,exp3,2022.2.2
,,,,,,,,,,,,,,,,,,,,,,,102,1158,Invalid,signal,0,2,2408.521342,0,4,2.4469222,1,TRUE,11,A,2023-09-08_08h47.46.613,exp3,2022.2.2
,,,,,,,,,,,,,,,,,,,,,,,103,-2274,Invalid,signal,0,2,2412.48865,0,4,2.5625498,1,TRUE,11,A,2023-09-08_08h47.46.613,exp3,2022.2.2
,,,,,,,,,,,,,,,,,,,,,,,104,-1716,Valid,noise,0,1,2415.848502,0,2,3.0957116,1,TRUE,11,A,2023-09-08_08h47.46.613,exp3,2022.2.2
,,,,,,,,,,,,,,,,,,,,,,,105,1716,Invalid,signal,0,2,2419.849465,0,4,4.2970675,1,TRUE,11,A,2023-09-08_08h47.46.613,exp3,2022.2.2
,,,,,,,,,,,,,,,,,,,,,,,106,-1158,Valid,noise,0,1,2425.129528,0,2,2.8126262,1,TRUE,11,A,2023-09-08_08h47.46.613,exp3,2022.2.2
,,,,,,,,,,,,,,,,,,,,,,,107,2274,Valid,noise,0,1,2429.20928,0,2,2.9628934,1,TRUE,11,A,2023-09-08_08h47.46.613,exp3,2022.2.2
,,,,,,,,,,,,,,,,,,,,,,,108,-2274,Invalid,noise,0,1,2432.920731,0,2,2.2292981,1,TRUE,11,A,2023-09-08_08h47.46.613,exp3,2022.2.2
,,,,,,,,,,,,,,,,,,,,,,,109,-1158,Valid,noise,0,1,2444.024919,0,1,13.4674269,3,TRUE,11,A,2023-09-08_08h47.46.613,exp3,2022.2.2
,,,,,,,,,,,,,,,,,,,,,,,110,-1158,Valid,signal,0,2,2450.648962,0,4,3.6629176,1,TRUE,11,A,2023-09-08_08h47.46.613,exp3,2022.2.2
,,,,,,,,,,,,,,,,,,,,,,,111,-557,Invalid,noise,0,1,2455.145112,0,3,2.5457728,1,TRUE,11,A,2023-09-08_08h47.46.613,exp3,2022.2.2
,,,,,,,,,,,,,,,,,,,,,,,112,-1716,Valid,noise,0,1,2458.633672,0,2,2.4633224,1,TRUE,11,A,2023-09-08_08h47.46.613,exp3,2022.2.2
,,,,,,,,,,,,,,,,,,,,,,,113,-1716,Valid,noise,0,1,2462.312504,0,3,2.6953834,1,TRUE,11,A,2023-09-08_08h47.46.613,exp3,2022.2.2
,,,,,,,,,,,,,,,,,,,,,,,114,-557,Valid,signal,0,2,2466.088312,0,4,2.9633459,1,TRUE,11,A,2023-09-08_08h47.46.613,exp3,2022.2.2
,,,,,,,,,,,,,,,,,,,,,,,115,557,Valid,noise,0,1,2469.784524,0,3,2.1298273,1,TRUE,11,A,2023-09-08_08h47.46.613,exp3,2022.2.2
,,,,,,,,,,,,,,,,,,,,,,,116,2274,Invalid,noise,0,1,2473.961453,0,3,3.0789536,1,TRUE,11,A,2023-09-08_08h47.46.613,exp3,2022.2.2
,,,,,,,,,,,,,,,,,,,,,,,117,2274,Valid,noise,0,1,2477.240433,0,2,2.5796604,1,TRUE,11,A,2023-09-08_08h47.46.613,exp3,2022.2.2
,,,,,,,,,,,,,,,,,,,,,,,118,-1716,Valid,noise,0,1,2480.681399,0,1,2.495504,1,TRUE,11,A,2023-09-08_08h47.46.613,exp3,2022.2.2
,,,,,,,,,,,,,,,,,,,,,,,119,-1716,Invalid,signal,0,2,2484.249405,0,4,2.8456179,1,TRUE,11,A,2023-09-08_08h47.46.613,exp3,2022.2.2
,,,,,,,,,,,,,,,,,,,,,,,120,1716,Valid,signal,0,2,2487.865169,0,4,1.9959715,1,TRUE,11,A,2023-09-08_08h47.46.613,exp3,2022.2.2
,,,,,,,,,,,,,,,,,,,,,,,121,2274,Invalid,signal,0,2,2491.06488,0,4,2.2298527,1,TRUE,11,A,2023-09-08_08h47.46.613,exp3,2022.2.2
,,,,,,,,,,,,,,,,,,,,,,,122,-1716,Invalid,signal,0,2,2494.008809,0,4,1.8119937,1,TRUE,11,A,2023-09-08_08h47.46.613,exp3,2022.2.2
,,,,,,,,,,,,,,,,,,,,,,,123,-2274,Invalid,noise,0,2,2497.113705,1,4,2.2128238,1,TRUE,11,A,2023-09-08_08h47.46.613,exp3,2022.2.2
,,,,,,,,,,,,,,,,,,,,,,,124,-2274,Valid,signal,0,2,2500.681112,0,4,2.862538,1,TRUE,11,A,2023-09-08_08h47.46.613,exp3,2022.2.2
,,,,,,,,,,,,,,,,,,,,,,,125,-557,Invalid,signal,0,2,2503.977664,0,4,2.029254,1,TRUE,11,A,2023-09-08_08h47.46.613,exp3,2022.2.2
,,,,,,,,,,,,,,,,,,,,,,,126,557,Valid,signal,0,2,2507.048696,0,4,2.0632182,1,TRUE,11,A,2023-09-08_08h47.46.613,exp3,2022.2.2
,,,,,,,,,,,,,,,,,,,,,,,127,-557,Valid,noise,0,1,2511.497215,0,3,3.4291308,1,TRUE,11,A,2023-09-08_08h47.46.613,exp3,2022.2.2
,,,,,,,,,,,,,,,,,,,,,,,128,557,Valid,noise,0,1,2518.809667,0,3,6.9479373,1,TRUE,11,A,2023-09-08_08h47.46.613,exp3,2022.2.2
,,,,,,,,,,,,,,,,,,,,,,,129,2274,Invalid,noise,0,1,2523.113428,0,2,3.1964331,1,TRUE,11,A,2023-09-08_08h47.46.613,exp3,2022.2.2
,,,,,,,,,,,,,,,,,,,,,,,130,-1716,Valid,noise,0,2,2527.737669,1,3,3.1457475,1,TRUE,11,A,2023-09-08_08h47.46.613,exp3,2022.2.2
,,,,,,,,,,,,,,,,,,,,,,,131,1716,Valid,noise,0,1,2531.193285,0,2,2.3292724,1,TRUE,11,A,2023-09-08_08h47.46.613,exp3,2022.2.2
,,,,,,,,,,,,,,,,,,,,,,,132,-1158,Valid,signal,0,2,2534.408908,0,3,2.2128516,1,TRUE,11,A,2023-09-08_08h47.46.613,exp3,2022.2.2
,,,,,,,,,,,,,,,,,,,,,,,133,-1716,Valid,signal,0,2,2537.657317,0,4,2.9629286,1,TRUE,11,A,2023-09-08_08h47.46.613,exp3,2022.2.2
,,,,,,,,,,,,,,,,,,,,,,,134,557,Valid,signal,0,2,2541.336405,0,4,1.9453767,1,TRUE,11,A,2023-09-08_08h47.46.613,exp3,2022.2.2
,,,,,,,,,,,,,,,,,,,,,,,135,-2274,Valid,noise,0,1,2545.001026,0,3,2.8129566,1,TRUE,11,A,2023-09-08_08h47.46.613,exp3,2022.2.2
,,,,,,,,,,,,,,,,,,,,,,,136,2274,Invalid,signal,0,2,2553.001201,0,3,7.9980749,3,TRUE,11,A,2023-09-08_08h47.46.613,exp3,2022.2.2
,,,,,,,,,,,,,,,,,,,,,,,137,-1716,Invalid,noise,0,1,2558.009042,0,2,3.8468473,1,TRUE,11,A,2023-09-08_08h47.46.613,exp3,2022.2.2
,,,,,,,,,,,,,,,,,,,,,,,138,2274,Valid,signal,0,2,2562.168904,0,3,2.4293695,1,TRUE,11,A,2023-09-08_08h47.46.613,exp3,2022.2.2
,,,,,,,,,,,,,,,,,,,,,,,139,2274,Valid,signal,0,2,2565.560547,0,4,2.7124395,1,TRUE,11,A,2023-09-08_08h47.46.613,exp3,2022.2.2
,,,,,,,,,,,,,,,,,,,,,,,140,1716,Valid,noise,0,1,2569.352655,0,3,2.3295831,1,TRUE,11,A,2023-09-08_08h47.46.613,exp3,2022.2.2
,,,,,,,,,,,,,,,,,,,,,,,141,557,Valid,signal,0,2,2572.697167,0,4,2.2960171,1,TRUE,11,A,2023-09-08_08h47.46.613,exp3,2022.2.2
,,,,,,,,,,,,,,,,,,,,,,,142,-557,Valid,signal,0,2,2575.928934,0,4,2.0621232,1,TRUE,11,A,2023-09-08_08h47.46.613,exp3,2022.2.2
,,,,,,,,,,,,,,,,,,,,,,,143,1158,Valid,noise,0,1,2579.001057,0,3,3.2971634,1,TRUE,11,A,2023-09-08_08h47.46.613,exp3,2022.2.2
,,,,,,,,,,,,,,,,,,,,,,,144,-2274,Valid,noise,0,1,2584.697506,0,1,4.5294428,1,TRUE,11,A,2023-09-08_08h47.46.613,exp3,2022.2.2
,,,,,,,,,,,,,,,,,,,,,,,145,-1716,Valid,signal,0,2,2588.888767,0,4,2.2126319,1,TRUE,11,A,2023-09-08_08h47.46.613,exp3,2022.2.2
,,,,,,,,,,,,,,,,,,,,,,,146,-2274,Valid,noise,0,1,2592.280765,0,2,3.0632052,1,TRUE,11,A,2023-09-08_08h47.46.613,exp3,2022.2.2
,,,,,,,,,,,,,,,,,,,,,,,147,557,Valid,signal,0,2,2596.025427,0,4,2.2461942,1,TRUE,11,A,2023-09-08_08h47.46.613,exp3,2022.2.2
,,,,,,,,,,,,,,,,,,,,,,,148,1716,Valid,noise,0,1,2599.929144,0,3,2.8958004,1,TRUE,11,A,2023-09-08_08h47.46.613,exp3,2022.2.2
,,,,,,,,,,,,,,,,,,,,,,,149,-1716,Valid,noise,0,1,2603.561054,0,3,2.5458727,1,TRUE,11,A,2023-09-08_08h47.46.613,exp3,2022.2.2
,,,,,,,,,,,,,,,,,,,,,,,150,-557,Valid,noise,0,1,2607.192641,0,2,2.9295209,1,TRUE,11,A,2023-09-08_08h47.46.613,exp3,2022.2.2
,,,,,,,,,,,,,,,,,,,,,,,151,-2274,Valid,noise,0,1,2610.873438,0,2,2.3961098,1,TRUE,11,A,2023-09-08_08h47.46.613,exp3,2022.2.2
,,,,,,,,,,,,,,,,,,,,,,,152,-1716,Invalid,noise,0,1,2614.137177,0,2,2.1965194,1,TRUE,11,A,2023-09-08_08h47.46.613,exp3,2022.2.2
,,,,,,,,,,,,,,,,,,,,,,,153,2274,Valid,noise,0,1,2617.625025,0,2,2.6120568,1,TRUE,11,A,2023-09-08_08h47.46.613,exp3,2022.2.2
,,,,,,,,,,,,,,,,,,,,,,,154,2274,Valid,signal,0,2,2621.977429,0,4,5.1977141,1,TRUE,11,A,2023-09-08_08h47.46.613,exp3,2022.2.2
,,,,,,,,,,,,,,,,,,,,,,,155,-557,Valid,signal,0,2,2627.240856,0,4,2.4286233,1,TRUE,11,A,2023-09-08_08h47.46.613,exp3,2022.2.2
,,,,,,,,,,,,,,,,,,,,,,,156,-2274,Valid,noise,0,1,2631.192454,0,2,3.0799816,1,TRUE,11,A,2023-09-08_08h47.46.613,exp3,2022.2.2
,,,,,,,,,,,,,,,,,,,,,,,157,1158,Valid,signal,0,2,2634.90481,0,4,2.9294736,1,TRUE,11,A,2023-09-08_08h47.46.613,exp3,2022.2.2
,,,,,,,,,,,,,,,,,,,,,,,158,1158,Valid,noise,0,1,2641.128317,0,1,6.7476734,2,TRUE,11,A,2023-09-08_08h47.46.613,exp3,2022.2.2
,,,,,,,,,,,,,,,,,,,,,,,159,-557,Invalid,signal,0,2,2646.168416,0,4,5.3966961,1,TRUE,11,A,2023-09-08_08h47.46.613,exp3,2022.2.2
,,,,,,,,,,,,,,,,,,,,,,,160,1158,Valid,noise,0,1,2656.393321,0,2,7.3143185,1,TRUE,11,A,2023-09-08_08h47.46.613,exp3,2022.2.2
,,,,,,,,,,,,,,,,,,,,,,,161,-2274,Valid,signal,0,2,2663.528416,0,4,4.84755,2,TRUE,11,A,2023-09-08_08h47.46.613,exp3,2022.2.2
,,,,,,,,,,,,,,,,,,,,,,,162,557,Invalid,noise,0,1,2669.144645,0,3,5.429788,1,TRUE,11,A,2023-09-08_08h47.46.613,exp3,2022.2.2
,,,,,,,,,,,,,,,,,,,,,,,163,557,Valid,noise,0,1,2673.625529,0,3,2.2630086,1,TRUE,11,A,2023-09-08_08h47.46.613,exp3,2022.2.2
,,,,,,,,,,,,,,,,,,,,,,,164,1716,Valid,signal,0,2,2676.441607,0,4,4.1296837,1,TRUE,11,A,2023-09-08_08h47.46.613,exp3,2022.2.2
,,,,,,,,,,,,,,,,,,,,,,,165,557,Valid,noise,0,1,2684.089349,0,4,4.7806372,2,TRUE,11,A,2023-09-08_08h47.46.613,exp3,2022.2.2
,,,,,,,,,,,,,,,,,,,,,,,166,557,Valid,signal,0,2,2687.768597,0,4,2.646177,1,TRUE,11,A,2023-09-08_08h47.46.613,exp3,2022.2.2
,,,,,,,,,,,,,,,,,,,,,,,167,-2274,Valid,signal,0,1,2691.160692,1,1,3.7803053,1,TRUE,11,A,2023-09-08_08h47.46.613,exp3,2022.2.2
,,,,,,,,,,,,,,,,,,,,,,,168,557,Valid,noise,0,1,2696.985024,0,3,3.6457887,1,TRUE,11,A,2023-09-08_08h47.46.613,exp3,2022.2.2
,,,,,,,,,,,,,,,,,,,,,,,169,557,Valid,noise,0,1,2700.840633,0,2,2.7128802,1,TRUE,11,A,2023-09-08_08h47.46.613,exp3,2022.2.2
,,,,,,,,,,,,,,,,,,,,,,,170,1716,Valid,noise,0,1,2704.536159,0,2,2.4628339,1,TRUE,11,A,2023-09-08_08h47.46.613,exp3,2022.2.2
,,,,,,,,,,,,,,,,,,,,,,,171,1716,Invalid,noise,0,1,2707.721171,0,2,2.0124625,1,TRUE,11,A,2023-09-08_08h47.46.613,exp3,2022.2.2
,,,,,,,,,,,,,,,,,,,,,,,172,2274,Valid,noise,0,1,2710.953485,0,2,2.1628208,1,TRUE,11,A,2023-09-08_08h47.46.613,exp3,2022.2.2
,,,,,,,,,,,,,,,,,,,,,,,173,-1716,Valid,noise,0,1,2713.92861,0,2,2.0120588,1,TRUE,11,A,2023-09-08_08h47.46.613,exp3,2022.2.2
,,,,,,,,,,,,,,,,,,,,,,,174,-1158,Valid,signal,0,1,2716.808622,1,1,2.6127498,1,TRUE,11,A,2023-09-08_08h47.46.613,exp3,2022.2.2
,,,,,,,,,,,,,,,,,,,,,,,175,1158,Valid,signal,0,2,2720.600685,0,4,3.0635225,1,TRUE,11,A,2023-09-08_08h47.46.613,exp3,2022.2.2
,,,,,,,,,,,,,,,,,,,,,,,176,2274,Valid,signal,0,2,2724.984905,0,4,2.3788819,1,TRUE,11,A,2023-09-08_08h47.46.613,exp3,2022.2.2
,,,,,,,,,,,,,,,,,,,,,,,2,557,Valid,signal,0,2,2895.736528,0,4,6.7484259,2,TRUE,11,A,2023-09-08_08h47.46.613,exp3,2022.2.2
,,,,,,,,,,,,,,,,,,,,,,,4,-557,Valid,signal,0,2,2899.945098,0,4,1.945466,1,TRUE,11,A,2023-09-08_08h47.46.613,exp3,2022.2.2
,,,,,,,,,,,,,,,,,,,,,,,6,-2274,Valid,noise,0,1,2904.169481,0,3,3.5127378,1,TRUE,11,A,2023-09-08_08h47.46.613,exp3,2022.2.2
,,,,,,,,,,,,,,,,,,,,,,,8,-1716,Valid,noise,0,1,2907.864681,0,3,2.6128798,1,TRUE,11,A,2023-09-08_08h47.46.613,exp3,2022.2.2
,,,,,,,,,,,,,,,,,,,,,,,10,-557,Valid,noise,0,1,2911.256842,0,3,2.2789671,1,TRUE,11,A,2023-09-08_08h47.46.613,exp3,2022.2.2
,,,,,,,,,,,,,,,,,,,,,,,12,1158,Valid,noise,0,1,2914.777481,0,4,4.0468381,1,TRUE,11,A,2023-09-08_08h47.46.613,exp3,2022.2.2
,,,,,,,,,,,,,,,,,,,,,,,14,-1158,Invalid,signal,0,2,2919.688762,0,4,2.4457878,1,TRUE,11,A,2023-09-08_08h47.46.613,exp3,2022.2.2
,,,,,,,,,,,,,,,,,,,,,,,16,-1716,Valid,signal,0,2,2924.92074,0,4,4.2974582,2,TRUE,11,A,2023-09-08_08h47.46.613,exp3,2022.2.2
,,,,,,,,,,,,,,,,,,,,,,,18,-1158,Invalid,signal,0,2,2928.313269,0,4,2.4457696,1,TRUE,11,A,2023-09-08_08h47.46.613,exp3,2022.2.2
,,,,,,,,,,,,,,,,,,,,,,,20,-1158,Valid,noise,0,1,2933.62508,0,3,4.313318,2,TRUE,11,A,2023-09-08_08h47.46.613,exp3,2022.2.2
,,,,,,,,,,,,,,,,,,,,,,,22,1716,Invalid,noise,0,1,2937.160979,0,3,2.612846,1,TRUE,11,A,2023-09-08_08h47.46.613,exp3,2022.2.2
,,,,,,,,,,,,,,,,,,,,,,,24,-557,Invalid,signal,0,2,2940.616349,0,4,2.4297678,1,TRUE,11,A,2023-09-08_08h47.46.613,exp3,2022.2.2
,,,,,,,,,,,,,,,,,,,,,,,26,-2274,Valid,signal,0,2,2944.073119,0,4,2.0452836,1,TRUE,11,A,2023-09-08_08h47.46.613,exp3,2022.2.2
,,,,,,,,,,,,,,,,,,,,,,,28,-1158,Valid,signal,0,2,2947.064185,0,4,1.9959549,1,TRUE,11,A,2023-09-08_08h47.46.613,exp3,2022.2.2
,,,,,,,,,,,,,,,,,,,,,,,30,2274,Invalid,signal,0,2,2950.361282,0,4,4.0803089,1,TRUE,11,A,2023-09-08_08h47.46.613,exp3,2022.2.2
,,,,,,,,,,,,,,,,,,,,,,,32,-1716,Invalid,signal,0,2,2955.369149,0,4,2.2292244,1,TRUE,11,A,2023-09-08_08h47.46.613,exp3,2022.2.2
,,,,,,,,,,,,,,,,,,,,,,,34,2274,Valid,signal,0,2,2960.121115,0,4,4.0466573,2,TRUE,11,A,2023-09-08_08h47.46.613,exp3,2022.2.2
,,,,,,,,,,,,,,,,,,,,,,,36,-2274,Valid,signal,0,2,2963.656194,0,4,2.6960379,1,TRUE,11,A,2023-09-08_08h47.46.613,exp3,2022.2.2
,,,,,,,,,,,,,,,,,,,,,,,38,-2274,Valid,signal,0,2,2967.624336,0,4,2.8797608,1,TRUE,11,A,2023-09-08_08h47.46.613,exp3,2022.2.2
,,,,,,,,,,,,,,,,,,,,,,,40,-557,Valid,noise,0,1,2971.368053,0,3,3.1795624,1,TRUE,11,A,2023-09-08_08h47.46.613,exp3,2022.2.2
,,,,,,,,,,,,,,,,,,,,,,,42,-2274,Valid,noise,0,1,2975.432686,0,3,2.2460634,1,TRUE,11,A,2023-09-08_08h47.46.613,exp3,2022.2.2
,,,,,,,,,,,,,,,,,,,,,,,44,-1716,Valid,signal,0,2,2978.47244,0,4,2.2126328,1,TRUE,11,A,2023-09-08_08h47.46.613,exp3,2022.2.2
,,,,,,,,,,,,,,,,,,,,,,,46,2274,Valid,noise,0,2,2984.376543,1,2,5.147916,1,TRUE,11,A,2023-09-08_08h47.46.613,exp3,2022.2.2
,,,,,,,,,,,,,,,,,,,,,,,48,2274,Valid,noise,0,1,2987.849219,0,2,2.111696,1,TRUE,11,A,2023-09-08_08h47.46.613,exp3,2022.2.2
,,,,,,,,,,,,,,,,,,,,,,,50,-557,Invalid,noise,0,1,2991.208206,0,2,2.3796085,1,TRUE,11,A,2023-09-08_08h47.46.613,exp3,2022.2.2
,,,,,,,,,,,,,,,,,,,,,,,52,557,Valid,signal,0,2,2994.472631,0,4,2.7793532,1,TRUE,11,A,2023-09-08_08h47.46.613,exp3,2022.2.2
,,,,,,,,,,,,,,,,,,,,,,,54,-2274,Invalid,noise,0,1,2998.42521,0,3,2.7299211,1,TRUE,11,A,2023-09-08_08h47.46.613,exp3,2022.2.2
,,,,,,,,,,,,,,,,,,,,,,,56,-1158,Valid,noise,0,1,3002.072682,0,3,2.2786868,1,TRUE,11,A,2023-09-08_08h47.46.613,exp3,2022.2.2
,,,,,,,,,,,,,,,,,,,,,,,58,-557,Valid,noise,0,1,3005.448485,0,3,2.4127712,1,TRUE,11,A,2023-09-08_08h47.46.613,exp3,2022.2.2
,,,,,,,,,,,,,,,,,,,,,,,60,1158,Valid,signal,0,2,3008.712046,0,4,2.4126785,1,TRUE,11,A,2023-09-08_08h47.46.613,exp3,2022.2.2
,,,,,,,,,,,,,,,,,,,,,,,62,-2274,Valid,signal,0,2,3012.088647,0,4,2.1460786,1,TRUE,11,A,2023-09-08_08h47.46.613,exp3,2022.2.2
,,,,,,,,,,,,,,,,,,,,,,,64,-2274,Invalid,signal,0,2,3015.35282,0,4,2.2122621,1,TRUE,11,A,2023-09-08_08h47.46.613,exp3,2022.2.2
,,,,,,,,,,,,,,,,,,,,,,,66,1158,Valid,noise,0,2,3018.952192,1,1,8.6151694,1,TRUE,11,A,2023-09-08_08h47.46.613,exp3,2022.2.2
,,,,,,,,,,,,,,,,,,,,,,,68,-1716,Valid,noise,0,1,3028.201331,0,1,2.3124658,1,TRUE,11,A,2023-09-08_08h47.46.613,exp3,2022.2.2
,,,,,,,,,,,,,,,,,,,,,,,70,1158,Invalid,signal,0,2,3031.560203,0,4,2.9795982,1,TRUE,11,A,2023-09-08_08h47.46.613,exp3,2022.2.2
,,,,,,,,,,,,,,,,,,,,,,,72,2274,Valid,signal,0,2,3035.225375,0,4,1.8624482,1,TRUE,11,A,2023-09-08_08h47.46.613,exp3,2022.2.2
,,,,,,,,,,,,,,,,,,,,,,,74,-1716,Valid,noise,0,1,3038.265355,0,3,2.328551,1,TRUE,11,A,2023-09-08_08h47.46.613,exp3,2022.2.2
,,,,,,,,,,,,,,,,,,,,,,,76,-557,Valid,noise,0,1,3041.576119,0,3,2.2133064,1,TRUE,11,A,2023-09-08_08h47.46.613,exp3,2022.2.2
,,,,,,,,,,,,,,,,,,,,,,,78,1716,Invalid,signal,0,2,3044.90426,0,4,2.6124777,1,TRUE,11,A,2023-09-08_08h47.46.613,exp3,2022.2.2
,,,,,,,,,,,,,,,,,,,,,,,80,-1158,Valid,noise,0,1,3048.504988,0,3,2.7962028,1,TRUE,11,A,2023-09-08_08h47.46.613,exp3,2022.2.2
,,,,,,,,,,,,,,,,,,,,,,,82,-1158,Valid,noise,0,2,3052.136037,1,2,2.9627072,1,TRUE,11,A,2023-09-08_08h47.46.613,exp3,2022.2.2
,,,,,,,,,,,,,,,,,,,,,,,84,557,Valid,noise,0,1,3057.160656,0,2,3.1970287,1,TRUE,11,A,2023-09-08_08h47.46.613,exp3,2022.2.2
,,,,,,,,,,,,,,,,,,,,,,,86,-557,Valid,signal,0,2,3060.488914,0,4,2.4621878,1,TRUE,11,A,2023-09-08_08h47.46.613,exp3,2022.2.2
,,,,,,,,,,,,,,,,,,,,,,,88,1716,Valid,noise,0,1,3063.944306,0,3,2.7955834,1,TRUE,11,A,2023-09-08_08h47.46.613,exp3,2022.2.2
,,,,,,,,,,,,,,,,,,,,,,,90,2274,Valid,noise,0,1,3067.608939,0,3,2.0628965,1,TRUE,11,A,2023-09-08_08h47.46.613,exp3,2022.2.2
,,,,,,,,,,,,,,,,,,,,,,,92,2274,Valid,noise,0,1,3070.713026,0,3,2.0795065,1,TRUE,11,A,2023-09-08_08h47.46.613,exp3,2022.2.2
,,,,,,,,,,,,,,,,,,,,,,,94,-1158,Valid,signal,0,2,3075.929055,0,4,4.7970325,1,TRUE,11,A,2023-09-08_08h47.46.613,exp3,2022.2.2
,,,,,,,,,,,,,,,,,,,,,,,96,-1716,Valid,noise,0,1,3079.880311,0,2,3.0125002,1,TRUE,11,A,2023-09-08_08h47.46.613,exp3,2022.2.2
,,,,,,,,,,,,,,,,,,,,,,,98,1158,Valid,noise,0,1,3083.640173,0,2,2.5461376,1,TRUE,11,A,2023-09-08_08h47.46.613,exp3,2022.2.2
,,,,,,,,,,,,,,,,,,,,,,,100,1158,Valid,signal,0,2,3087.51269,0,4,4.0298334,1,TRUE,11,A,2023-09-08_08h47.46.613,exp3,2022.2.2
,,,,,,,,,,,,,,,,,,,,,,,102,-1158,Invalid,noise,0,1,3097.305125,0,2,7.648569,4,TRUE,11,A,2023-09-08_08h47.46.613,exp3,2022.2.2
,,,,,,,,,,,,,,,,,,,,,,,104,2274,Invalid,signal,0,2,3101.112415,0,3,2.6954276,1,TRUE,11,A,2023-09-08_08h47.46.613,exp3,2022.2.2
,,,,,,,,,,,,,,,,,,,,,,,106,1716,Valid,signal,0,2,3104.80888,0,4,2.9965862,1,TRUE,11,A,2023-09-08_08h47.46.613,exp3,2022.2.2
,,,,,,,,,,,,,,,,,,,,,,,108,2274,Valid,noise,0,1,3108.584598,0,3,2.4125039,1,TRUE,11,A,2023-09-08_08h47.46.613,exp3,2022.2.2
,,,,,,,,,,,,,,,,,,,,,,,110,1716,Valid,noise,0,1,3111.992441,0,3,2.112522,1,TRUE,11,A,2023-09-08_08h47.46.613,exp3,2022.2.2
,,,,,,,,,,,,,,,,,,,,,,,112,-1158,Valid,noise,0,1,3115.224078,0,3,2.1626567,1,TRUE,11,A,2023-09-08_08h47.46.613,exp3,2022.2.2
,,,,,,,,,,,,,,,,,,,,,,,114,-2274,Valid,signal,0,1,3117.993042,1,3,1.9455714,1,TRUE,11,A,2023-09-08_08h47.46.613,exp3,2022.2.2
,,,,,,,,,,,,,,,,,,,,,,,116,557,Valid,signal,0,2,3120.984538,0,4,1.8459396,1,TRUE,11,A,2023-09-08_08h47.46.613,exp3,2022.2.2
,,,,,,,,,,,,,,,,,,,,,,,118,1158,Invalid,signal,0,2,3124.184822,0,4,2.2125581,1,TRUE,11,A,2023-09-08_08h47.46.613,exp3,2022.2.2
,,,,,,,,,,,,,,,,,,,,,,,120,-1716,Valid,signal,0,2,3127.04809,0,4,2.0625471,1,TRUE,11,A,2023-09-08_08h47.46.613,exp3,2022.2.2
,,,,,,,,,,,,,,,,,,,,,,,122,1158,Valid,signal,0,2,3130.08912,0,4,1.7289482,1,TRUE,11,A,2023-09-08_08h47.46.613,exp3,2022.2.2
,,,,,,,,,,,,,,,,,,,,,,,124,557,Valid,signal,0,2,3132.824591,0,4,1.8129218,1,TRUE,11,A,2023-09-08_08h47.46.613,exp3,2022.2.2
,,,,,,,,,,,,,,,,,,,,,,,126,2274,Valid,noise,0,1,3135.992979,0,3,2.6624508,1,TRUE,11,A,2023-09-08_08h47.46.613,exp3,2022.2.2
,,,,,,,,,,,,,,,,,,,,,,,128,-557,Invalid,signal,0,2,3139.416962,0,4,2.0297254,1,TRUE,11,A,2023-09-08_08h47.46.613,exp3,2022.2.2
,,,,,,,,,,,,,,,,,,,,,,,130,1158,Valid,noise,0,1,3142.649313,0,3,2.5793584,1,TRUE,11,A,2023-09-08_08h47.46.613,exp3,2022.2.2
,,,,,,,,,,,,,,,,,,,,,,,132,-557,Valid,noise,0,1,3146.585236,0,2,2.9790631,1,TRUE,11,A,2023-09-08_08h47.46.613,exp3,2022.2.2
,,,,,,,,,,,,,,,,,,,,,,,134,-1158,Invalid,noise,0,1,3150.472415,0,2,4.246772,1,TRUE,11,A,2023-09-08_08h47.46.613,exp3,2022.2.2
,,,,,,,,,,,,,,,,,,,,,,,136,-557,Valid,signal,0,2,3155.608666,0,4,2.5963499,1,TRUE,11,A,2023-09-08_08h47.46.613,exp3,2022.2.2
,,,,,,,,,,,,,,,,,,,,,,,138,557,Invalid,noise,0,1,3159.145147,0,4,2.145342,1,TRUE,11,A,2023-09-08_08h47.46.613,exp3,2022.2.2
,,,,,,,,,,,,,,,,,,,,,,,140,557,Valid,noise,0,1,3162.4732,0,2,2.3798463,1,TRUE,11,A,2023-09-08_08h47.46.613,exp3,2022.2.2
,,,,,,,,,,,,,,,,,,,,,,,142,-1158,Valid,noise,0,1,3165.656211,0,2,2.5290358,1,TRUE,11,A,2023-09-08_08h47.46.613,exp3,2022.2.2
,,,,,,,,,,,,,,,,,,,,,,,144,-1158,Valid,signal,0,2,3169.160102,0,4,2.7465086,1,TRUE,11,A,2023-09-08_08h47.46.613,exp3,2022.2.2
,,,,,,,,,,,,,,,,,,,,,,,146,557,Valid,signal,0,2,3172.616989,0,4,1.8291266,1,TRUE,11,A,2023-09-08_08h47.46.613,exp3,2022.2.2
,,,,,,,,,,,,,,,,,,,,,,,148,557,Valid,noise,0,1,3176.039979,0,3,2.9129196,1,TRUE,11,A,2023-09-08_08h47.46.613,exp3,2022.2.2
,,,,,,,,,,,,,,,,,,,,,,,150,1158,Valid,signal,0,2,3179.865132,0,4,2.1954438,1,TRUE,11,A,2023-09-08_08h47.46.613,exp3,2022.2.2
,,,,,,,,,,,,,,,,,,,,,,,152,2274,Valid,noise,0,1,3188.136357,0,3,7.8480221,4,TRUE,11,A,2023-09-08_08h47.46.613,exp3,2022.2.2
,,,,,,,,,,,,,,,,,,,,,,,154,557,Valid,noise,0,1,3191.448203,0,3,2.1963073,1,TRUE,11,A,2023-09-08_08h47.46.613,exp3,2022.2.2
,,,,,,,,,,,,,,,,,,,,,,,156,1716,Invalid,signal,0,2,3194.728059,0,4,2.4121404,1,TRUE,11,A,2023-09-08_08h47.46.613,exp3,2022.2.2
,,,,,,,,,,,,,,,,,,,,,,,158,-2274,Valid,noise,0,2,3198.456211,1,4,2.51282,1,TRUE,11,A,2023-09-08_08h47.46.613,exp3,2022.2.2
,,,,,,,,,,,,,,,,,,,,,,,160,-2274,Invalid,noise,0,1,3203.785225,0,1,5.6639774,1,TRUE,11,A,2023-09-08_08h47.46.613,exp3,2022.2.2
,,,,,,,,,,,,,,,,,,,,,,,162,2274,Valid,signal,0,2,3208.408119,0,4,2.662872,1,TRUE,11,A,2023-09-08_08h47.46.613,exp3,2022.2.2
,,,,,,,,,,,,,,,,,,,,,,,164,1158,Valid,signal,0,2,3212.008001,0,4,1.8622822,1,TRUE,11,A,2023-09-08_08h47.46.613,exp3,2022.2.2
,,,,,,,,,,,,,,,,,,,,,,,166,1716,Invalid,noise,0,1,3215.063896,0,3,2.380072,1,TRUE,11,A,2023-09-08_08h47.46.613,exp3,2022.2.2
,,,,,,,,,,,,,,,,,,,,,,,168,557,Valid,noise,0,1,3218.408499,0,3,1.9954989,1,TRUE,11,A,2023-09-08_08h47.46.613,exp3,2022.2.2
,,,,,,,,,,,,,,,,,,,,,,,170,1716,Valid,signal,0,2,3221.304968,0,4,2.4125033,1,TRUE,11,A,2023-09-08_08h47.46.613,exp3,2022.2.2
,,,,,,,,,,,,,,,,,,,,,,,172,1158,Valid,signal,0,2,3224.569353,0,4,1.7455813,1,TRUE,11,A,2023-09-08_08h47.46.613,exp3,2022.2.2
,,,,,,,,,,,,,,,,,,,,,,,174,-1158,Valid,signal,0,2,3227.560325,0,4,2.0964146,1,TRUE,11,A,2023-09-08_08h47.46.613,exp3,2022.2.2
,,,,,,,,,,,,,,,,,,,,,,,176,2274,Valid,signal,0,2,3230.68005,0,4,2.0122772,1,TRUE,11,A,2023-09-08_08h47.46.613,exp3,2022.2.2
,,,,,,,,,,,,,,,,,,,,,,,178,-1716,Valid,signal,0,2,3233.497146,0,4,2.0124652,1,TRUE,11,A,2023-09-08_08h47.46.613,exp3,2022.2.2
,,,,,,,,,,,,,,,,,,,,,,,180,-1158,Valid,noise,0,1,3236.809057,0,3,2.329515,1,TRUE,11,A,2023-09-08_08h47.46.613,exp3,2022.2.2
,,,,,,,,,,,,,,,,,,,,,,,182,-1716,Invalid,signal,0,2,3239.849122,0,4,2.5961064,1,TRUE,11,A,2023-09-08_08h47.46.613,exp3,2022.2.2
,,,,,,,,,,,,,,,,,,,,,,,184,2274,Invalid,noise,0,1,3243.480972,0,4,1.7790683,1,TRUE,11,A,2023-09-08_08h47.46.613,exp3,2022.2.2
,,,,,,,,,,,,,,,,,,,,,,,186,-1716,Valid,noise,0,1,3246.648264,0,3,2.6454298,1,TRUE,11,A,2023-09-08_08h47.46.613,exp3,2022.2.2
,,,,,,,,,,,,,,,,,,,,,,,188,1158,Valid,signal,0,2,3249.960671,0,4,2.3626654,1,TRUE,11,A,2023-09-08_08h47.46.613,exp3,2022.2.2
,,,,,,,,,,,,,,,,,,,,,,,190,2274,Valid,signal,0,2,3253.513139,0,4,2.1967928,1,TRUE,11,A,2023-09-08_08h47.46.613,exp3,2022.2.2
,,,,,,,,,,,,,,,,,,,,,,,192,2274,Valid,signal,0,2,3257.064346,0,4,2.745405,1,TRUE,11,A,2023-09-08_08h47.46.613,exp3,2022.2.2
,,,,,,,,,,,,,,,,,,,,,,,194,-2274,Invalid,signal,0,2,3260.281214,0,4,1.8959143,1,TRUE,11,A,2023-09-08_08h47.46.613,exp3,2022.2.2
,,,,,,,,,,,,,,,,,,,,,,,196,1158,Valid,signal,0,2,3263.400513,0,4,11.3494247,1,TRUE,11,A,2023-09-08_08h47.46.613,exp3,2022.2.2
,,,,,,,,,,,,,,,,,,,,,,,198,-1158,Valid,signal,0,2,3275.400004,0,4,1.7290202,1,TRUE,11,A,2023-09-08_08h47.46.613,exp3,2022.2.2
,,,,,,,,,,,,,,,,,,,,,,,200,-557,Valid,signal,0,2,3278.07231,0,4,1.596032,1,TRUE,11,A,2023-09-08_08h47.46.613,exp3,2022.2.2
,,,,,,,,,,,,,,,,,,,,,,,202,1158,Valid,signal,0,2,3281.752867,0,4,3.3458417,1,TRUE,11,A,2023-09-08_08h47.46.613,exp3,2022.2.2
,,,,,,,,,,,,,,,,,,,,,,,204,1716,Valid,signal,0,2,3285.064114,0,4,2.0628064,1,TRUE,11,A,2023-09-08_08h47.46.613,exp3,2022.2.2
,,,,,,,,,,,,,,,,,,,,,,,206,557,Invalid,signal,0,2,3288.487945,0,4,2.1799394,1,TRUE,11,A,2023-09-08_08h47.46.613,exp3,2022.2.2
,,,,,,,,,,,,,,,,,,,,,,,208,-2274,Valid,noise,0,2,3291.496647,1,4,1.9119399,1,TRUE,11,A,2023-09-08_08h47.46.613,exp3,2022.2.2
,,,,,,,,,,,,,,,,,,,,,,,210,-2274,Valid,signal,0,2,3294.888777,0,4,2.5461415,1,TRUE,11,A,2023-09-08_08h47.46.613,exp3,2022.2.2
,,,,,,,,,,,,,,,,,,,,,,,212,1158,Valid,noise,0,1,3298.040973,0,3,2.0128562,1,TRUE,11,A,2023-09-08_08h47.46.613,exp3,2022.2.2
,,,,,,,,,,,,,,,,,,,,,,,214,-1716,Invalid,noise,0,1,3301.127905,0,3,2.0455759,1,TRUE,11,A,2023-09-08_08h47.46.613,exp3,2022.2.2
,,,,,,,,,,,,,,,,,,,,,,,216,1716,Valid,signal,0,2,3303.992211,0,4,2.7293958,1,TRUE,11,A,2023-09-08_08h47.46.613,exp3,2022.2.2
,,,,,,,,,,,,,,,,,,,,,,,218,1716,Valid,noise,0,1,3308.072565,0,3,2.3126765,1,TRUE,11,A,2023-09-08_08h47.46.613,exp3,2022.2.2
,,,,,,,,,,,,,,,,,,,,,,,220,557,Invalid,noise,0,1,3311.912539,0,2,3.1792306,1,TRUE,11,A,2023-09-08_08h47.46.613,exp3,2022.2.2
,,,,,,,,,,,,,,,,,,,,,,,222,-557,Valid,signal,0,2,3315.384727,0,4,2.3623885,1,TRUE,11,A,2023-09-08_08h47.46.613,exp3,2022.2.2
,,,,,,,,,,,,,,,,,,,,,,,224,1716,Valid,noise,0,2,3318.856603,1,1,2.6131069,1,TRUE,11,A,2023-09-08_08h47.46.613,exp3,2022.2.2
,,,,,,,,,,,,,,,,,,,,,,,226,-2274,Valid,signal,0,2,3322.616371,0,4,2.662814,1,TRUE,11,A,2023-09-08_08h47.46.613,exp3,2022.2.2
,,,,,,,,,,,,,,,,,,,,,,,228,1716,Valid,noise,0,2,3326.136515,1,2,2.512551,1,TRUE,11,A,2023-09-08_08h47.46.613,exp3,2022.2.2
,,,,,,,,,,,,,,,,,,,,,,,230,557,Valid,signal,0,2,3329.480484,0,4,2.1628313,1,TRUE,11,A,2023-09-08_08h47.46.613,exp3,2022.2.2
,,,,,,,,,,,,,,,,,,,,,,,232,1158,Valid,noise,0,1,3332.74387,0,3,2.0452254,1,TRUE,11,A,2023-09-08_08h47.46.613,exp3,2022.2.2
,,,,,,,,,,,,,,,,,,,,,,,234,557,Valid,noise,0,1,3335.912488,0,3,2.3460115,1,TRUE,11,A,2023-09-08_08h47.46.613,exp3,2022.2.2
,,,,,,,,,,,,,,,,,,,,,,,236,-1716,Valid,signal,0,2,3339.255948,0,4,2.3126183,1,TRUE,11,A,2023-09-08_08h47.46.613,exp3,2022.2.2
,,,,,,,,,,,,,,,,,,,,,,,238,1716,Valid,signal,0,2,3342.232653,0,4,1.7958171,1,TRUE,11,A,2023-09-08_08h47.46.613,exp3,2022.2.2
,,,,,,,,,,,,,,,,,,,,,,,240,1716,Valid,noise,0,2,3345.000809,1,4,1.8955847,1,TRUE,11,A,2023-09-08_08h47.46.613,exp3,2022.2.2
,,,,,,,,,,,,,,,,,,,,,,,242,-1716,Valid,signal,0,2,3348.057197,0,4,2.1290423,1,TRUE,11,A,2023-09-08_08h47.46.613,exp3,2022.2.2
,,,,,,,,,,,,,,,,,,,,,,,244,1158,Valid,noise,0,1,3351.368255,0,2,2.6467279,1,TRUE,11,A,2023-09-08_08h47.46.613,exp3,2022.2.2
,,,,,,,,,,,,,,,,,,,,,,,246,557,Valid,noise,0,1,3354.952248,0,3,2.1623414,1,TRUE,11,A,2023-09-08_08h47.46.613,exp3,2022.2.2
,,,,,,,,,,,,,,,,,,,,,,,248,-1158,Valid,signal,0,2,3358.728574,0,4,2.7624503,1,TRUE,11,A,2023-09-08_08h47.46.613,exp3,2022.2.2
,,,,,,,,,,,,,,,,,,,,,,,250,-1158,Valid,signal,0,2,3362.903994,0,4,3.5129043,1,TRUE,11,A,2023-09-08_08h47.46.613,exp3,2022.2.2
,,,,,,,,,,,,,,,,,,,,,,,252,-1158,Valid,signal,0,2,3366.104,0,4,1.7627608,1,TRUE,11,A,2023-09-08_08h47.46.613,exp3,2022.2.2
,,,,,,,,,,,,,,,,,,,,,,,254,-557,Invalid,noise,0,1,3369.321221,0,2,2.7456689,1,TRUE,11,A,2023-09-08_08h47.46.613,exp3,2022.2.2
,,,,,,,,,,,,,,,,,,,,,,,256,-557,Valid,signal,0,2,3372.840772,0,4,2.1627648,1,TRUE,11,A,2023-09-08_08h47.46.613,exp3,2022.2.2
,,,,,,,,,,,,,,,,,,,,,,,258,-1716,Valid,noise,0,1,3376.440264,0,2,3.2797299,1,TRUE,11,A,2023-09-08_08h47.46.613,exp3,2022.2.2
,,,,,,,,,,,,,,,,,,,,,,,260,-2274,Valid,noise,0,1,3381.464723,0,3,3.4798355,1,TRUE,11,A,2023-09-08_08h47.46.613,exp3,2022.2.2
,,,,,,,,,,,,,,,,,,,,,,,262,-1716,Valid,noise,0,2,3386.375957,1,3,3.9298703,1,TRUE,11,A,2023-09-08_08h47.46.613,exp3,2022.2.2
,,,,,,,,,,,,,,,,,,,,,,,264,557,Valid,signal,0,2,3389.848606,0,4,2.4294667,1,TRUE,11,A,2023-09-08_08h47.46.613,exp3,2022.2.2
,,,,,,,,,,,,,,,,,,,,,,,266,-557,Valid,noise,0,1,3393.304063,0,3,2.3126162,1,TRUE,11,A,2023-09-08_08h47.46.613,exp3,2022.2.2
,,,,,,,,,,,,,,,,,,,,,,,268,2274,Valid,signal,0,2,3396.456668,0,4,2.2124231,1,TRUE,11,A,2023-09-08_08h47.46.613,exp3,2022.2.2
,,,,,,,,,,,,,,,,,,,,,,,270,-1716,Valid,signal,0,2,3401.60789,0,4,4.2463474,2,TRUE,11,A,2023-09-08_08h47.46.613,exp3,2022.2.2
,,,,,,,,,,,,,,,,,,,,,,,272,-557,Valid,signal,0,2,3407.54392,0,4,4.9133757,2,TRUE,11,A,2023-09-08_08h47.46.613,exp3,2022.2.2
,,,,,,,,,,,,,,,,,,,,,,,274,557,Valid,noise,0,1,3411.897214,0,2,3.3464798,1,TRUE,11,A,2023-09-08_08h47.46.613,exp3,2022.2.2
,,,,,,,,,,,,,,,,,,,,,,,276,1158,Invalid,noise,0,1,3415.481184,0,2,2.5799035,1,TRUE,11,A,2023-09-08_08h47.46.613,exp3,2022.2.2
,,,,,,,,,,,,,,,,,,,,,,,278,2274,Valid,noise,0,1,3418.90525,0,2,2.1455733,1,TRUE,11,A,2023-09-08_08h47.46.613,exp3,2022.2.2
,,,,,,,,,,,,,,,,,,,,,,,280,-557,Valid,signal,0,2,3422.073102,0,4,3.0628272,1,TRUE,11,A,2023-09-08_08h47.46.613,exp3,2022.2.2
,,,,,,,,,,,,,,,,,,,,,,,282,-557,Valid,noise,0,1,3426.376693,0,4,2.7795828,1,TRUE,11,A,2023-09-08_08h47.46.613,exp3,2022.2.2
,,,,,,,,,,,,,,,,,,,,,,,284,557,Valid,signal,0,2,3429.896634,0,4,2.062439,1,TRUE,11,A,2023-09-08_08h47.46.613,exp3,2022.2.2
,,,,,,,,,,,,,,,,,,,,,,,286,1716,Valid,signal,0,2,3434.568869,0,4,3.7631967,2,TRUE,11,A,2023-09-08_08h47.46.613,exp3,2022.2.2
,,,,,,,,,,,,,,,,,,,,,,,288,-557,Valid,noise,0,1,3438.279781,0,2,2.7962603,1,TRUE,11,A,2023-09-08_08h47.46.613,exp3,2022.2.2
,,,,,,,,,,,,,,,,,,,,,,,290,-1716,Invalid,noise,0,2,3442.504592,1,2,3.5798052,1,TRUE,11,A,2023-09-08_08h47.46.613,exp3,2022.2.2
,,,,,,,,,,,,,,,,,,,,,,,292,557,Invalid,signal,0,2,3446.08902,0,4,2.8457328,1,TRUE,11,A,2023-09-08_08h47.46.613,exp3,2022.2.2
,,,,,,,,,,,,,,,,,,,,,,,294,-1158,Valid,signal,0,2,3449.640584,0,4,1.8291629,1,TRUE,11,A,2023-09-08_08h47.46.613,exp3,2022.2.2
,,,,,,,,,,,,,,,,,,,,,,,296,-2274,Valid,signal,0,2,3452.775877,0,4,2.0792347,1,TRUE,11,A,2023-09-08_08h47.46.613,exp3,2022.2.2
,,,,,,,,,,,,,,,,,,,,,,,298,1716,Valid,signal,0,2,3455.768068,0,4,1.8788631,1,TRUE,11,A,2023-09-08_08h47.46.613,exp3,2022.2.2
,,,,,,,,,,,,,,,,,,,,,,,300,2274,Valid,signal,0,2,3458.439827,0,4,1.6457419,1,TRUE,11,A,2023-09-08_08h47.46.613,exp3,2022.2.2
,,,,,,,,,,,,,,,,,,,,,,,302,-2274,Valid,noise,0,1,3461.703938,0,3,2.4961411,1,TRUE,11,A,2023-09-08_08h47.46.613,exp3,2022.2.2
,,,,,,,,,,,,,,,,,,,,,,,304,1158,Invalid,noise,0,1,3465.095797,0,2,2.5126793,1,TRUE,11,A,2023-09-08_08h47.46.613,exp3,2022.2.2
,,,,,,,,,,,,,,,,,,,,,,,306,-2274,Valid,signal,0,1,3468.36078,1,1,2.878921,1,TRUE,11,A,2023-09-08_08h47.46.613,exp3,2022.2.2
,,,,,,,,,,,,,,,,,,,,,,,308,-2274,Valid,noise,0,1,3472.727785,0,2,3.1631991,1,TRUE,11,A,2023-09-08_08h47.46.613,exp3,2022.2.2
,,,,,,,,,,,,,,,,,,,,,,,310,2274,Valid,noise,0,1,3476.600685,0,2,2.3792213,1,TRUE,11,A,2023-09-08_08h47.46.613,exp3,2022.2.2
,,,,,,,,,,,,,,,,,,,,,,,312,557,Valid,noise,0,1,3480.040333,0,3,4.6301811,1,TRUE,11,A,2023-09-08_08h47.46.613,exp3,2022.2.2
,,,,,,,,,,,,,,,,,,,,,,,314,-2274,Valid,noise,0,1,3486.199967,0,1,3.1800861,1,TRUE,11,A,2023-09-08_08h47.46.613,exp3,2022.2.2
,,,,,,,,,,,,,,,,,,,,,,,316,1716,Valid,noise,0,1,3489.81663,0,1,2.2788571,1,TRUE,11,A,2023-09-08_08h47.46.613,exp3,2022.2.2
,,,,,,,,,,,,,,,,,,,,,,,318,-1716,Valid,signal,0,2,3493.111972,0,4,2.962455,1,TRUE,11,A,2023-09-08_08h47.46.613,exp3,2022.2.2
,,,,,,,,,,,,,,,,,,,,,,,320,-1158,Valid,noise,0,1,3496.952461,0,3,2.3461727,1,TRUE,11,A,2023-09-08_08h47.46.613,exp3,2022.2.2
,,,,,,,,,,,,,,,,,,,,,,,322,-1716,Valid,signal,0,2,3500.504873,0,4,3.4635606,1,TRUE,11,A,2023-09-08_08h47.46.613,exp3,2022.2.2
,,,,,,,,,,,,,,,,,,,,,,,324,1716,Valid,noise,0,1,3504.903803,0,2,2.5120318,1,TRUE,11,A,2023-09-08_08h47.46.613,exp3,2022.2.2
,,,,,,,,,,,,,,,,,,,,,,,326,-2274,Valid,noise,0,1,3508.312934,0,2,2.1962218,1,TRUE,11,A,2023-09-08_08h47.46.613,exp3,2022.2.2
,,,,,,,,,,,,,,,,,,,,,,,328,2274,Valid,signal,0,2,3511.544894,0,4,2.5125567,1,TRUE,11,A,2023-09-08_08h47.46.613,exp3,2022.2.2
,,,,,,,,,,,,,,,,,,,,,,,330,-1716,Valid,noise,0,1,3515.144818,0,3,2.5297639,1,TRUE,11,A,2023-09-08_08h47.46.613,exp3,2022.2.2
,,,,,,,,,,,,,,,,,,,,,,,332,-557,Valid,signal,0,2,3518.759785,0,4,2.745763,1,TRUE,11,A,2023-09-08_08h47.46.613,exp3,2022.2.2
,,,,,,,,,,,,,,,,,,,,,,,334,-1716,Valid,noise,0,1,3522.680673,0,3,2.8463057,1,TRUE,11,A,2023-09-08_08h47.46.613,exp3,2022.2.2
,,,,,,,,,,,,,,,,,,,,,,,336,1716,Valid,signal,0,2,3526.120348,0,4,2.3798057,1,TRUE,11,A,2023-09-08_08h47.46.613,exp3,2022.2.2
,,,,,,,,,,,,,,,,,,,,,,,338,-1158,Valid,noise,0,1,3529.720878,0,3,2.5287488,1,TRUE,11,A,2023-09-08_08h47.46.613,exp3,2022.2.2
,,,,,,,,,,,,,,,,,,,,,,,340,557,Valid,signal,0,2,3537.560472,0,4,7.2645508,4,TRUE,11,A,2023-09-08_08h47.46.613,exp3,2022.2.2
,,,,,,,,,,,,,,,,,,,,,,,342,1158,Valid,noise,0,1,3541.272468,0,2,2.129822,1,TRUE,11,A,2023-09-08_08h47.46.613,exp3,2022.2.2
,,,,,,,,,,,,,,,,,,,,,,,344,1158,Valid,noise,0,2,3544.280555,1,2,2.2616903,1,TRUE,11,A,2023-09-08_08h47.46.613,exp3,2022.2.2
,,,,,,,,,,,,,,,,,,,,,,,346,1716,Valid,noise,0,1,3547.528573,0,2,2.0291323,1,TRUE,11,A,2023-09-08_08h47.46.613,exp3,2022.2.2
,,,,,,,,,,,,,,,,,,,,,,,348,-557,Valid,noise,0,1,3550.696042,0,2,1.9793966,1,TRUE,11,A,2023-09-08_08h47.46.613,exp3,2022.2.2
,,,,,,,,,,,,,,,,,,,,,,,350,1716,Valid,signal,0,2,3553.705057,0,4,2.6967541,1,TRUE,11,A,2023-09-08_08h47.46.613,exp3,2022.2.2
