trials.label,trials.startVal,trials.maxVal,trials.minVal,trials.startValSd,trials.pthreshold,trials.beta,trials.delta,trials.gamma,trials.grain,trials.stepSize,trials.range,trials.cue,trials.thisIndex,trials.thisRepN,trials.thisN,trials.direction,trials.stepType,trials.intensity,signalOpacity,stair_response_correct,level,trials.response,stair_eye_ok,nTrial,position,validity,Stimulus,orientation,response_key,response_rt,response_correct,confidence,confidence_rt,eye_ok,trial_rep,participant,session,date,expName,psychopyVersion,
high_opac_v,0.01,1,0.01,3,0.82,3.5,0.01,0,0.01,4,5,Valid,1,1,0,start,lin,0.01,0,0,0.01,0,True,,,,,,,,,,,,,21,A,2023-09-16_12h13.58.976,exp3,2022.2.2,
low_opac_v,0.4,1,0.01,3,0.82,3.5,0.01,0,0.01,4,5,Valid,0,1,1,start,lin,0.4,0,0,0.4,0,True,,,,,,,,,,,,,21,A,2023-09-16_12h13.58.976,exp3,2022.2.2,
low_opac_i,0.4,1,0.01,3,0.82,3.5,0.01,0,0.01,4,5,Invalid,2,1,2,start,lin,0.4,0.4,0,0.4,0,True,,,,,,,,,,,,,21,A,2023-09-16_12h13.58.976,exp3,2022.2.2,
low_opac_v,0.4,1,0.01,3,0.82,3.5,0.01,0,0.01,4,5,Valid,0,2,3,start,lin,1,1,0,1,0,True,,,,,,,,,,,,,21,A,2023-09-16_12h13.58.976,exp3,2022.2.2,
high_opac_v,0.01,1,0.01,3,0.82,3.5,0.01,0,0.01,4,5,Valid,1,2,4,start,lin,1,1,1,1,1,True,,,,,,,,,,,,,21,A,2023-09-16_12h13.58.976,exp3,2022.2.2,
low_opac_i,0.4,1,0.01,3,0.82,3.5,0.01,0,0.01,4,5,Invalid,2,2,5,start,lin,1,1,1,1,1,True,,,,,,,,,,,,,21,A,2023-09-16_12h13.58.976,exp3,2022.2.2,
low_opac_i,0.4,1,0.01,3,0.82,3.5,0.01,0,0.01,4,5,Invalid,2,3,6,start,lin,0.8091950431803865,0.8091950431803865,1,0.8091950431803865,1,True,,,,,,,,,,,,,21,A,2023-09-16_12h13.58.976,exp3,2022.2.2,
low_opac_v,0.4,1,0.01,3,0.82,3.5,0.01,0,0.01,4,5,Valid,0,3,7,start,lin,1,0,0,1,0,True,,,,,,,,,,,,,21,A,2023-09-16_12h13.58.976,exp3,2022.2.2,
high_opac_v,0.01,1,0.01,3,0.82,3.5,0.01,0,0.01,4,5,Valid,1,3,8,start,lin,0.6092784667527542,0,1,0.6092784667527542,1,True,,,,,,,,,,,,,21,A,2023-09-16_12h13.58.976,exp3,2022.2.2,
low_opac_i,0.4,1,0.01,3,0.82,3.5,0.01,0,0.01,4,5,Invalid,2,4,9,start,lin,0.6973591848232542,0,0,0.6973591848232542,0,True,,,,,,,,,,,,,21,A,2023-09-16_12h13.58.976,exp3,2022.2.2,
high_opac_v,0.01,1,0.01,3,0.82,3.5,0.01,0,0.01,4,5,Valid,1,4,10,start,lin,0.41662067589367746,0,0,0.41662067589367746,0,True,,,,,,,,,,,,,21,A,2023-09-16_12h13.58.976,exp3,2022.2.2,
low_opac_v,0.4,1,0.01,3,0.82,3.5,0.01,0,0.01,4,5,Valid,0,4,11,start,lin,1,1,0,1,0,True,,,,,,,,,,,,,21,A,2023-09-16_12h13.58.976,exp3,2022.2.2,
low_opac_v,0.4,1,0.01,3,0.82,3.5,0.01,0,0.01,4,5,Valid,0,5,12,start,lin,1,1,1,1,1,True,,,,,,,,,,,,,21,A,2023-09-16_12h13.58.976,exp3,2022.2.2,
low_opac_i,0.4,1,0.01,3,0.82,3.5,0.01,0,0.01,4,5,Invalid,2,5,13,start,lin,0.8614513918880656,0,1,0.8614513918880656,1,True,,,,,,,,,,,,,21,A,2023-09-16_12h13.58.976,exp3,2022.2.2,
high_opac_v,0.01,1,0.01,3,0.82,3.5,0.01,0,0.01,4,5,Valid,1,5,14,start,lin,0.631284129762974,0,1,0.631284129762974,1,True,,,,,,,,,,,,,21,A,2023-09-16_12h13.58.976,exp3,2022.2.2,
low_opac_v,0.4,1,0.01,3,0.82,3.5,0.01,0,0.01,4,5,Valid,0,6,15,start,lin,1,0,0,1,0,True,,,,,,,,,,,,,21,A,2023-09-16_12h13.58.976,exp3,2022.2.2,
low_opac_i,0.4,1,0.01,3,0.82,3.5,0.01,0,0.01,4,5,Invalid,2,6,16,start,lin,0.8245013483899439,0,1,0.8245013483899439,1,True,,,,,,,,,,,,,21,A,2023-09-16_12h13.58.976,exp3,2022.2.2,
high_opac_v,0.01,1,0.01,3,0.82,3.5,0.01,0,0.01,4,5,Valid,1,6,17,start,lin,0.5801852194273379,0.5801852194273379,0,0.5801852194273379,0,True,,,,,,,,,,,,,21,A,2023-09-16_12h13.58.976,exp3,2022.2.2,
low_opac_i,0.4,1,0.01,3,0.82,3.5,0.01,0,0.01,4,5,Invalid,2,7,18,start,lin,0.7966614588417751,0.7966614588417751,0,0.7966614588417751,0,True,,,,,,,,,,,,,21,A,2023-09-16_12h13.58.976,exp3,2022.2.2,
low_opac_v,0.4,1,0.01,3,0.82,3.5,0.01,0,0.01,4,5,Valid,0,7,19,start,lin,1,0,0,1,0,True,,,,,,,,,,,,,21,A,2023-09-16_12h13.58.976,exp3,2022.2.2,
high_opac_v,0.01,1,0.01,3,0.82,3.5,0.01,0,0.01,4,5,Valid,1,7,20,start,lin,0.6808379280374222,0,0,0.6808379280374222,0,True,,,,,,,,,,,,,21,A,2023-09-16_12h13.58.976,exp3,2022.2.2,
high_opac_v,0.01,1,0.01,3,0.82,3.5,0.01,0,0.01,4,5,Valid,1,8,21,start,lin,0.7660030943373395,0,1,0.7660030943373395,1,True,,,,,,,,,,,,,21,A,2023-09-16_12h13.58.976,exp3,2022.2.2,
low_opac_i,0.4,1,0.01,3,0.82,3.5,0.01,0,0.01,4,5,Invalid,2,8,22,start,lin,0.867780533287287,0.867780533287287,1,0.867780533287287,1,True,,,,,,,,,,,,,21,A,2023-09-16_12h13.58.976,exp3,2022.2.2,
low_opac_v,0.4,1,0.01,3,0.82,3.5,0.01,0,0.01,4,5,Valid,0,8,23,start,lin,1,1,1,1,1,True,,,,,,,,,,,,,21,A,2023-09-16_12h13.58.976,exp3,2022.2.2,
low_opac_v,0.4,1,0.01,3,0.82,3.5,0.01,0,0.01,4,5,Valid,0,9,24,start,lin,1,1,0,1,0,True,,,,,,,,,,,,,21,A,2023-09-16_12h13.58.976,exp3,2022.2.2,
high_opac_v,0.01,1,0.01,3,0.82,3.5,0.01,0,0.01,4,5,Valid,1,9,25,start,lin,0.7433891219183406,0,0,0.7433891219183406,0,True,,,,,,,,,,,,,21,A,2023-09-16_12h13.58.976,exp3,2022.2.2,
low_opac_i,0.4,1,0.01,3,0.82,3.5,0.01,0,0.01,4,5,Invalid,2,9,26,start,lin,0.8517380704014387,0,1,0.8517380704014387,1,True,,,,,,,,,,,,,21,A,2023-09-16_12h13.58.976,exp3,2022.2.2,
low_opac_v,0.4,1,0.01,3,0.82,3.5,0.01,0,0.01,4,5,Valid,0,10,27,start,lin,1,0,0,1,0,True,,,,,,,,,,,,,21,A,2023-09-16_12h13.58.976,exp3,2022.2.2,
low_opac_i,0.4,1,0.01,3,0.82,3.5,0.01,0,0.01,4,5,Invalid,2,10,28,start,lin,0.8378377678038573,0,0,0.8378377678038573,0,True,,,,,,,,,,,,,21,A,2023-09-16_12h13.58.976,exp3,2022.2.2,
high_opac_v,0.01,1,0.01,3,0.82,3.5,0.01,0,0.01,4,5,Valid,1,10,29,start,lin,0.8043923080921909,0.8043923080921909,0,0.8043923080921909,0,True,,,,,,,,,,,,,21,A,2023-09-16_12h13.58.976,exp3,2022.2.2,
high_opac_v,0.01,1,0.01,3,0.82,3.5,0.01,0,0.01,4,5,Valid,1,11,30,start,lin,0.8603792970499199,0.8603792970499199,0,0.8603792970499199,0,True,,,,,,,,,,,,,21,A,2023-09-16_12h13.58.976,exp3,2022.2.2,
low_opac_i,0.4,1,0.01,3,0.82,3.5,0.01,0,0.01,4,5,Invalid,2,11,31,start,lin,0.8812742611252685,0,0,0.8812742611252685,0,True,,,,,,,,,,,,,21,A,2023-09-16_12h13.58.976,exp3,2022.2.2,
low_opac_v,0.4,1,0.01,3,0.82,3.5,0.01,0,0.01,4,5,Valid,0,11,32,start,lin,1,0,0,1,0,True,,,,,,,,,,,,,21,A,2023-09-16_12h13.58.976,exp3,2022.2.2,
high_opac_v,0.01,1,0.01,3,0.82,3.5,0.01,0,0.01,4,5,Valid,1,12,33,start,lin,0.9139101106223306,0.9139101106223306,0,0.9139101106223306,0,True,,,,,,,,,,,,,21,A,2023-09-16_12h13.58.976,exp3,2022.2.2,
low_opac_v,0.4,1,0.01,3,0.82,3.5,0.01,0,0.01,4,5,Valid,0,12,34,start,lin,1,1,1,1,1,True,,,,,,,,,,,,,21,A,2023-09-16_12h13.58.976,exp3,2022.2.2,
low_opac_i,0.4,1,0.01,3,0.82,3.5,0.01,0,0.01,4,5,Invalid,2,12,35,start,lin,0.9189259864813547,0.9189259864813547,0,0.9189259864813547,0,True,,,,,,,,,,,,,21,A,2023-09-16_12h13.58.976,exp3,2022.2.2,
low_opac_i,0.4,1,0.01,3,0.82,3.5,0.01,0,0.01,4,5,Invalid,2,13,36,start,lin,0.9545394559847478,0.9545394559847478,1,0.9545394559847478,1,True,,,,,,,,,,,,,21,A,2023-09-16_12h13.58.976,exp3,2022.2.2,
low_opac_v,0.4,1,0.01,3,0.82,3.5,0.01,0,0.01,4,5,Valid,0,13,37,start,lin,1,0,0,1,0,True,,,,,,,,,,,,,21,A,2023-09-16_12h13.58.976,exp3,2022.2.2,
high_opac_v,0.01,1,0.01,3,0.82,3.5,0.01,0,0.01,4,5,Valid,1,13,38,start,lin,0.9631479195808978,0.9631479195808978,0,0.9631479195808978,0,True,,,,,,,,,,,,,21,A,2023-09-16_12h13.58.976,exp3,2022.2.2,
low_opac_v,0.4,1,0.01,3,0.82,3.5,0.01,0,0.01,4,5,Valid,0,14,39,start,lin,1,0,0,1,0,True,,,,,,,,,,,,,21,A,2023-09-16_12h13.58.976,exp3,2022.2.2,
high_opac_v,0.01,1,0.01,3,0.82,3.5,0.01,0,0.01,4,5,Valid,1,14,40,start,lin,1,0,0,1,0,True,,,,,,,,,,,,,21,A,2023-09-16_12h13.58.976,exp3,2022.2.2,
low_opac_i,0.4,1,0.01,3,0.82,3.5,0.01,0,0.01,4,5,Invalid,2,14,41,start,lin,0.945345937535929,0,0,0.945345937535929,0,True,,,,,,,,,,,,,21,A,2023-09-16_12h13.58.976,exp3,2022.2.2,
low_opac_v,0.4,1,0.01,3,0.82,3.5,0.01,0,0.01,4,5,Valid,0,15,42,start,lin,1,0,0,1,0,True,,,,,,,,,,,,,21,A,2023-09-16_12h13.58.976,exp3,2022.2.2,
high_opac_v,0.01,1,0.01,3,0.82,3.5,0.01,0,0.01,4,5,Valid,1,15,43,start,lin,1,1,0,1,0,True,,,,,,,,,,,,,21,A,2023-09-16_12h13.58.976,exp3,2022.2.2,
low_opac_i,0.4,1,0.01,3,0.82,3.5,0.01,0,0.01,4,5,Invalid,2,15,44,start,lin,0.9763986381368966,0,0,0.9763986381368966,0,True,,,,,,,,,,,,,21,A,2023-09-16_12h13.58.976,exp3,2022.2.2,
high_opac_v,0.01,1,0.01,3,0.82,3.5,0.01,0,0.01,4,5,Valid,1,16,45,start,lin,1,1,0,1,0,True,,,,,,,,,,,,,21,A,2023-09-16_12h13.58.976,exp3,2022.2.2,
low_opac_i,0.4,1,0.01,3,0.82,3.5,0.01,0,0.01,4,5,Invalid,2,16,46,start,lin,1,1,0,1,0,True,,,,,,,,,,,,,21,A,2023-09-16_12h13.58.976,exp3,2022.2.2,
low_opac_v,0.4,1,0.01,3,0.82,3.5,0.01,0,0.01,4,5,Valid,0,16,47,start,lin,1,0,0,1,0,True,,,,,,,,,,,,,21,A,2023-09-16_12h13.58.976,exp3,2022.2.2,
low_opac_v,0.4,1,0.01,3,0.82,3.5,0.01,0,0.01,4,5,Valid,0,17,48,start,lin,1,1,0,1,0,True,,,,,,,,,,,,,21,A,2023-09-16_12h13.58.976,exp3,2022.2.2,
low_opac_i,0.4,1,0.01,3,0.82,3.5,0.01,0,0.01,4,5,Invalid,2,17,49,start,lin,1,1,0,1,0,True,,,,,,,,,,,,,21,A,2023-09-16_12h13.58.976,exp3,2022.2.2,
high_opac_v,0.01,1,0.01,3,0.82,3.5,0.01,0,0.01,4,5,Valid,1,17,50,start,lin,1,1,1,1,1,True,,,,,,,,,,,,,21,A,2023-09-16_12h13.58.976,exp3,2022.2.2,
high_opac_v,0.01,1,0.01,3,0.82,3.5,0.01,0,0.01,4,5,Valid,1,18,51,start,lin,1,0,0,1,0,True,,,,,,,,,,,,,21,A,2023-09-16_12h13.58.976,exp3,2022.2.2,
low_opac_i,0.4,1,0.01,3,0.82,3.5,0.01,0,0.01,4,5,Invalid,2,18,52,start,lin,1,1,0,1,0,True,,,,,,,,,,,,,21,A,2023-09-16_12h13.58.976,exp3,2022.2.2,
low_opac_v,0.4,1,0.01,3,0.82,3.5,0.01,0,0.01,4,5,Valid,0,18,53,start,lin,1,0,0,1,0,True,,,,,,,,,,,,,21,A,2023-09-16_12h13.58.976,exp3,2022.2.2,
low_opac_v,0.4,1,0.01,3,0.82,3.5,0.01,0,0.01,4,5,Valid,0,19,54,start,lin,1,0,0,1,0,True,,,,,,,,,,,,,21,A,2023-09-16_12h13.58.976,exp3,2022.2.2,
high_opac_v,0.01,1,0.01,3,0.82,3.5,0.01,0,0.01,4,5,Valid,1,19,55,start,lin,1,0,0,1,0,True,,,,,,,,,,,,,21,A,2023-09-16_12h13.58.976,exp3,2022.2.2,
low_opac_i,0.4,1,0.01,3,0.82,3.5,0.01,0,0.01,4,5,Invalid,2,19,56,start,lin,1,0,0,1,0,True,,,,,,,,,,,,,21,A,2023-09-16_12h13.58.976,exp3,2022.2.2,
low_opac_v,0.4,1,0.01,3,0.82,3.5,0.01,0,0.01,4,5,Valid,0,20,57,start,lin,1,1,0,1,0,True,,,,,,,,,,,,,21,A,2023-09-16_12h13.58.976,exp3,2022.2.2,
low_opac_i,0.4,1,0.01,3,0.82,3.5,0.01,0,0.01,4,5,Invalid,2,20,58,start,lin,1,1,0,1,0,True,,,,,,,,,,,,,21,A,2023-09-16_12h13.58.976,exp3,2022.2.2,
high_opac_v,0.01,1,0.01,3,0.82,3.5,0.01,0,0.01,4,5,Valid,1,20,59,start,lin,1,0,0,1,0,True,,,,,,,,,,,,,21,A,2023-09-16_12h13.58.976,exp3,2022.2.2,
low_opac_i,0.4,1,0.01,3,0.82,3.5,0.01,0,0.01,4,5,Invalid,2,21,60,start,lin,1,0,0,1,0,True,,,,,,,,,,,,,21,A,2023-09-16_12h13.58.976,exp3,2022.2.2,
low_opac_v,0.4,1,0.01,3,0.82,3.5,0.01,0,0.01,4,5,Valid,0,21,61,start,lin,1,1,0,1,0,True,,,,,,,,,,,,,21,A,2023-09-16_12h13.58.976,exp3,2022.2.2,
high_opac_v,0.01,1,0.01,3,0.82,3.5,0.01,0,0.01,4,5,Valid,1,21,62,start,lin,1,1,0,1,0,True,,,,,,,,,,,,,21,A,2023-09-16_12h13.58.976,exp3,2022.2.2,
low_opac_v,0.4,1,0.01,3,0.82,3.5,0.01,0,0.01,4,5,Valid,0,22,63,start,lin,1,1,0,1,0,True,,,,,,,,,,,,,21,A,2023-09-16_12h13.58.976,exp3,2022.2.2,
high_opac_v,0.01,1,0.01,3,0.82,3.5,0.01,0,0.01,4,5,Valid,1,22,64,start,lin,1,1,0,1,0,True,,,,,,,,,,,,,21,A,2023-09-16_12h13.58.976,exp3,2022.2.2,
low_opac_i,0.4,1,0.01,3,0.82,3.5,0.01,0,0.01,4,5,Invalid,2,22,65,start,lin,1,0,0,1,0,True,,,,,,,,,,,,,21,A,2023-09-16_12h13.58.976,exp3,2022.2.2,
high_opac_v,0.01,1,0.01,3,0.82,3.5,0.01,0,0.01,4,5,Valid,1,23,66,start,lin,1,1,0,1,0,True,,,,,,,,,,,,,21,A,2023-09-16_12h13.58.976,exp3,2022.2.2,
low_opac_v,0.4,1,0.01,3,0.82,3.5,0.01,0,0.01,4,5,Valid,0,23,67,start,lin,1,1,0,1,0,True,,,,,,,,,,,,,21,A,2023-09-16_12h13.58.976,exp3,2022.2.2,
low_opac_i,0.4,1,0.01,3,0.82,3.5,0.01,0,0.01,4,5,Invalid,2,23,68,start,lin,1,0,0,1,0,True,,,,,,,,,,,,,21,A,2023-09-16_12h13.58.976,exp3,2022.2.2,
low_opac_i,0.4,1,0.01,3,0.82,3.5,0.01,0,0.01,4,5,Invalid,2,24,69,start,lin,1,1,0,1,0,True,,,,,,,,,,,,,21,A,2023-09-16_12h13.58.976,exp3,2022.2.2,
high_opac_v,0.01,1,0.01,3,0.82,3.5,0.01,0,0.01,4,5,Valid,1,24,70,start,lin,1,1,0,1,0,True,,,,,,,,,,,,,21,A,2023-09-16_12h13.58.976,exp3,2022.2.2,
low_opac_v,0.4,1,0.01,3,0.82,3.5,0.01,0,0.01,4,5,Valid,0,24,71,start,lin,1,0,0,1,0,True,,,,,,,,,,,,,21,A,2023-09-16_12h13.58.976,exp3,2022.2.2,
low_opac_v,0.4,1,0.01,3,0.82,3.5,0.01,0,0.01,4,5,Valid,0,25,72,start,lin,1,0,0,1,0,True,,,,,,,,,,,,,21,A,2023-09-16_12h13.58.976,exp3,2022.2.2,
low_opac_i,0.4,1,0.01,3,0.82,3.5,0.01,0,0.01,4,5,Invalid,2,25,73,start,lin,1,0,0,1,0,True,,,,,,,,,,,,,21,A,2023-09-16_12h13.58.976,exp3,2022.2.2,
high_opac_v,0.01,1,0.01,3,0.82,3.5,0.01,0,0.01,4,5,Valid,1,25,74,start,lin,1,1,0,1,0,True,,,,,,,,,,,,,21,A,2023-09-16_12h13.58.976,exp3,2022.2.2,
high_opac_v,0.01,1,0.01,3,0.82,3.5,0.01,0,0.01,4,5,Valid,1,26,75,start,lin,1,0,0,1,0,True,,,,,,,,,,,,,21,A,2023-09-16_12h13.58.976,exp3,2022.2.2,
low_opac_i,0.4,1,0.01,3,0.82,3.5,0.01,0,0.01,4,5,Invalid,2,26,76,start,lin,1,1,0,1,0,True,,,,,,,,,,,,,21,A,2023-09-16_12h13.58.976,exp3,2022.2.2,
low_opac_v,0.4,1,0.01,3,0.82,3.5,0.01,0,0.01,4,5,Valid,0,26,77,start,lin,1,1,0,1,0,True,,,,,,,,,,,,,21,A,2023-09-16_12h13.58.976,exp3,2022.2.2,
low_opac_i,0.4,1,0.01,3,0.82,3.5,0.01,0,0.01,4,5,Invalid,2,27,78,start,lin,1,0,0,1,0,True,,,,,,,,,,,,,21,A,2023-09-16_12h13.58.976,exp3,2022.2.2,
low_opac_v,0.4,1,0.01,3,0.82,3.5,0.01,0,0.01,4,5,Valid,0,27,79,start,lin,1,0,0,1,0,True,,,,,,,,,,,,,21,A,2023-09-16_12h13.58.976,exp3,2022.2.2,
high_opac_v,0.01,1,0.01,3,0.82,3.5,0.01,0,0.01,4,5,Valid,1,27,80,start,lin,1,1,0,1,0,True,,,,,,,,,,,,,21,A,2023-09-16_12h13.58.976,exp3,2022.2.2,
high_opac_v,0.01,1,0.01,3,0.82,3.5,0.01,0,0.01,4,5,Valid,1,28,81,start,lin,1,0,0,1,0,True,,,,,,,,,,,,,21,A,2023-09-16_12h13.58.976,exp3,2022.2.2,
low_opac_v,0.4,1,0.01,3,0.82,3.5,0.01,0,0.01,4,5,Valid,0,28,82,start,lin,1,0,0,1,0,True,,,,,,,,,,,,,21,A,2023-09-16_12h13.58.976,exp3,2022.2.2,
low_opac_i,0.4,1,0.01,3,0.82,3.5,0.01,0,0.01,4,5,Invalid,2,28,83,start,lin,1,0,0,1,0,True,,,,,,,,,,,,,21,A,2023-09-16_12h13.58.976,exp3,2022.2.2,
high_opac_v,0.01,1,0.01,3,0.82,3.5,0.01,0,0.01,4,5,Valid,1,29,84,start,lin,1,1,0,1,0,True,,,,,,,,,,,,,21,A,2023-09-16_12h13.58.976,exp3,2022.2.2,
low_opac_i,0.4,1,0.01,3,0.82,3.5,0.01,0,0.01,4,5,Invalid,2,29,85,start,lin,1,1,0,1,0,True,,,,,,,,,,,,,21,A,2023-09-16_12h13.58.976,exp3,2022.2.2,
low_opac_v,0.4,1,0.01,3,0.82,3.5,0.01,0,0.01,4,5,Valid,0,29,86,start,lin,1,1,0,1,0,True,,,,,,,,,,,,,21,A,2023-09-16_12h13.58.976,exp3,2022.2.2,
high_opac_v,0.01,1,0.01,3,0.82,3.5,0.01,0,0.01,4,5,Valid,1,30,87,start,lin,1,0,0,1,0,True,,,,,,,,,,,,,21,A,2023-09-16_12h13.58.976,exp3,2022.2.2,
low_opac_v,0.4,1,0.01,3,0.82,3.5,0.01,0,0.01,4,5,Valid,0,30,88,start,lin,1,1,0,1,0,True,,,,,,,,,,,,,21,A,2023-09-16_12h13.58.976,exp3,2022.2.2,
low_opac_i,0.4,1,0.01,3,0.82,3.5,0.01,0,0.01,4,5,Invalid,2,30,89,start,lin,1,0,0,1,0,True,,,,,,,,,,,,,21,A,2023-09-16_12h13.58.976,exp3,2022.2.2,
high_opac_v,0.01,1,0.01,3,0.82,3.5,0.01,0,0.01,4,5,Valid,1,31,90,start,lin,1,0,0,1,0,True,,,,,,,,,,,,,21,A,2023-09-16_12h13.58.976,exp3,2022.2.2,
low_opac_v,0.4,1,0.01,3,0.82,3.5,0.01,0,0.01,4,5,Valid,0,31,91,start,lin,1,1,0,1,0,True,,,,,,,,,,,,,21,A,2023-09-16_12h13.58.976,exp3,2022.2.2,
low_opac_i,0.4,1,0.01,3,0.82,3.5,0.01,0,0.01,4,5,Invalid,2,31,92,start,lin,1,1,0,1,0,True,,,,,,,,,,,,,21,A,2023-09-16_12h13.58.976,exp3,2022.2.2,
low_opac_i,0.4,1,0.01,3,0.82,3.5,0.01,0,0.01,4,5,Invalid,2,32,93,start,lin,1,0,0,1,0,True,,,,,,,,,,,,,21,A,2023-09-16_12h13.58.976,exp3,2022.2.2,
low_opac_v,0.4,1,0.01,3,0.82,3.5,0.01,0,0.01,4,5,Valid,0,32,94,start,lin,1,1,0,1,0,True,,,,,,,,,,,,,21,A,2023-09-16_12h13.58.976,exp3,2022.2.2,
high_opac_v,0.01,1,0.01,3,0.82,3.5,0.01,0,0.01,4,5,Valid,1,32,95,start,lin,1,0,0,1,0,True,,,,,,,,,,,,,21,A,2023-09-16_12h13.58.976,exp3,2022.2.2,
high_opac_v,0.01,1,0.01,3,0.82,3.5,0.01,0,0.01,4,5,Valid,1,33,96,start,lin,1,0,0,1,0,True,,,,,,,,,,,,,21,A,2023-09-16_12h13.58.976,exp3,2022.2.2,
low_opac_v,0.4,1,0.01,3,0.82,3.5,0.01,0,0.01,4,5,Valid,0,33,97,start,lin,1,0,0,1,0,True,,,,,,,,,,,,,21,A,2023-09-16_12h13.58.976,exp3,2022.2.2,
low_opac_i,0.4,1,0.01,3,0.82,3.5,0.01,0,0.01,4,5,Invalid,2,33,98,start,lin,1,1,0,1,0,True,,,,,,,,,,,,,21,A,2023-09-16_12h13.58.976,exp3,2022.2.2,
low_opac_v,0.4,1,0.01,3,0.82,3.5,0.01,0,0.01,4,5,Valid,0,34,99,start,lin,1,0,0,1,0,True,,,,,,,,,,,,,21,A,2023-09-16_12h13.58.976,exp3,2022.2.2,
low_opac_i,0.4,1,0.01,3,0.82,3.5,0.01,0,0.01,4,5,Invalid,2,34,100,start,lin,1,0,0,1,0,True,,,,,,,,,,,,,21,A,2023-09-16_12h13.58.976,exp3,2022.2.2,
high_opac_v,0.01,1,0.01,3,0.82,3.5,0.01,0,0.01,4,5,Valid,1,34,101,start,lin,1,1,0,1,0,True,,,,,,,,,,,,,21,A,2023-09-16_12h13.58.976,exp3,2022.2.2,
high_opac_v,0.01,1,0.01,3,0.82,3.5,0.01,0,0.01,4,5,Valid,1,35,102,start,lin,1,1,0,1,0,True,,,,,,,,,,,,,21,A,2023-09-16_12h13.58.976,exp3,2022.2.2,
low_opac_v,0.4,1,0.01,3,0.82,3.5,0.01,0,0.01,4,5,Valid,0,35,103,start,lin,1,0,0,1,0,True,,,,,,,,,,,,,21,A,2023-09-16_12h13.58.976,exp3,2022.2.2,
low_opac_i,0.4,1,0.01,3,0.82,3.5,0.01,0,0.01,4,5,Invalid,2,35,104,start,lin,1,1,0,1,0,True,,,,,,,,,,,,,21,A,2023-09-16_12h13.58.976,exp3,2022.2.2,
low_opac_i,0.4,1,0.01,3,0.82,3.5,0.01,0,0.01,4,5,Invalid,2,36,105,start,lin,1,0,0,1,0,True,,,,,,,,,,,,,21,A,2023-09-16_12h13.58.976,exp3,2022.2.2,
low_opac_v,0.4,1,0.01,3,0.82,3.5,0.01,0,0.01,4,5,Valid,0,36,106,start,lin,1,1,0,1,0,True,,,,,,,,,,,,,21,A,2023-09-16_12h13.58.976,exp3,2022.2.2,
high_opac_v,0.01,1,0.01,3,0.82,3.5,0.01,0,0.01,4,5,Valid,1,36,107,start,lin,1,1,0,1,0,True,,,,,,,,,,,,,21,A,2023-09-16_12h13.58.976,exp3,2022.2.2,
low_opac_v,0.4,1,0.01,3,0.82,3.5,0.01,0,0.01,4,5,Valid,0,37,108,start,lin,1,1,0,1,0,True,,,,,,,,,,,,,21,A,2023-09-16_12h13.58.976,exp3,2022.2.2,
high_opac_v,0.01,1,0.01,3,0.82,3.5,0.01,0,0.01,4,5,Valid,1,37,109,start,lin,1,0,0,1,0,True,,,,,,,,,,,,,21,A,2023-09-16_12h13.58.976,exp3,2022.2.2,
low_opac_i,0.4,1,0.01,3,0.82,3.5,0.01,0,0.01,4,5,Invalid,2,37,110,start,lin,1,0,0,1,0,True,,,,,,,,,,,,,21,A,2023-09-16_12h13.58.976,exp3,2022.2.2,
low_opac_v,0.4,1,0.01,3,0.82,3.5,0.01,0,0.01,4,5,Valid,0,38,111,start,lin,1,0,0,1,0,True,,,,,,,,,,,,,21,A,2023-09-16_12h13.58.976,exp3,2022.2.2,
high_opac_v,0.01,1,0.01,3,0.82,3.5,0.01,0,0.01,4,5,Valid,1,38,112,start,lin,1,0,0,1,0,True,,,,,,,,,,,,,21,A,2023-09-16_12h13.58.976,exp3,2022.2.2,
low_opac_i,0.4,1,0.01,3,0.82,3.5,0.01,0,0.01,4,5,Invalid,2,38,113,start,lin,1,0,0,1,0,True,,,,,,,,,,,,,21,A,2023-09-16_12h13.58.976,exp3,2022.2.2,
low_opac_i,0.4,1,0.01,3,0.82,3.5,0.01,0,0.01,4,5,Invalid,2,39,114,start,lin,1,0,0,1,0,True,,,,,,,,,,,,,21,A,2023-09-16_12h13.58.976,exp3,2022.2.2,
low_opac_v,0.4,1,0.01,3,0.82,3.5,0.01,0,0.01,4,5,Valid,0,39,115,start,lin,1,0,0,1,0,True,,,,,,,,,,,,,21,A,2023-09-16_12h13.58.976,exp3,2022.2.2,
high_opac_v,0.01,1,0.01,3,0.82,3.5,0.01,0,0.01,4,5,Valid,1,39,116,start,lin,1,1,0,1,0,True,,,,,,,,,,,,,21,A,2023-09-16_12h13.58.976,exp3,2022.2.2,
low_opac_i,0.4,1,0.01,3,0.82,3.5,0.01,0,0.01,4,5,Invalid,2,40,117,start,lin,1,1,0,1,0,True,,,,,,,,,,,,,21,A,2023-09-16_12h13.58.976,exp3,2022.2.2,
low_opac_v,0.4,1,0.01,3,0.82,3.5,0.01,0,0.01,4,5,Valid,0,40,118,start,lin,1,1,0,1,0,True,,,,,,,,,,,,,21,A,2023-09-16_12h13.58.976,exp3,2022.2.2,
high_opac_v,0.01,1,0.01,3,0.82,3.5,0.01,0,0.01,4,5,Valid,1,40,119,start,lin,1,1,0,1,0,True,,,,,,,,,,,,,21,A,2023-09-16_12h13.58.976,exp3,2022.2.2,
low_opac_i,0.4,1,0.01,3,0.82,3.5,0.01,0,0.01,4,5,Invalid,2,41,120,start,lin,1,0,0,1,0,True,,,,,,,,,,,,,21,A,2023-09-16_12h13.58.976,exp3,2022.2.2,
high_opac_v,0.01,1,0.01,3,0.82,3.5,0.01,0,0.01,4,5,Valid,1,41,121,start,lin,1,0,0,1,0,True,,,,,,,,,,,,,21,A,2023-09-16_12h13.58.976,exp3,2022.2.2,
low_opac_v,0.4,1,0.01,3,0.82,3.5,0.01,0,0.01,4,5,Valid,0,41,122,start,lin,1,1,0,1,0,True,,,,,,,,,,,,,21,A,2023-09-16_12h13.58.976,exp3,2022.2.2,
low_opac_v,0.4,1,0.01,3,0.82,3.5,0.01,0,0.01,4,5,Valid,0,42,123,start,lin,1,0,0,1,0,True,,,,,,,,,,,,,21,A,2023-09-16_12h13.58.976,exp3,2022.2.2,
low_opac_i,0.4,1,0.01,3,0.82,3.5,0.01,0,0.01,4,5,Invalid,2,42,124,start,lin,1,1,0,1,0,True,,,,,,,,,,,,,21,A,2023-09-16_12h13.58.976,exp3,2022.2.2,
high_opac_v,0.01,1,0.01,3,0.82,3.5,0.01,0,0.01,4,5,Valid,1,42,125,start,lin,1,1,0,1,0,True,,,,,,,,,,,,,21,A,2023-09-16_12h13.58.976,exp3,2022.2.2,
high_opac_v,0.01,1,0.01,3,0.82,3.5,0.01,0,0.01,4,5,Valid,1,43,126,start,lin,1,0,0,1,0,True,,,,,,,,,,,,,21,A,2023-09-16_12h13.58.976,exp3,2022.2.2,
low_opac_v,0.4,1,0.01,3,0.82,3.5,0.01,0,0.01,4,5,Valid,0,43,127,start,lin,1,0,0,1,0,True,,,,,,,,,,,,,21,A,2023-09-16_12h13.58.976,exp3,2022.2.2,
low_opac_i,0.4,1,0.01,3,0.82,3.5,0.01,0,0.01,4,5,Invalid,2,43,128,start,lin,1,0,0,1,0,True,,,,,,,,,,,,,21,A,2023-09-16_12h13.58.976,exp3,2022.2.2,
low_opac_i,0.4,1,0.01,3,0.82,3.5,0.01,0,0.01,4,5,Invalid,2,44,129,start,lin,1,0,0,1,0,True,,,,,,,,,,,,,21,A,2023-09-16_12h13.58.976,exp3,2022.2.2,
low_opac_v,0.4,1,0.01,3,0.82,3.5,0.01,0,0.01,4,5,Valid,0,44,130,start,lin,1,0,0,1,0,True,,,,,,,,,,,,,21,A,2023-09-16_12h13.58.976,exp3,2022.2.2,
high_opac_v,0.01,1,0.01,3,0.82,3.5,0.01,0,0.01,4,5,Valid,1,44,131,start,lin,1,0,0,1,0,True,,,,,,,,,,,,,21,A,2023-09-16_12h13.58.976,exp3,2022.2.2,
low_opac_v,0.4,1,0.01,3,0.82,3.5,0.01,0,0.01,4,5,Valid,0,45,132,start,lin,1,1,0,1,0,True,,,,,,,,,,,,,21,A,2023-09-16_12h13.58.976,exp3,2022.2.2,
low_opac_i,0.4,1,0.01,3,0.82,3.5,0.01,0,0.01,4,5,Invalid,2,45,133,start,lin,1,1,0,1,0,True,,,,,,,,,,,,,21,A,2023-09-16_12h13.58.976,exp3,2022.2.2,
high_opac_v,0.01,1,0.01,3,0.82,3.5,0.01,0,0.01,4,5,Valid,1,45,134,start,lin,1,0,0,1,0,True,,,,,,,,,,,,,21,A,2023-09-16_12h13.58.976,exp3,2022.2.2,
high_opac_v,0.01,1,0.01,3,0.82,3.5,0.01,0,0.01,4,5,Valid,1,46,135,start,lin,1,1,0,1,0,True,,,,,,,,,,,,,21,A,2023-09-16_12h13.58.976,exp3,2022.2.2,
low_opac_v,0.4,1,0.01,3,0.82,3.5,0.01,0,0.01,4,5,Valid,0,46,136,start,lin,1,0,0,1,0,True,,,,,,,,,,,,,21,A,2023-09-16_12h13.58.976,exp3,2022.2.2,
low_opac_i,0.4,1,0.01,3,0.82,3.5,0.01,0,0.01,4,5,Invalid,2,46,137,start,lin,1,1,0,1,0,True,,,,,,,,,,,,,21,A,2023-09-16_12h13.58.976,exp3,2022.2.2,
high_opac_v,0.01,1,0.01,3,0.82,3.5,0.01,0,0.01,4,5,Valid,1,47,138,start,lin,1,0,0,1,0,True,,,,,,,,,,,,,21,A,2023-09-16_12h13.58.976,exp3,2022.2.2,
low_opac_i,0.4,1,0.01,3,0.82,3.5,0.01,0,0.01,4,5,Invalid,2,47,139,start,lin,1,1,0,1,0,True,,,,,,,,,,,,,21,A,2023-09-16_12h13.58.976,exp3,2022.2.2,
low_opac_v,0.4,1,0.01,3,0.82,3.5,0.01,0,0.01,4,5,Valid,0,47,140,start,lin,1,0,0,1,0,True,,,,,,,,,,,,,21,A,2023-09-16_12h13.58.976,exp3,2022.2.2,
high_opac_v,0.01,1,0.01,3,0.82,3.5,0.01,0,0.01,4,5,Valid,1,48,141,start,lin,1,0,0,1,0,True,,,,,,,,,,,,,21,A,2023-09-16_12h13.58.976,exp3,2022.2.2,
low_opac_v,0.4,1,0.01,3,0.82,3.5,0.01,0,0.01,4,5,Valid,0,48,142,start,lin,1,1,0,1,0,True,,,,,,,,,,,,,21,A,2023-09-16_12h13.58.976,exp3,2022.2.2,
low_opac_i,0.4,1,0.01,3,0.82,3.5,0.01,0,0.01,4,5,Invalid,2,48,143,start,lin,1,0,0,1,0,True,,,,,,,,,,,,,21,A,2023-09-16_12h13.58.976,exp3,2022.2.2,
low_opac_i,0.4,1,0.01,3,0.82,3.5,0.01,0,0.01,4,5,Invalid,2,49,144,start,lin,1,0,0,1,0,True,,,,,,,,,,,,,21,A,2023-09-16_12h13.58.976,exp3,2022.2.2,
low_opac_v,0.4,1,0.01,3,0.82,3.5,0.01,0,0.01,4,5,Valid,0,49,145,start,lin,1,0,0,1,0,True,,,,,,,,,,,,,21,A,2023-09-16_12h13.58.976,exp3,2022.2.2,
high_opac_v,0.01,1,0.01,3,0.82,3.5,0.01,0,0.01,4,5,Valid,1,49,146,start,lin,1,1,0,1,0,True,,,,,,,,,,,,,21,A,2023-09-16_12h13.58.976,exp3,2022.2.2,
low_opac_i,0.4,1,0.01,3,0.82,3.5,0.01,0,0.01,4,5,Invalid,2,50,147,start,lin,1,0,0,1,0,True,,,,,,,,,,,,,21,A,2023-09-16_12h13.58.976,exp3,2022.2.2,
high_opac_v,0.01,1,0.01,3,0.82,3.5,0.01,0,0.01,4,5,Valid,1,50,148,start,lin,1,0,0,1,0,True,,,,,,,,,,,,,21,A,2023-09-16_12h13.58.976,exp3,2022.2.2,
low_opac_v,0.4,1,0.01,3,0.82,3.5,0.01,0,0.01,4,5,Valid,0,50,149,start,lin,1,0,0,1,0,True,,,,,,,,,,,,,21,A,2023-09-16_12h13.58.976,exp3,2022.2.2,
high_opac_v,0.01,1,0.01,3,0.82,3.5,0.01,0,0.01,4,5,Valid,1,51,150,start,lin,1,1,0,1,0,True,,,,,,,,,,,,,21,A,2023-09-16_12h13.58.976,exp3,2022.2.2,
low_opac_v,0.4,1,0.01,3,0.82,3.5,0.01,0,0.01,4,5,Valid,0,51,151,start,lin,1,0,0,1,0,True,,,,,,,,,,,,,21,A,2023-09-16_12h13.58.976,exp3,2022.2.2,
low_opac_i,0.4,1,0.01,3,0.82,3.5,0.01,0,0.01,4,5,Invalid,2,51,152,start,lin,1,1,0,1,0,True,,,,,,,,,,,,,21,A,2023-09-16_12h13.58.976,exp3,2022.2.2,
low_opac_v,0.4,1,0.01,3,0.82,3.5,0.01,0,0.01,4,5,Valid,0,52,153,start,lin,1,0,0,1,0,True,,,,,,,,,,,,,21,A,2023-09-16_12h13.58.976,exp3,2022.2.2,
low_opac_i,0.4,1,0.01,3,0.82,3.5,0.01,0,0.01,4,5,Invalid,2,52,154,start,lin,1,1,0,1,0,True,,,,,,,,,,,,,21,A,2023-09-16_12h13.58.976,exp3,2022.2.2,
high_opac_v,0.01,1,0.01,3,0.82,3.5,0.01,0,0.01,4,5,Valid,1,52,155,start,lin,1,0,0,1,0,True,,,,,,,,,,,,,21,A,2023-09-16_12h13.58.976,exp3,2022.2.2,
low_opac_i,0.4,1,0.01,3,0.82,3.5,0.01,0,0.01,4,5,Invalid,2,53,156,start,lin,1,0,0,1,0,True,,,,,,,,,,,,,21,A,2023-09-16_12h13.58.976,exp3,2022.2.2,
low_opac_v,0.4,1,0.01,3,0.82,3.5,0.01,0,0.01,4,5,Valid,0,53,157,start,lin,1,1,0,1,0,True,,,,,,,,,,,,,21,A,2023-09-16_12h13.58.976,exp3,2022.2.2,
high_opac_v,0.01,1,0.01,3,0.82,3.5,0.01,0,0.01,4,5,Valid,1,53,158,start,lin,1,1,0,1,0,True,,,,,,,,,,,,,21,A,2023-09-16_12h13.58.976,exp3,2022.2.2,
low_opac_v,0.4,1,0.01,3,0.82,3.5,0.01,0,0.01,4,5,Valid,0,54,159,start,lin,1,1,0,1,0,True,,,,,,,,,,,,,21,A,2023-09-16_12h13.58.976,exp3,2022.2.2,
high_opac_v,0.01,1,0.01,3,0.82,3.5,0.01,0,0.01,4,5,Valid,1,54,160,start,lin,1,1,0,1,0,True,,,,,,,,,,,,,21,A,2023-09-16_12h13.58.976,exp3,2022.2.2,
low_opac_i,0.4,1,0.01,3,0.82,3.5,0.01,0,0.01,4,5,Invalid,2,54,161,start,lin,1,0,0,1,0,True,,,,,,,,,,,,,21,A,2023-09-16_12h13.58.976,exp3,2022.2.2,
low_opac_v,0.4,1,0.01,3,0.82,3.5,0.01,0,0.01,4,5,Valid,0,55,162,start,lin,1,0,1,1,1,True,,,,,,,,,,,,,21,A,2023-09-16_12h13.58.976,exp3,2022.2.2,
high_opac_v,0.01,1,0.01,3,0.82,3.5,0.01,0,0.01,4,5,Valid,1,55,163,start,lin,1,0,0,1,0,True,,,,,,,,,,,,,21,A,2023-09-16_12h13.58.976,exp3,2022.2.2,
low_opac_i,0.4,1,0.01,3,0.82,3.5,0.01,0,0.01,4,5,Invalid,2,55,164,start,lin,1,1,0,1,0,True,,,,,,,,,,,,,21,A,2023-09-16_12h13.58.976,exp3,2022.2.2,
low_opac_i,0.4,1,0.01,3,0.82,3.5,0.01,0,0.01,4,5,Invalid,2,56,165,start,lin,1,1,0,1,0,True,,,,,,,,,,,,,21,A,2023-09-16_12h13.58.976,exp3,2022.2.2,
low_opac_v,0.4,1,0.01,3,0.82,3.5,0.01,0,0.01,4,5,Valid,0,56,166,start,lin,1,1,0,1,0,True,,,,,,,,,,,,,21,A,2023-09-16_12h13.58.976,exp3,2022.2.2,
high_opac_v,0.01,1,0.01,3,0.82,3.5,0.01,0,0.01,4,5,Valid,1,56,167,start,lin,1,0,0,1,0,True,,,,,,,,,,,,,21,A,2023-09-16_12h13.58.976,exp3,2022.2.2,
low_opac_v,0.4,1,0.01,3,0.82,3.5,0.01,0,0.01,4,5,Valid,0,57,168,start,lin,1,1,0,1,0,True,,,,,,,,,,,,,21,A,2023-09-16_12h13.58.976,exp3,2022.2.2,
high_opac_v,0.01,1,0.01,3,0.82,3.5,0.01,0,0.01,4,5,Valid,1,57,169,start,lin,1,1,0,1,0,True,,,,,,,,,,,,,21,A,2023-09-16_12h13.58.976,exp3,2022.2.2,
low_opac_i,0.4,1,0.01,3,0.82,3.5,0.01,0,0.01,4,5,Invalid,2,57,170,start,lin,1,1,0,1,0,True,,,,,,,,,,,,,21,A,2023-09-16_12h13.58.976,exp3,2022.2.2,
high_opac_v,0.01,1,0.01,3,0.82,3.5,0.01,0,0.01,4,5,Valid,1,58,171,start,lin,1,0,0,1,0,True,,,,,,,,,,,,,21,A,2023-09-16_12h13.58.976,exp3,2022.2.2,
low_opac_v,0.4,1,0.01,3,0.82,3.5,0.01,0,0.01,4,5,Valid,0,58,172,start,lin,1,1,0,1,0,True,,,,,,,,,,,,,21,A,2023-09-16_12h13.58.976,exp3,2022.2.2,
low_opac_i,0.4,1,0.01,3,0.82,3.5,0.01,0,0.01,4,5,Invalid,2,58,173,start,lin,1,1,0,1,0,True,,,,,,,,,,,,,21,A,2023-09-16_12h13.58.976,exp3,2022.2.2,
low_opac_v,0.4,1,0.01,3,0.82,3.5,0.01,0,0.01,4,5,Valid,0,59,174,start,lin,1,0,0,1,0,True,,,,,,,,,,,,,21,A,2023-09-16_12h13.58.976,exp3,2022.2.2,
low_opac_i,0.4,1,0.01,3,0.82,3.5,0.01,0,0.01,4,5,Invalid,2,59,175,start,lin,1,1,0,1,0,True,,,,,,,,,,,,,21,A,2023-09-16_12h13.58.976,exp3,2022.2.2,
high_opac_v,0.01,1,0.01,3,0.82,3.5,0.01,0,0.01,4,5,Valid,1,59,176,start,lin,1,0,0,1,0,True,,,,,,,,,,,,,21,A,2023-09-16_12h13.58.976,exp3,2022.2.2,
high_opac_v,0.01,1,0.01,3,0.82,3.5,0.01,0,0.01,4,5,Valid,1,60,177,start,lin,1,0,0,1,0,True,,,,,,,,,,,,,21,A,2023-09-16_12h13.58.976,exp3,2022.2.2,
low_opac_v,0.4,1,0.01,3,0.82,3.5,0.01,0,0.01,4,5,Valid,0,60,178,start,lin,1,0,0,1,0,True,,,,,,,,,,,,,21,A,2023-09-16_12h13.58.976,exp3,2022.2.2,
low_opac_i,0.4,1,0.01,3,0.82,3.5,0.01,0,0.01,4,5,Invalid,2,60,179,start,lin,1,1,0,1,0,True,,,,,,,,,,,,,21,A,2023-09-16_12h13.58.976,exp3,2022.2.2,
low_opac_i,0.4,1,0.01,3,0.82,3.5,0.01,0,0.01,4,5,Invalid,2,61,180,start,lin,1,0,0,1,0,True,,,,,,,,,,,,,21,A,2023-09-16_12h13.58.976,exp3,2022.2.2,
high_opac_v,0.01,1,0.01,3,0.82,3.5,0.01,0,0.01,4,5,Valid,1,61,181,start,lin,1,1,0,1,0,True,,,,,,,,,,,,,21,A,2023-09-16_12h13.58.976,exp3,2022.2.2,
low_opac_v,0.4,1,0.01,3,0.82,3.5,0.01,0,0.01,4,5,Valid,0,61,182,start,lin,1,1,0,1,0,True,,,,,,,,,,,,,21,A,2023-09-16_12h13.58.976,exp3,2022.2.2,
low_opac_i,0.4,1,0.01,3,0.82,3.5,0.01,0,0.01,4,5,Invalid,2,62,183,start,lin,1,1,0,1,0,True,,,,,,,,,,,,,21,A,2023-09-16_12h13.58.976,exp3,2022.2.2,
high_opac_v,0.01,1,0.01,3,0.82,3.5,0.01,0,0.01,4,5,Valid,1,62,184,start,lin,1,0,0,1,0,True,,,,,,,,,,,,,21,A,2023-09-16_12h13.58.976,exp3,2022.2.2,
low_opac_v,0.4,1,0.01,3,0.82,3.5,0.01,0,0.01,4,5,Valid,0,62,185,start,lin,1,0,0,1,0,True,,,,,,,,,,,,,21,A,2023-09-16_12h13.58.976,exp3,2022.2.2,
low_opac_i,0.4,1,0.01,3,0.82,3.5,0.01,0,0.01,4,5,Invalid,2,63,186,start,lin,1,0,0,1,0,True,,,,,,,,,,,,,21,A,2023-09-16_12h13.58.976,exp3,2022.2.2,
high_opac_v,0.01,1,0.01,3,0.82,3.5,0.01,0,0.01,4,5,Valid,1,63,187,start,lin,1,1,1,1,1,True,,,,,,,,,,,,,21,A,2023-09-16_12h13.58.976,exp3,2022.2.2,
low_opac_v,0.4,1,0.01,3,0.82,3.5,0.01,0,0.01,4,5,Valid,0,63,188,start,lin,1,1,0,1,0,True,,,,,,,,,,,,,21,A,2023-09-16_12h13.58.976,exp3,2022.2.2,
low_opac_i,0.4,1,0.01,3,0.82,3.5,0.01,0,0.01,4,5,Invalid,2,64,189,start,lin,1,0,0,1,0,True,,,,,,,,,,,,,21,A,2023-09-16_12h13.58.976,exp3,2022.2.2,
high_opac_v,0.01,1,0.01,3,0.82,3.5,0.01,0,0.01,4,5,Valid,1,64,190,start,lin,1,1,0,1,0,True,,,,,,,,,,,,,21,A,2023-09-16_12h13.58.976,exp3,2022.2.2,
low_opac_v,0.4,1,0.01,3,0.82,3.5,0.01,0,0.01,4,5,Valid,0,64,191,start,lin,1,0,0,1,0,True,,,,,,,,,,,,,21,A,2023-09-16_12h13.58.976,exp3,2022.2.2,
low_opac_i,0.4,1,0.01,3,0.82,3.5,0.01,0,0.01,4,5,Invalid,2,65,192,start,lin,1,1,0,1,0,True,,,,,,,,,,,,,21,A,2023-09-16_12h13.58.976,exp3,2022.2.2,
low_opac_v,0.4,1,0.01,3,0.82,3.5,0.01,0,0.01,4,5,Valid,0,65,193,start,lin,1,1,0,1,0,True,,,,,,,,,,,,,21,A,2023-09-16_12h13.58.976,exp3,2022.2.2,
high_opac_v,0.01,1,0.01,3,0.82,3.5,0.01,0,0.01,4,5,Valid,1,65,194,start,lin,1,0,0,1,0,True,,,,,,,,,,,,,21,A,2023-09-16_12h13.58.976,exp3,2022.2.2,
low_opac_i,0.4,1,0.01,3,0.82,3.5,0.01,0,0.01,4,5,Invalid,2,66,195,start,lin,1,1,0,1,0,True,,,,,,,,,,,,,21,A,2023-09-16_12h13.58.976,exp3,2022.2.2,
high_opac_v,0.01,1,0.01,3,0.82,3.5,0.01,0,0.01,4,5,Valid,1,66,196,start,lin,1,0,0,1,0,True,,,,,,,,,,,,,21,A,2023-09-16_12h13.58.976,exp3,2022.2.2,
low_opac_v,0.4,1,0.01,3,0.82,3.5,0.01,0,0.01,4,5,Valid,0,66,197,start,lin,1,1,0,1,0,True,,,,,,,,,,,,,21,A,2023-09-16_12h13.58.976,exp3,2022.2.2,
low_opac_i,0.4,1,0.01,3,0.82,3.5,0.01,0,0.01,4,5,Invalid,2,67,198,start,lin,1,1,0,1,0,True,,,,,,,,,,,,,21,A,2023-09-16_12h13.58.976,exp3,2022.2.2,
high_opac_v,0.01,1,0.01,3,0.82,3.5,0.01,0,0.01,4,5,Valid,1,67,199,start,lin,1,1,0,1,0,True,,,,,,,,,,,,,21,A,2023-09-16_12h13.58.976,exp3,2022.2.2,
low_opac_v,0.4,1,0.01,3,0.82,3.5,0.01,0,0.01,4,5,Valid,0,67,200,start,lin,1,0,0,1,0,True,,,,,,,,,,,,,21,A,2023-09-16_12h13.58.976,exp3,2022.2.2,
low_opac_i,0.4,1,0.01,3,0.82,3.5,0.01,0,0.01,4,5,Invalid,2,68,201,start,lin,1,1,0,1,0,True,,,,,,,,,,,,,21,A,2023-09-16_12h13.58.976,exp3,2022.2.2,
high_opac_v,0.01,1,0.01,3,0.82,3.5,0.01,0,0.01,4,5,Valid,1,68,202,start,lin,1,0,0,1,0,True,,,,,,,,,,,,,21,A,2023-09-16_12h13.58.976,exp3,2022.2.2,
low_opac_v,0.4,1,0.01,3,0.82,3.5,0.01,0,0.01,4,5,Valid,0,68,203,start,lin,1,0,0,1,0,True,,,,,,,,,,,,,21,A,2023-09-16_12h13.58.976,exp3,2022.2.2,
high_opac_v,0.01,1,0.01,3,0.82,3.5,0.01,0,0.01,4,5,Valid,1,69,204,start,lin,1,1,0,1,0,True,,,,,,,,,,,,,21,A,2023-09-16_12h13.58.976,exp3,2022.2.2,
low_opac_v,0.4,1,0.01,3,0.82,3.5,0.01,0,0.01,4,5,Valid,0,69,205,start,lin,1,0,0,1,0,True,,,,,,,,,,,,,21,A,2023-09-16_12h13.58.976,exp3,2022.2.2,
low_opac_i,0.4,1,0.01,3,0.82,3.5,0.01,0,0.01,4,5,Invalid,2,69,206,start,lin,1,0,0,1,0,True,,,,,,,,,,,,,21,A,2023-09-16_12h13.58.976,exp3,2022.2.2,
low_opac_v,0.4,1,0.01,3,0.82,3.5,0.01,0,0.01,4,5,Valid,0,70,207,start,lin,1,1,0,1,0,True,,,,,,,,,,,,,21,A,2023-09-16_12h13.58.976,exp3,2022.2.2,
low_opac_i,0.4,1,0.01,3,0.82,3.5,0.01,0,0.01,4,5,Invalid,2,70,208,start,lin,1,1,0,1,0,True,,,,,,,,,,,,,21,A,2023-09-16_12h13.58.976,exp3,2022.2.2,
high_opac_v,0.01,1,0.01,3,0.82,3.5,0.01,0,0.01,4,5,Valid,1,70,209,start,lin,1,1,0,1,0,True,,,,,,,,,,,,,21,A,2023-09-16_12h13.58.976,exp3,2022.2.2,
low_opac_v,0.4,1,0.01,3,0.82,3.5,0.01,0,0.01,4,5,Valid,0,71,210,start,lin,1,0,0,1,0,True,,,,,,,,,,,,,21,A,2023-09-16_12h13.58.976,exp3,2022.2.2,
low_opac_i,0.4,1,0.01,3,0.82,3.5,0.01,0,0.01,4,5,Invalid,2,71,211,start,lin,1,1,0,1,0,True,,,,,,,,,,,,,21,A,2023-09-16_12h13.58.976,exp3,2022.2.2,
high_opac_v,0.01,1,0.01,3,0.82,3.5,0.01,0,0.01,4,5,Valid,1,71,212,start,lin,1,1,0,1,0,True,,,,,,,,,,,,,21,A,2023-09-16_12h13.58.976,exp3,2022.2.2,
high_opac_v,0.01,1,0.01,3,0.82,3.5,0.01,0,0.01,4,5,Valid,1,72,213,start,lin,1,0,1,1,1,True,,,,,,,,,,,,,21,A,2023-09-16_12h13.58.976,exp3,2022.2.2,
low_opac_v,0.4,1,0.01,3,0.82,3.5,0.01,0,0.01,4,5,Valid,0,72,214,start,lin,1,1,0,1,0,True,,,,,,,,,,,,,21,A,2023-09-16_12h13.58.976,exp3,2022.2.2,
low_opac_i,0.4,1,0.01,3,0.82,3.5,0.01,0,0.01,4,5,Invalid,2,72,215,start,lin,1,1,0,1,0,True,,,,,,,,,,,,,21,A,2023-09-16_12h13.58.976,exp3,2022.2.2,
high_opac_v,0.01,1,0.01,3,0.82,3.5,0.01,0,0.01,4,5,Valid,1,73,216,start,lin,1,1,0,1,0,True,,,,,,,,,,,,,21,A,2023-09-16_12h13.58.976,exp3,2022.2.2,
low_opac_i,0.4,1,0.01,3,0.82,3.5,0.01,0,0.01,4,5,Invalid,2,73,217,start,lin,1,1,0,1,0,True,,,,,,,,,,,,,21,A,2023-09-16_12h13.58.976,exp3,2022.2.2,
low_opac_v,0.4,1,0.01,3,0.82,3.5,0.01,0,0.01,4,5,Valid,0,73,218,start,lin,1,0,0,1,0,True,,,,,,,,,,,,,21,A,2023-09-16_12h13.58.976,exp3,2022.2.2,
low_opac_v,0.4,1,0.01,3,0.82,3.5,0.01,0,0.01,4,5,Valid,0,74,219,start,lin,1,1,0,1,0,True,,,,,,,,,,,,,21,A,2023-09-16_12h13.58.976,exp3,2022.2.2,
low_opac_i,0.4,1,0.01,3,0.82,3.5,0.01,0,0.01,4,5,Invalid,2,74,220,start,lin,1,1,0,1,0,True,,,,,,,,,,,,,21,A,2023-09-16_12h13.58.976,exp3,2022.2.2,
high_opac_v,0.01,1,0.01,3,0.82,3.5,0.01,0,0.01,4,5,Valid,1,74,221,start,lin,1,0,0,1,0,True,,,,,,,,,,,,,21,A,2023-09-16_12h13.58.976,exp3,2022.2.2,
high_opac_v,0.01,1,0.01,3,0.82,3.5,0.01,0,0.01,4,5,Valid,1,75,222,start,lin,1,1,0,1,0,True,,,,,,,,,,,,,21,A,2023-09-16_12h13.58.976,exp3,2022.2.2,
low_opac_v,0.4,1,0.01,3,0.82,3.5,0.01,0,0.01,4,5,Valid,0,75,223,start,lin,1,0,0,1,0,True,,,,,,,,,,,,,21,A,2023-09-16_12h13.58.976,exp3,2022.2.2,
low_opac_i,0.4,1,0.01,3,0.82,3.5,0.01,0,0.01,4,5,Invalid,2,75,224,start,lin,1,0,0,1,0,True,,,,,,,,,,,,,21,A,2023-09-16_12h13.58.976,exp3,2022.2.2,
,,,,,,,,,,,,,,,,,,,,,,,,0,-2274,Valid,noise,-45,1,12.212248499999987,0,1.0,13.520339599999716,True,1,21,A,2023-09-16_12h13.58.976,exp3,2022.2.2,
,,,,,,,,,,,,,,,,,,,,,,,,0,1716,Valid,signal,45,2,3.255756200000178,0,3.0,4.563724199993885,True,1,21,A,2023-09-16_12h13.58.976,exp3,2022.2.2,
,,,,,,,,,,,,,,,,,,,,,,,,0,-2274,Valid,signal,45,2,2.872095700004138,0,4.0,4.179900599992834,True,1,21,A,2023-09-16_12h13.58.976,exp3,2022.2.2,
,,,,,,,,,,,,,,,,,,,,,,,,0,-1158,Valid,noise,-45,1,2.0566766999982065,0,3.0,10.432041000007303,True,2,21,A,2023-09-16_12h13.58.976,exp3,2022.2.2,
,,,,,,,,,,,,,,,,,,,,,,,,0,-2274,Valid,signal,45,2,3.0221539000049233,0,4.0,4.3303119000047445,True,1,21,A,2023-09-16_12h13.58.976,exp3,2022.2.2,
,,,,,,,,,,,,,,,,,,,,,,,,0,-2274,Invalid,noise,45,1,2.8054833999922266,0,3.0,4.113247400004184,True,1,21,A,2023-09-16_12h13.58.976,exp3,2022.2.2,
,,,,,,,,,,,,,,,,,,,,,,,,0,557,Valid,signal,-45,2,3.172884100000374,0,3.0,4.480439899998601,True,1,21,A,2023-09-16_12h13.58.976,exp3,2022.2.2,
,,,,,,,,,,,,,,,,,,,,,,,,0,-2274,Valid,noise,45,1,1.9387538000009954,0,3.0,3.2463856999966083,True,1,21,A,2023-09-16_12h13.58.976,exp3,2022.2.2,
,,,,,,,,,,,,,,,,,,,,,,,,0,-1158,Valid,signal,45,2,1.8496777999971528,0,4.0,6.9469165000045905,True,2,21,A,2023-09-16_12h13.58.976,exp3,2022.2.2,
,,,,,,,,,,,,,,,,,,,,,,,,0,-557,Valid,signal,-45,2,2.886996699991869,0,4.0,7.66492370000924,True,2,21,A,2023-09-16_12h13.58.976,exp3,2022.2.2,
,,,,,,,,,,,,,,,,,,,,,,,,0,-1158,Valid,signal,-45,2,1.7549205999966944,0,3.0,3.062904000005801,True,1,21,A,2023-09-16_12h13.58.976,exp3,2022.2.2,
,,,,,,,,,,,,,,,,,,,,,,,,0,557,Valid,noise,45,1,1.7380933999957051,0,3.0,3.046018200009712,True,1,21,A,2023-09-16_12h13.58.976,exp3,2022.2.2,
,,,,,,,,,,,,,,,,,,,,,,,,0,1158,Valid,signal,45,2,1.1048184000101173,0,4.0,2.412714699996286,True,1,21,A,2023-09-16_12h13.58.976,exp3,2022.2.2,
,,,,,,,,,,,,,,,,,,,,,,,,0,1716,Invalid,signal,45,2,1.78879410000809,0,3.0,3.096655200002715,True,1,21,A,2023-09-16_12h13.58.976,exp3,2022.2.2,
,,,,,,,,,,,,,,,,,,,,,,,,0,-557,Invalid,noise,45,1,1.7716784000076586,0,3.0,3.07957929999975,True,1,21,A,2023-09-16_12h13.58.976,exp3,2022.2.2,
,,,,,,,,,,,,,,,,,,,,,,,,0,-2274,Valid,noise,45,1,1.2214326999965124,0,3.0,2.529445299995132,True,1,21,A,2023-09-16_12h13.58.976,exp3,2022.2.2,
,,,,,,,,,,,,,,,,,,,,,,,,0,-557,Valid,signal,45,2,1.938657599996077,0,4.0,3.2466061000013724,True,1,21,A,2023-09-16_12h13.58.976,exp3,2022.2.2,
,,,,,,,,,,,,,,,,,,,,,,,,0,-1158,Valid,noise,-45,1,1.5882622999924934,0,2.0,2.8959714000084205,True,1,21,A,2023-09-16_12h13.58.976,exp3,2022.2.2,
,,,,,,,,,,,,,,,,,,,,,,,,0,-1716,Invalid,signal,-45,2,1.3724358999897959,0,3.0,2.6800062999973306,True,1,21,A,2023-09-16_12h13.58.976,exp3,2022.2.2,
,,,,,,,,,,,,,,,,,,,,,,,,0,-1716,Valid,noise,-45,1,1.8044636999984505,0,3.0,3.1122900000045775,True,1,21,A,2023-09-16_12h13.58.976,exp3,2022.2.2,
,,,,,,,,,,,,,,,,,,,,,,,,0,-1158,Valid,signal,45,2,1.7886510000098497,0,4.0,3.096546999993734,True,1,21,A,2023-09-16_12h13.58.976,exp3,2022.2.2,
,,,,,,,,,,,,,,,,,,,,,,,,0,-1158,Valid,noise,-45,1,2.7715522999933455,0,3.0,4.079435199993895,True,1,21,A,2023-09-16_12h13.58.976,exp3,2022.2.2,
,,,,,,,,,,,,,,,,,,,,,,,,0,1716,Valid,signal,45,2,2.0718473000015365,0,2.0,3.3799908999935724,True,1,21,A,2023-09-16_12h13.58.976,exp3,2022.2.2,
,,,,,,,,,,,,,,,,,,,,,,,,0,557,Valid,signal,45,2,1.388833799996064,0,4.0,2.6967828999913763,True,1,21,A,2023-09-16_12h13.58.976,exp3,2022.2.2,
,,,,,,,,,,,,,,,,,,,,,,,,0,-557,Valid,noise,45,1,1.4375837999978103,0,3.0,2.745577299996512,True,1,21,A,2023-09-16_12h13.58.976,exp3,2022.2.2,
,,,,,,,,,,,,,,,,,,,,,,,,0,557,Valid,noise,-45,1,1.239245499993558,0,2.0,2.54690610000398,True,1,21,A,2023-09-16_12h13.58.976,exp3,2022.2.2,
,,,,,,,,,,,,,,,,,,,,,,,,0,557,Valid,signal,45,2,1.4711709000112023,0,3.0,2.7787884999997914,True,1,21,A,2023-09-16_12h13.58.976,exp3,2022.2.2,
,,,,,,,,,,,,,,,,,,,,,,,,0,-1158,Valid,noise,45,1,1.6212816999905044,0,3.0,2.929342799994629,True,1,21,A,2023-09-16_12h13.58.976,exp3,2022.2.2,
,,,,,,,,,,,,,,,,,,,,,,,,0,-1716,Valid,signal,45,2,2.1387548000056995,0,3.0,3.446755499986466,True,1,21,A,2023-09-16_12h13.58.976,exp3,2022.2.2,
,,,,,,,,,,,,,,,,,,,,,,,,0,-1716,Valid,noise,45,1,1.4385399000020698,0,3.0,2.746351299996604,True,1,21,A,2023-09-16_12h13.58.976,exp3,2022.2.2,
,,,,,,,,,,,,,,,,,,,,,,,,0,2274,Valid,noise,45,1,1.154776999988826,0,3.0,2.462438000002294,True,1,21,A,2023-09-16_12h13.58.976,exp3,2022.2.2,
,,,,,,,,,,,,,,,,,,,,,,,,0,-557,Valid,noise,45,1,2.2220349999988684,0,4.0,3.529769800006761,True,1,21,A,2023-09-16_12h13.58.976,exp3,2022.2.2,
,,,,,,,,,,,,,,,,,,,,,,,,0,-2274,Valid,signal,-45,2,2.893323299998883,0,1.0,8.931992999991053,True,2,21,A,2023-09-16_12h13.58.976,exp3,2022.2.2,
,,,,,,,,,,,,,,,,,,,,,,,,0,2274,Valid,noise,45,2,3.888655300004757,1,1.0,5.196589500003029,True,1,21,A,2023-09-16_12h13.58.976,exp3,2022.2.2,
,,,,,,,,,,,,,,,,,,,,,,,,0,-1716,Valid,signal,45,2,1.4384349000029033,0,3.0,2.7465567999897758,True,1,21,A,2023-09-16_12h13.58.976,exp3,2022.2.2,
,,,,,,,,,,,,,,,,,,,,,,,,0,-1158,Invalid,noise,45,1,1.305036999998265,0,3.0,2.612697600008687,True,1,21,A,2023-09-16_12h13.58.976,exp3,2022.2.2,
,,,,,,,,,,,,,,,,,,,,,,,,0,2274,Valid,noise,-45,1,1.0878536999953212,0,4.0,2.3960520999971777,True,1,21,A,2023-09-16_12h13.58.976,exp3,2022.2.2,
,,,,,,,,,,,,,,,,,,,,,,,,0,-1158,Valid,signal,-45,2,1.3714439000032144,0,2.0,2.6795175000006566,True,1,21,A,2023-09-16_12h13.58.976,exp3,2022.2.2,
,,,,,,,,,,,,,,,,,,,,,,,,0,1158,Valid,noise,45,1,1.5713720999920042,0,3.0,2.8794859999907203,True,1,21,A,2023-09-16_12h13.58.976,exp3,2022.2.2,
,,,,,,,,,,,,,,,,,,,,,,,,0,-1716,Valid,signal,45,2,3.7892216999898665,0,4.0,5.097048499999801,True,1,21,A,2023-09-16_12h13.58.976,exp3,2022.2.2,
,,,,,,,,,,,,,,,,,,,,,,,,0,1716,Valid,noise,45,1,4.8561507999984315,0,3.0,6.1640918999910355,True,1,21,A,2023-09-16_12h13.58.976,exp3,2022.2.2,
,,,,,,,,,,,,,,,,,,,,,,,,0,2274,Invalid,noise,-45,1,5.32320250000339,0,3.0,6.631180099997437,True,1,21,A,2023-09-16_12h13.58.976,exp3,2022.2.2,
,,,,,,,,,,,,,,,,,,,,,,,,0,-2274,Valid,signal,45,2,1.4882714999985183,0,4.0,2.7960032999981195,True,1,21,A,2023-09-16_12h13.58.976,exp3,2022.2.2,
,,,,,,,,,,,,,,,,,,,,,,,,0,1158,Valid,signal,-45,1,3.572670499997912,1,1.0,4.880344100005459,True,1,21,A,2023-09-16_12h13.58.976,exp3,2022.2.2,
,,,,,,,,,,,,,,,,,,,,,,,,0,-1716,Valid,noise,45,1,1.6219461000000592,0,4.0,2.9296504000085406,True,1,21,A,2023-09-16_12h13.58.976,exp3,2022.2.2,
,,,,,,,,,,,,,,,,,,,,,,,,0,557,Valid,signal,-45,2,1.7053075000003446,0,3.0,3.013013999996474,True,1,21,A,2023-09-16_12h13.58.976,exp3,2022.2.2,
,,,,,,,,,,,,,,,,,,,,,,,,0,2274,Valid,noise,45,1,2.1148223000054713,0,3.0,6.58010330000252,True,2,21,A,2023-09-16_12h13.58.976,exp3,2022.2.2,
,,,,,,,,,,,,,,,,,,,,,,,,0,557,Valid,noise,45,1,2.388534800003981,0,3.0,3.696478499987279,True,1,21,A,2023-09-16_12h13.58.976,exp3,2022.2.2,
,,,,,,,,,,,,,,,,,,,,,,,,0,2274,Valid,signal,45,2,3.021989000000758,0,4.0,4.330340800006525,True,1,21,A,2023-09-16_12h13.58.976,exp3,2022.2.2,
,,,,,,,,,,,,,,,,,,,,,,,,0,2274,Valid,noise,-45,1,3.617223900000681,0,4.0,23.38735540000198,True,3,21,A,2023-09-16_12h13.58.976,exp3,2022.2.2,
,,,,,,,,,,,,,,,,,,,,,,,,0,1716,Valid,noise,45,1,1.953240899994853,0,3.0,12.48339809999743,True,3,21,A,2023-09-16_12h13.58.976,exp3,2022.2.2,
,,,,,,,,,,,,,,,,,,,,,,,,0,1158,Valid,noise,45,1,1.6547893000097247,0,3.0,2.9627734999958193,True,1,21,A,2023-09-16_12h13.58.976,exp3,2022.2.2,
,,,,,,,,,,,,,,,,,,,,,,,,0,2274,Valid,noise,-45,1,2.1049690999934683,0,4.0,3.4127409999928204,True,1,21,A,2023-09-16_12h13.58.976,exp3,2022.2.2,
,,,,,,,,,,,,,,,,,,,,,,,,0,-2274,Valid,noise,-45,1,1.4356432999920798,0,3.0,5.513959799995064,True,2,21,A,2023-09-16_12h13.58.976,exp3,2022.2.2,
,,,,,,,,,,,,,,,,,,,,,,,,0,1158,Invalid,noise,-45,1,2.051527800009353,0,3.0,5.964136799986591,True,2,21,A,2023-09-16_12h13.58.976,exp3,2022.2.2,
,,,,,,,,,,,,,,,,,,,,,,,,0,2274,Invalid,noise,45,1,1.485408799999277,0,3.0,5.9639736999961315,True,2,21,A,2023-09-16_12h13.58.976,exp3,2022.2.2,
,,,,,,,,,,,,,,,,,,,,,,,,0,-1716,Invalid,noise,-45,1,1.4716241999994963,0,3.0,2.779499800002668,True,1,21,A,2023-09-16_12h13.58.976,exp3,2022.2.2,
,,,,,,,,,,,,,,,,,,,,,,,,0,-1158,Valid,noise,-45,2,1.8548302000126569,1,1.0,3.1626459999970393,True,1,21,A,2023-09-16_12h13.58.976,exp3,2022.2.2,
,,,,,,,,,,,,,,,,,,,,,,,,0,-1716,Valid,signal,45,2,1.5386780999979237,0,4.0,2.8463813999987906,True,1,21,A,2023-09-16_12h13.58.976,exp3,2022.2.2,
,,,,,,,,,,,,,,,,,,,,,,,,0,1716,Valid,signal,-45,2,0.9213346000033198,0,4.0,2.229104300000472,True,1,21,A,2023-09-16_12h13.58.976,exp3,2022.2.2,
,,,,,,,,,,,,,,,,,,,,,,,,0,557,Valid,noise,-45,1,1.1385846000048332,0,3.0,2.4461939000029815,True,1,21,A,2023-09-16_12h13.58.976,exp3,2022.2.2,
,,,,,,,,,,,,,,,,,,,,,,,,0,1158,Valid,signal,45,2,2.0215633000043454,0,3.0,3.3295013000024483,True,1,21,A,2023-09-16_12h13.58.976,exp3,2022.2.2,
,,,,,,,,,,,,,,,,,,,,,,,,0,2274,Valid,signal,-45,2,3.172598299992387,0,2.0,4.480354500003159,True,1,21,A,2023-09-16_12h13.58.976,exp3,2022.2.2,
,,,,,,,,,,,,,,,,,,,,,,,,0,2274,Valid,signal,-45,2,4.717058700000052,0,3.0,11.866160399993532,True,3,21,A,2023-09-16_12h13.58.976,exp3,2022.2.2,
,,,,,,,,,,,,,,,,,,,,,,,,0,1716,Valid,noise,-45,1,2.1149123000068357,0,4.0,7.481373200003873,True,2,21,A,2023-09-16_12h13.58.976,exp3,2022.2.2,
,,,,,,,,,,,,,,,,,,,,,,,,0,1158,Invalid,noise,-45,1,1.8037634000065736,0,3.0,5.163495700006024,True,2,21,A,2023-09-16_12h13.58.976,exp3,2022.2.2,
,,,,,,,,,,,,,,,,,,,,,,,,0,557,Valid,signal,45,2,2.339249700002256,0,4.0,3.6470508000056725,True,1,21,A,2023-09-16_12h13.58.976,exp3,2022.2.2,
,,,,,,,,,,,,,,,,,,,,,,,,0,-2274,Valid,signal,-45,2,1.9054195000062464,0,4.0,3.213216600008309,True,1,21,A,2023-09-16_12h13.58.976,exp3,2022.2.2,
,,,,,,,,,,,,,,,,,,,,,,,,0,-557,Valid,noise,45,1,1.2043657999893185,0,3.0,2.512263399999938,True,1,21,A,2023-09-16_12h13.58.976,exp3,2022.2.2,
,,,,,,,,,,,,,,,,,,,,,,,,0,-2274,Valid,noise,45,1,2.32132050000655,0,2.0,3.629337899998063,True,1,21,A,2023-09-16_12h13.58.976,exp3,2022.2.2,
,,,,,,,,,,,,,,,,,,,,,,,,0,-557,Valid,signal,45,2,4.3561301000008825,0,3.0,5.664115999999922,True,1,21,A,2023-09-16_12h13.58.976,exp3,2022.2.2,
,,,,,,,,,,,,,,,,,,,,,,,,0,2274,Valid,signal,-45,2,1.0217674000014085,0,4.0,2.329657900001621,True,1,21,A,2023-09-16_12h13.58.976,exp3,2022.2.2,
,,,,,,,,,,,,,,,,,,,,,,,,0,1716,Valid,noise,45,1,1.4379764000041177,0,3.0,2.7457763999991585,True,1,21,A,2023-09-16_12h13.58.976,exp3,2022.2.2,
,,,,,,,,,,,,,,,,,,,,,,,,0,557,Valid,noise,-45,1,1.4508013000013307,0,4.0,20.870604199997615,True,2,21,A,2023-09-16_12h13.58.976,exp3,2022.2.2,
,,,,,,,,,,,,,,,,,,,,,,,,0,-1158,Valid,noise,-45,1,1.0870971999975154,0,4.0,2.395036899994011,True,1,21,A,2023-09-16_12h13.58.976,exp3,2022.2.2,
,,,,,,,,,,,,,,,,,,,,,,,,0,1158,Valid,noise,-45,1,2.005487600006745,0,4.0,3.3134791999909794,True,1,21,A,2023-09-16_12h13.58.976,exp3,2022.2.2,
,,,,,,,,,,,,,,,,,,,,,,,,0,-557,Valid,signal,-45,2,1.1882992000028025,0,3.0,2.4961769999936223,True,1,21,A,2023-09-16_12h13.58.976,exp3,2022.2.2,
,,,,,,,,,,,,,,,,,,,,,,,,0,2274,Valid,signal,-45,2,1.6883863999973983,0,4.0,2.9961612000042805,True,1,21,A,2023-09-16_12h13.58.976,exp3,2022.2.2,
,,,,,,,,,,,,,,,,,,,,,,,,0,1716,Valid,noise,-45,1,2.1214025000081165,0,3.0,3.4296260999981314,True,1,21,A,2023-09-16_12h13.58.976,exp3,2022.2.2,
,,,,,,,,,,,,,,,,,,,,,,,,0,-1716,Invalid,noise,-45,1,1.5055068999936339,0,3.0,2.813327099996968,True,1,21,A,2023-09-16_12h13.58.976,exp3,2022.2.2,
,,,,,,,,,,,,,,,,,,,,,,,,0,2274,Valid,noise,45,2,3.88900919999287,1,2.0,5.196873799999594,True,1,21,A,2023-09-16_12h13.58.976,exp3,2022.2.2,
,,,,,,,,,,,,,,,,,,,,,,,,0,557,Valid,signal,-45,2,2.471658700000262,0,4.0,3.779625199997099,True,1,21,A,2023-09-16_12h13.58.976,exp3,2022.2.2,
,,,,,,,,,,,,,,,,,,,,,,,,0,1716,Invalid,noise,45,1,4.347044900001492,0,3.0,102.48523099999875,True,20,21,A,2023-09-16_12h13.58.976,exp3,2022.2.2,
,,,,,,,,,,,,,,,,,,,,,,,,0,-1158,Invalid,signal,45,2,3.8223375999950804,0,4.0,5.1301863999979105,True,1,21,A,2023-09-16_12h13.58.976,exp3,2022.2.2,
,,,,,,,,,,,,,,,,,,,,,,,,0,-557,Invalid,signal,-45,2,1.272235800002818,0,4.0,2.5798884000105318,True,1,21,A,2023-09-16_12h13.58.976,exp3,2022.2.2,
,,,,,,,,,,,,,,,,,,,,,,,,0,-557,Valid,noise,45,1,2.671409100003075,0,4.0,3.979438800000935,True,1,21,A,2023-09-16_12h13.58.976,exp3,2022.2.2,
,,,,,,,,,,,,,,,,,,,,,,,,0,-2274,Invalid,noise,45,1,2.9389718000020366,0,4.0,4.246904700004961,True,1,21,A,2023-09-16_12h13.58.976,exp3,2022.2.2,
,,,,,,,,,,,,,,,,,,,,,,,,0,-1158,Valid,signal,45,2,2.5215723000001162,0,3.0,3.8296278000052553,True,1,21,A,2023-09-16_12h13.58.976,exp3,2022.2.2,
,,,,,,,,,,,,,,,,,,,,,,,,0,-1716,Valid,signal,-45,2,1.605458699996234,0,4.0,2.913368499997887,True,1,21,A,2023-09-16_12h13.58.976,exp3,2022.2.2,
,,,,,,,,,,,,,,,,,,,,,,,,0,557,Valid,noise,-45,1,1.5884702999901492,0,4.0,2.8961768000008306,True,1,21,A,2023-09-16_12h13.58.976,exp3,2022.2.2,
,,,,,,,,,,,,,,,,,,,,,,,,0,-1716,Valid,noise,-45,1,1.5883155000046827,0,4.0,2.8959845999925165,True,1,21,A,2023-09-16_12h13.58.976,exp3,2022.2.2,
,,,,,,,,,,,,,,,,,,,,,,,,0,-557,Invalid,noise,45,1,1.4219763000000967,0,3.0,2.7297105000034207,True,1,21,A,2023-09-16_12h13.58.976,exp3,2022.2.2,
,,,,,,,,,,,,,,,,,,,,,,,,0,557,Valid,signal,45,2,1.1041196000005584,0,4.0,2.4119351000117604,True,1,21,A,2023-09-16_12h13.58.976,exp3,2022.2.2,
,,,,,,,,,,,,,,,,,,,,,,,,0,2274,Valid,signal,45,2,1.9890529999975115,0,4.0,3.2966718999959994,True,1,21,A,2023-09-16_12h13.58.976,exp3,2022.2.2,
,,,,,,,,,,,,,,,,,,,,,,,,0,557,Valid,noise,-45,1,1.1211176999931922,0,4.0,2.429104399998323,True,1,21,A,2023-09-16_12h13.58.976,exp3,2022.2.2,
,,,,,,,,,,,,,,,,,,,,,,,,0,-2274,Valid,noise,-45,1,1.1050768999994034,0,4.0,2.412883700002567,True,1,21,A,2023-09-16_12h13.58.976,exp3,2022.2.2,
,,,,,,,,,,,,,,,,,,,,,,,,0,557,Valid,signal,45,2,1.0212408999941545,0,3.0,2.3293684999953257,True,1,21,A,2023-09-16_12h13.58.976,exp3,2022.2.2,
,,,,,,,,,,,,,,,,,,,,,,,,0,-1158,Valid,signal,45,2,0.7544821000046795,0,4.0,2.0623194000072544,True,1,21,A,2023-09-16_12h13.58.976,exp3,2022.2.2,
,,,,,,,,,,,,,,,,,,,,,,,,0,-557,Valid,signal,-45,2,0.5048840000090422,0,4.0,1.8126888999977382,True,1,21,A,2023-09-16_12h13.58.976,exp3,2022.2.2,
,,,,,,,,,,,,,,,,,,,,,,,,0,1716,Valid,noise,-45,1,0.7546517000009771,0,3.0,2.062350400010473,True,1,21,A,2023-09-16_12h13.58.976,exp3,2022.2.2,
,,,,,,,,,,,,,,,,,,,,,,,,0,-2274,Valid,signal,-45,2,4.055718499992508,0,4.0,5.363786600006279,True,1,21,A,2023-09-16_12h13.58.976,exp3,2022.2.2,
,,,,,,,,,,,,,,,,,,,,,,,,0,-557,Valid,noise,-45,1,1.6219931000086945,0,3.0,2.9299568999995245,True,1,21,A,2023-09-16_12h13.58.976,exp3,2022.2.2,
,,,,,,,,,,,,,,,,,,,,,,,,0,-2274,Invalid,signal,45,2,1.9720503999997163,0,2.0,3.2798812999972142,True,1,21,A,2023-09-16_12h13.58.976,exp3,2022.2.2,
,,,,,,,,,,,,,,,,,,,,,,,,0,1716,Invalid,noise,45,1,1.0380211000010604,0,3.0,2.3457969000010053,True,1,21,A,2023-09-16_12h13.58.976,exp3,2022.2.2,
,,,,,,,,,,,,,,,,,,,,,,,,0,-1716,Valid,noise,-45,1,0.737687000000733,0,3.0,2.0456629999971483,True,1,21,A,2023-09-16_12h13.58.976,exp3,2022.2.2,
,,,,,,,,,,,,,,,,,,,,,,,,0,1158,Valid,noise,45,1,1.0049989999970421,0,3.0,2.31286910000199,True,1,21,A,2023-09-16_12h13.58.976,exp3,2022.2.2,
,,,,,,,,,,,,,,,,,,,,,,,,0,1158,Valid,signal,-45,2,2.5556508999870857,0,4.0,3.8634878000011668,True,1,21,A,2023-09-16_12h13.58.976,exp3,2022.2.2,
,,,,,,,,,,,,,,,,,,,,,,,,0,-557,Valid,signal,-45,1,2.588715600009891,1,1.0,3.8967011000058847,True,1,21,A,2023-09-16_12h13.58.976,exp3,2022.2.2,
,,,,,,,,,,,,,,,,,,,,,,,,0,1158,Valid,noise,-45,1,2.338890300001367,0,4.0,3.646594499994535,True,1,21,A,2023-09-16_12h13.58.976,exp3,2022.2.2,
,,,,,,,,,,,,,,,,,,,,,,,,0,557,Invalid,signal,45,2,1.9210644999984652,0,4.0,3.2291529000067385,True,1,21,A,2023-09-16_12h13.58.976,exp3,2022.2.2,
,,,,,,,,,,,,,,,,,,,,,,,,0,-2274,Valid,noise,-45,1,0.9050719000078971,0,3.0,2.2128290999971796,True,1,21,A,2023-09-16_12h13.58.976,exp3,2022.2.2,
,,,,,,,,,,,,,,,,,,,,,,,,0,-557,Valid,noise,-45,1,0.7043989000085276,0,3.0,2.0123345000029076,True,1,21,A,2023-09-16_12h13.58.976,exp3,2022.2.2,
,,,,,,,,,,,,,,,,,,,,,,,,0,1716,Valid,signal,45,2,4.072854400001233,0,4.0,5.380688400007784,True,1,21,A,2023-09-16_12h13.58.976,exp3,2022.2.2,
,,,,,,,,,,,,,,,,,,,,,,,,0,1158,Valid,signal,-45,2,1.8047807999973884,0,4.0,3.112668300003861,True,1,21,A,2023-09-16_12h13.58.976,exp3,2022.2.2,
,,,,,,,,,,,,,,,,,,,,,,,,0,-1716,Valid,noise,-45,1,1.6882986999989953,0,3.0,2.9962871999887284,True,1,21,A,2023-09-16_12h13.58.976,exp3,2022.2.2,
,,,,,,,,,,,,,,,,,,,,,,,,0,1158,Valid,signal,45,2,0.9556527999957325,0,4.0,2.2632573999871965,True,1,21,A,2023-09-16_12h13.58.976,exp3,2022.2.2,
,,,,,,,,,,,,,,,,,,,,,,,,0,557,Valid,signal,-45,2,2.13789130000805,0,4.0,3.4458204000111436,True,1,21,A,2023-09-16_12h13.58.976,exp3,2022.2.2,
,,,,,,,,,,,,,,,,,,,,,,,,0,-557,Valid,signal,45,2,0.6883023999980651,0,4.0,1.9959815000038361,True,1,21,A,2023-09-16_12h13.58.976,exp3,2022.2.2,
,,,,,,,,,,,,,,,,,,,,,,,,0,-2274,Valid,noise,-45,1,1.1218986000021687,0,3.0,2.429519800003618,True,1,21,A,2023-09-16_12h13.58.976,exp3,2022.2.2,
,,,,,,,,,,,,,,,,,,,,,,,,0,-1158,Valid,noise,45,1,1.804593599998043,0,4.0,3.1123798999906285,True,1,21,A,2023-09-16_12h13.58.976,exp3,2022.2.2,
,,,,,,,,,,,,,,,,,,,,,,,,0,1716,Valid,noise,45,1,0.9047640000062529,0,3.0,2.2128089999896474,True,1,21,A,2023-09-16_12h13.58.976,exp3,2022.2.2,
,,,,,,,,,,,,,,,,,,,,,,,,0,-1716,Valid,noise,-45,1,0.7544760999880964,0,3.0,2.06246739999915,True,1,21,A,2023-09-16_12h13.58.976,exp3,2022.2.2,
,,,,,,,,,,,,,,,,,,,,,,,,0,2274,Valid,noise,45,1,1.0885242000076687,0,4.0,2.3964036000106717,True,1,21,A,2023-09-16_12h13.58.976,exp3,2022.2.2,
,,,,,,,,,,,,,,,,,,,,,,,,0,1158,Valid,noise,-45,1,0.7547366999933729,0,4.0,2.0624566999904346,True,1,21,A,2023-09-16_12h13.58.976,exp3,2022.2.2,
,,,,,,,,,,,,,,,,,,,,,,,,0,-1716,Invalid,signal,45,2,1.7216365000058431,0,3.0,3.0293243000051007,True,1,21,A,2023-09-16_12h13.58.976,exp3,2022.2.2,
,,,,,,,,,,,,,,,,,,,,,,,,0,2274,Valid,signal,-45,2,2.0486422999965725,0,3.0,6.030648600004497,True,2,21,A,2023-09-16_12h13.58.976,exp3,2022.2.2,
,,,,,,,,,,,,,,,,,,,,,,,,0,2274,Valid,signal,-45,2,1.5043617000046652,0,4.0,2.812369099992793,True,1,21,A,2023-09-16_12h13.58.976,exp3,2022.2.2,
,,,,,,,,,,,,,,,,,,,,,,,,0,-2274,Invalid,signal,45,2,1.6225016000098549,0,3.0,2.930265999995754,True,1,21,A,2023-09-16_12h13.58.976,exp3,2022.2.2,
,,,,,,,,,,,,,,,,,,,,,,,,0,-1158,Valid,signal,-45,2,1.1207716000062646,0,4.0,2.428763700008858,True,1,21,A,2023-09-16_12h13.58.976,exp3,2022.2.2,
,,,,,,,,,,,,,,,,,,,,,,,,0,-1716,Valid,signal,-45,2,1.0384655999951065,0,3.0,2.346269800007576,True,1,21,A,2023-09-16_12h13.58.976,exp3,2022.2.2,
,,,,,,,,,,,,,,,,,,,,,,,,0,-557,Valid,noise,-45,1,1.18883349999669,0,3.0,2.496574499993585,True,1,21,A,2023-09-16_12h13.58.976,exp3,2022.2.2,
,,,,,,,,,,,,,,,,,,,,,,,,0,-1158,Valid,noise,45,1,1.9717922999989241,0,4.0,3.27957559999777,True,1,21,A,2023-09-16_12h13.58.976,exp3,2022.2.2,
,,,,,,,,,,,,,,,,,,,,,,,,0,557,Valid,noise,45,1,0.854630999994697,0,4.0,2.162396500003524,True,1,21,A,2023-09-16_12h13.58.976,exp3,2022.2.2,
,,,,,,,,,,,,,,,,,,,,,,,,0,-1716,Valid,noise,45,1,1.271090499998536,0,3.0,2.57912349999242,True,1,21,A,2023-09-16_12h13.58.976,exp3,2022.2.2,
,,,,,,,,,,,,,,,,,,,,,,,,0,2274,Invalid,signal,-45,1,2.1264125000016065,1,2.0,5.547146199998679,True,2,21,A,2023-09-16_12h13.58.976,exp3,2022.2.2,
,,,,,,,,,,,,,,,,,,,,,,,,0,-557,Valid,noise,45,1,1.0885048999916762,0,3.0,2.39615459999186,True,1,21,A,2023-09-16_12h13.58.976,exp3,2022.2.2,
,,,,,,,,,,,,,,,,,,,,,,,,0,-1716,Valid,signal,45,2,3.822071300004609,0,2.0,5.130047699989518,True,1,21,A,2023-09-16_12h13.58.976,exp3,2022.2.2,
,,,,,,,,,,,,,,,,,,,,,,,,0,-1158,Invalid,noise,-45,1,0.8882651000021724,0,3.0,2.1961583999946015,True,1,21,A,2023-09-16_12h13.58.976,exp3,2022.2.2,
,,,,,,,,,,,,,,,,,,,,,,,,0,1158,Invalid,signal,45,2,1.2715165999979945,0,3.0,2.579365699988557,True,1,21,A,2023-09-16_12h13.58.976,exp3,2022.2.2,
,,,,,,,,,,,,,,,,,,,,,,,,0,1158,Valid,noise,45,1,1.422576700002537,0,4.0,2.730268500003149,True,1,21,A,2023-09-16_12h13.58.976,exp3,2022.2.2,
,,,,,,,,,,,,,,,,,,,,,,,,0,-2274,Valid,signal,45,2,1.7543243000109214,0,3.0,3.062281999998959,True,1,21,A,2023-09-16_12h13.58.976,exp3,2022.2.2,
,,,,,,,,,,,,,,,,,,,,,,,,0,-1716,Valid,signal,45,2,1.8718897000071593,0,4.0,3.179759099992225,True,1,21,A,2023-09-16_12h13.58.976,exp3,2022.2.2,
,,,,,,,,,,,,,,,,,,,,,,,,0,-1158,Valid,signal,45,2,0.9051287000038428,0,3.0,2.2128660999878775,True,1,21,A,2023-09-16_12h13.58.976,exp3,2022.2.2,
,,,,,,,,,,,,,,,,,,,,,,,,0,1158,Invalid,signal,-45,2,1.188170599998557,0,4.0,2.495976600010181,True,1,21,A,2023-09-16_12h13.58.976,exp3,2022.2.2,
,,,,,,,,,,,,,,,,,,,,,,,,0,1158,Valid,signal,45,2,1.5218449999956647,0,4.0,2.8295727999939118,True,1,21,A,2023-09-16_12h13.58.976,exp3,2022.2.2,
,,,,,,,,,,,,,,,,,,,,,,,,0,-2274,Valid,signal,-45,2,2.2415953000017907,0,3.0,7.764392800003407,True,3,21,A,2023-09-16_12h13.58.976,exp3,2022.2.2,
,,,,,,,,,,,,,,,,,,,,,,,,0,2274,Valid,noise,-45,1,2.1384082000004128,0,4.0,3.4460886000015307,True,1,21,A,2023-09-16_12h13.58.976,exp3,2022.2.2,
,,,,,,,,,,,,,,,,,,,,,,,,0,1158,Valid,signal,-45,2,2.205653999990318,0,3.0,3.513430300008622,True,1,21,A,2023-09-16_12h13.58.976,exp3,2022.2.2,
,,,,,,,,,,,,,,,,,,,,,,,,0,-2274,Valid,noise,45,1,1.7879758000053698,0,4.0,3.0957840999908512,True,1,21,A,2023-09-16_12h13.58.976,exp3,2022.2.2,
,,,,,,,,,,,,,,,,,,,,,,,,0,-557,Valid,signal,45,2,3.3220883999892976,0,3.0,4.62992099999974,True,1,21,A,2023-09-16_12h13.58.976,exp3,2022.2.2,
,,,,,,,,,,,,,,,,,,,,,,,,0,1158,Valid,signal,-45,2,1.6930107999942265,0,4.0,5.514059900000575,True,2,21,A,2023-09-16_12h13.58.976,exp3,2022.2.2,
,,,,,,,,,,,,,,,,,,,,,,,,0,1716,Valid,noise,-45,1,1.3477219000051264,0,4.0,4.313413600000786,True,2,21,A,2023-09-16_12h13.58.976,exp3,2022.2.2,
,,,,,,,,,,,,,,,,,,,,,,,,0,557,Valid,noise,45,1,14.693017500001588,0,3.0,16.000921500002733,True,1,21,A,2023-09-16_12h13.58.976,exp3,2022.2.2,
,,,,,,,,,,,,,,,,,,,,,,,,0,2274,Invalid,signal,-45,2,4.322601599997142,0,1.0,5.630406199998106,True,1,21,A,2023-09-16_12h13.58.976,exp3,2022.2.2,
,,,,,,,,,,,,,,,,,,,,,,,,0,1716,Valid,signal,45,2,1.3047284000058426,0,4.0,2.6129626000038115,True,1,21,A,2023-09-16_12h13.58.976,exp3,2022.2.2,
,,,,,,,,,,,,,,,,,,,,,,,,0,-2274,Valid,signal,45,2,1.3548079000029247,0,3.0,2.6627811000071233,True,1,21,A,2023-09-16_12h13.58.976,exp3,2022.2.2,
,,,,,,,,,,,,,,,,,,,,,,,,0,-1158,Invalid,signal,45,2,1.7812664000084624,0,4.0,22.420748100004857,True,2,21,A,2023-09-16_12h13.58.976,exp3,2022.2.2,
,,,,,,,,,,,,,,,,,,,,,,,,0,-1158,Valid,noise,45,1,1.0551778999943053,0,3.0,2.362949300004402,True,1,21,A,2023-09-16_12h13.58.976,exp3,2022.2.2,
,,,,,,,,,,,,,,,,,,,,,,,,0,-557,Valid,signal,-45,2,1.1714506999996956,0,4.0,2.47929980000481,True,1,21,A,2023-09-16_12h13.58.976,exp3,2022.2.2,
,,,,,,,,,,,,,,,,,,,,,,,,0,2274,Valid,signal,-45,2,1.9944447000016226,0,4.0,5.330846099997871,True,2,21,A,2023-09-16_12h13.58.976,exp3,2022.2.2,
,,,,,,,,,,,,,,,,,,,,,,,,0,1716,Valid,signal,-45,2,1.366642299995874,0,4.0,8.847805600002175,True,3,21,A,2023-09-16_12h13.58.976,exp3,2022.2.2,
,,,,,,,,,,,,,,,,,,,,,,,,0,-557,Invalid,signal,-45,2,3.238830299989786,0,3.0,4.546898400003556,True,1,21,A,2023-09-16_12h13.58.976,exp3,2022.2.2,
,,,,,,,,,,,,,,,,,,,,,,,,0,557,Invalid,noise,45,1,1.4884280999976909,0,4.0,2.7964910000009695,True,1,21,A,2023-09-16_12h13.58.976,exp3,2022.2.2,
,,,,,,,,,,,,,,,,,,,,,,,,0,1716,Invalid,signal,45,2,2.5534485999960452,0,4.0,5.930790099999285,True,2,21,A,2023-09-16_12h13.58.976,exp3,2022.2.2,
,,,,,,,,,,,,,,,,,,,,,,,,0,557,Invalid,signal,45,2,6.390148699996644,0,4.0,7.698242099999334,True,1,21,A,2023-09-16_12h13.58.976,exp3,2022.2.2,
,,,,,,,,,,,,,,,,,,,,,,,,0,1716,Valid,signal,-45,2,6.2061352000018815,0,3.0,7.514096099999733,True,1,21,A,2023-09-16_12h13.58.976,exp3,2022.2.2,
,,,,,,,,,,,,,,,,,,,,,,,,0,-1716,Valid,signal,-45,2,1.8888925000064773,0,3.0,3.196614900007262,True,1,21,A,2023-09-16_12h13.58.976,exp3,2022.2.2,
,,,,,,,,,,,,,,,,,,,,,,,,0,-557,Valid,noise,-45,1,1.4379561999958241,0,4.0,2.745771199988667,True,1,21,A,2023-09-16_12h13.58.976,exp3,2022.2.2,
,,,,,,,,,,,,,,,,,,,,,,,,0,-1716,Valid,noise,-45,1,1.5716169999941485,0,3.0,2.8793274000054225,True,1,21,A,2023-09-16_12h13.58.976,exp3,2022.2.2,
,,,,,,,,,,,,,,,,,,,,,,,,0,1716,Valid,signal,-45,2,3.216105100000277,0,3.0,6.581189699994866,True,2,21,A,2023-09-16_12h13.58.976,exp3,2022.2.2,
,,,,,,,,,,,,,,,,,,,,,,,,0,1716,Valid,signal,-45,2,13.971246399989468,0,1.0,17.285369399993215,True,2,21,A,2023-09-16_12h13.58.976,exp3,2022.2.2,
,,,,,,,,,,,,,,,,,,,,,,,,0,557,Invalid,noise,-45,1,1.5543049999978393,0,3.0,2.8624189000111073,True,1,21,A,2023-09-16_12h13.58.976,exp3,2022.2.2,
,,,,,,,,,,,,,,,,,,,,,,,,0,1158,Valid,noise,-45,1,1.2383796999929473,0,4.0,2.54611229999864,True,1,21,A,2023-09-16_12h13.58.976,exp3,2022.2.2,
,,,,,,,,,,,,,,,,,,,,,,,,0,1158,Valid,noise,-45,1,0.9385399000020698,0,3.0,2.246392000000924,True,1,21,A,2023-09-16_12h13.58.976,exp3,2022.2.2,
,,,,,,,,,,,,,,,,,,,,,,,,0,-1158,Valid,signal,45,2,1.854884000000311,0,4.0,3.1628301000018837,True,1,21,A,2023-09-16_12h13.58.976,exp3,2022.2.2,
,,,,,,,,,,,,,,,,,,,,,,,,0,1716,Valid,noise,-45,1,11.812249000009615,0,3.0,14.717382100003306,True,2,21,A,2023-09-16_12h13.58.976,exp3,2022.2.2,
,,,,,,,,,,,,,,,,,,,,,,,,1,1716,Valid,signal,-45,2,2.575220399987302,0,4.0,3.8832777999923564,True,1,21,A,2023-09-16_12h13.58.976,exp3,2022.2.2,
,,,,,,,,,,,,,,,,,,,,,,,,2,-557,Valid,noise,-45,1,1.3989940000028582,0,4.0,5.146423700003652,True,2,21,A,2023-09-16_12h13.58.976,exp3,2022.2.2,
,,,,,,,,,,,,,,,,,,,,,,,,3,-1716,Valid,signal,-45,2,7.473001599995769,0,3.0,8.78133829998842,True,1,21,A,2023-09-16_12h13.58.976,exp3,2022.2.2,
,,,,,,,,,,,,,,,,,,,,,,,,4,-2274,Valid,signal,45,2,2.8722940999869024,0,3.0,4.180427300001611,True,1,21,A,2023-09-16_12h13.58.976,exp3,2022.2.2,
,,,,,,,,,,,,,,,,,,,,,,,,5,557,Valid,signal,-45,2,1.2381642999971518,0,4.0,2.546462699989206,True,1,21,A,2023-09-16_12h13.58.976,exp3,2022.2.2,
,,,,,,,,,,,,,,,,,,,,,,,,6,2274,Valid,noise,-45,1,1.6540372999879764,0,3.0,2.9621773999970173,True,1,21,A,2023-09-16_12h13.58.976,exp3,2022.2.2,
,,,,,,,,,,,,,,,,,,,,,,,,7,-2274,Valid,noise,45,1,2.3376864999881946,0,3.0,3.6459763000020757,True,1,21,A,2023-09-16_12h13.58.976,exp3,2022.2.2,
,,,,,,,,,,,,,,,,,,,,,,,,8,-1716,Valid,noise,45,1,0.8381606999901123,0,3.0,2.1463703000044916,True,1,21,A,2023-09-16_12h13.58.976,exp3,2022.2.2,
,,,,,,,,,,,,,,,,,,,,,,,,9,-2274,Invalid,signal,-45,2,2.4045493000012357,0,1.0,3.7128151999932015,True,1,21,A,2023-09-16_12h13.58.976,exp3,2022.2.2,
,,,,,,,,,,,,,,,,,,,,,,,,10,-1158,Valid,signal,-45,2,2.421327399992151,0,4.0,3.7295431999955326,True,1,21,A,2023-09-16_12h13.58.976,exp3,2022.2.2,
,,,,,,,,,,,,,,,,,,,,,,,,11,-2274,Valid,noise,-45,1,0.8215580999967642,0,3.0,2.1295542000007117,True,1,21,A,2023-09-16_12h13.58.976,exp3,2022.2.2,
,,,,,,,,,,,,,,,,,,,,,,,,12,557,Valid,noise,-45,1,1.1367935000016587,0,4.0,2.4451795000059064,True,1,21,A,2023-09-16_12h13.58.976,exp3,2022.2.2,
,,,,,,,,,,,,,,,,,,,,,,,,13,-557,Valid,noise,-45,1,1.1885154999908991,0,4.0,2.4965357999899425,True,1,21,A,2023-09-16_12h13.58.976,exp3,2022.2.2,
,,,,,,,,,,,,,,,,,,,,,,,,14,-1716,Valid,noise,-45,1,0.7043513999960851,0,4.0,2.012434899996151,True,1,21,A,2023-09-16_12h13.58.976,exp3,2022.2.2,
,,,,,,,,,,,,,,,,,,,,,,,,15,1158,Valid,signal,45,2,1.854615799995372,0,4.0,3.1626141000015195,True,1,21,A,2023-09-16_12h13.58.976,exp3,2022.2.2,
,,,,,,,,,,,,,,,,,,,,,,,,16,1716,Invalid,noise,45,2,2.005641099996865,1,1.0,3.3137153000134276,True,1,21,A,2023-09-16_12h13.58.976,exp3,2022.2.2,
,,,,,,,,,,,,,,,,,,,,,,,,17,-2274,Invalid,noise,-45,1,2.570710100000724,0,3.0,3.8790784000011627,True,1,21,A,2023-09-16_12h13.58.976,exp3,2022.2.2,
,,,,,,,,,,,,,,,,,,,,,,,,18,1716,Valid,signal,45,2,3.5054439999948954,0,4.0,4.813757199997781,True,1,21,A,2023-09-16_12h13.58.976,exp3,2022.2.2,
,,,,,,,,,,,,,,,,,,,,,,,,19,-2274,Valid,signal,-45,2,1.3051013000076637,0,3.0,2.6133769000007305,True,1,21,A,2023-09-16_12h13.58.976,exp3,2022.2.2,
,,,,,,,,,,,,,,,,,,,,,,,,20,2274,Valid,signal,-45,2,2.204065300000366,0,4.0,3.5124058000074,True,1,21,A,2023-09-16_12h13.58.976,exp3,2022.2.2,
,,,,,,,,,,,,,,,,,,,,,,,,21,-1716,Invalid,noise,-45,2,4.577165900002001,1,1.0,186.5841725000064,True,30,21,A,2023-09-16_12h13.58.976,exp3,2022.2.2,
,,,,,,,,,,,,,,,,,,,,,,,,22,-557,Valid,noise,-45,1,3.088690899996436,0,4.0,4.3970202000055,True,1,21,A,2023-09-16_12h13.58.976,exp3,2022.2.2,
,,,,,,,,,,,,,,,,,,,,,,,,23,557,Valid,noise,45,1,0.9541852000111248,0,3.0,2.2624324999924283,True,1,21,A,2023-09-16_12h13.58.976,exp3,2022.2.2,
,,,,,,,,,,,,,,,,,,,,,,,,24,1158,Invalid,signal,45,2,0.804410500000813,0,4.0,2.112664100000984,True,1,21,A,2023-09-16_12h13.58.976,exp3,2022.2.2,
,,,,,,,,,,,,,,,,,,,,,,,,25,557,Invalid,signal,-45,2,4.42315509999753,0,4.0,5.731021600004169,True,1,21,A,2023-09-16_12h13.58.976,exp3,2022.2.2,
,,,,,,,,,,,,,,,,,,,,,,,,26,-557,Valid,signal,45,1,6.972778800001834,1,1.0,8.280699599999934,True,1,21,A,2023-09-16_12h13.58.976,exp3,2022.2.2,
,,,,,,,,,,,,,,,,,,,,,,,,27,1158,Valid,signal,45,2,1.2052414000063436,0,4.0,2.513497499996447,True,1,21,A,2023-09-16_12h13.58.976,exp3,2022.2.2,
,,,,,,,,,,,,,,,,,,,,,,,,28,-1158,Valid,signal,45,2,0.8369630999950459,0,4.0,2.1454402999952435,True,1,21,A,2023-09-16_12h13.58.976,exp3,2022.2.2,
,,,,,,,,,,,,,,,,,,,,,,,,29,1158,Invalid,signal,-45,2,0.6539850999979535,0,4.0,1.9621362000034424,True,1,21,A,2023-09-16_12h13.58.976,exp3,2022.2.2,
,,,,,,,,,,,,,,,,,,,,,,,,30,-1158,Invalid,noise,-45,1,0.9052274999994552,0,3.0,2.21324569999706,True,1,21,A,2023-09-16_12h13.58.976,exp3,2022.2.2,
,,,,,,,,,,,,,,,,,,,,,,,,31,1158,Valid,signal,45,2,3.188602499998524,0,4.0,4.496497400003136,True,1,21,A,2023-09-16_12h13.58.976,exp3,2022.2.2,
,,,,,,,,,,,,,,,,,,,,,,,,32,1716,Valid,signal,-45,2,6.473925800004508,0,4.0,7.781973900011508,True,1,21,A,2023-09-16_12h13.58.976,exp3,2022.2.2,
,,,,,,,,,,,,,,,,,,,,,,,,33,1158,Valid,noise,-45,1,1.2037270999862812,0,4.0,2.5121005999972112,True,1,21,A,2023-09-16_12h13.58.976,exp3,2022.2.2,
,,,,,,,,,,,,,,,,,,,,,,,,34,-2274,Valid,noise,45,1,1.287964599992847,0,4.0,2.59622260001197,True,1,21,A,2023-09-16_12h13.58.976,exp3,2022.2.2,
,,,,,,,,,,,,,,,,,,,,,,,,35,1716,Valid,noise,45,1,0.9545512000040617,0,4.0,2.262610899997526,True,1,21,A,2023-09-16_12h13.58.976,exp3,2022.2.2,
,,,,,,,,,,,,,,,,,,,,,,,,36,1158,Valid,noise,-45,1,0.7536334000033094,0,4.0,2.062392899999395,True,1,21,A,2023-09-16_12h13.58.976,exp3,2022.2.2,
,,,,,,,,,,,,,,,,,,,,,,,,37,-2274,Valid,signal,-45,1,1.204254599986598,1,3.0,2.512720700004138,True,1,21,A,2023-09-16_12h13.58.976,exp3,2022.2.2,
,,,,,,,,,,,,,,,,,,,,,,,,38,1158,Valid,signal,-45,2,1.9714919999969425,0,4.0,3.2797210999997333,True,1,21,A,2023-09-16_12h13.58.976,exp3,2022.2.2,
,,,,,,,,,,,,,,,,,,,,,,,,39,-557,Valid,noise,-45,1,1.3048285999975633,0,4.0,2.6128734000085387,True,1,21,A,2023-09-16_12h13.58.976,exp3,2022.2.2,
,,,,,,,,,,,,,,,,,,,,,,,,40,2274,Valid,signal,45,2,1.7058586000057403,0,4.0,5.780501499990351,True,2,21,A,2023-09-16_12h13.58.976,exp3,2022.2.2,
,,,,,,,,,,,,,,,,,,,,,,,,41,-557,Valid,signal,45,2,1.8880964999989374,0,4.0,3.196337900008075,True,1,21,A,2023-09-16_12h13.58.976,exp3,2022.2.2,
,,,,,,,,,,,,,,,,,,,,,,,,42,-2274,Valid,noise,45,1,1.1878260999947088,0,3.0,2.496058799995808,True,1,21,A,2023-09-16_12h13.58.976,exp3,2022.2.2,
,,,,,,,,,,,,,,,,,,,,,,,,43,1716,Valid,noise,-45,1,1.25450290000299,0,4.0,2.5626627000019653,True,1,21,A,2023-09-16_12h13.58.976,exp3,2022.2.2,
,,,,,,,,,,,,,,,,,,,,,,,,44,1158,Invalid,noise,-45,1,0.621609299996635,0,4.0,1.929429199997685,True,1,21,A,2023-09-16_12h13.58.976,exp3,2022.2.2,
,,,,,,,,,,,,,,,,,,,,,,,,45,-1716,Valid,noise,-45,1,0.5533151999989059,0,4.0,1.8617373000015505,True,1,21,A,2023-09-16_12h13.58.976,exp3,2022.2.2,
,,,,,,,,,,,,,,,,,,,,,,,,46,1716,Valid,noise,-45,1,0.6375542000023415,0,4.0,1.9457888000033563,True,1,21,A,2023-09-16_12h13.58.976,exp3,2022.2.2,
,,,,,,,,,,,,,,,,,,,,,,,,47,-2274,Valid,signal,-45,1,0.8879703999991762,1,4.0,2.1960818999941694,True,1,21,A,2023-09-16_12h13.58.976,exp3,2022.2.2,
,,,,,,,,,,,,,,,,,,,,,,,,48,1716,Valid,noise,45,1,0.721508000002359,0,4.0,2.0294337999948766,True,1,21,A,2023-09-16_12h13.58.976,exp3,2022.2.2,
,,,,,,,,,,,,,,,,,,,,,,,,49,557,Valid,signal,-45,2,2.038005399997928,0,4.0,3.3460673999943538,True,1,21,A,2023-09-16_12h13.58.976,exp3,2022.2.2,
,,,,,,,,,,,,,,,,,,,,,,,,50,557,Valid,signal,-45,2,2.6052953999897,0,4.0,3.913208800004213,True,1,21,A,2023-09-16_12h13.58.976,exp3,2022.2.2,
,,,,,,,,,,,,,,,,,,,,,,,,51,-1158,Invalid,signal,-45,2,1.1542072000011103,0,4.0,2.462129299994558,True,1,21,A,2023-09-16_12h13.58.976,exp3,2022.2.2,
,,,,,,,,,,,,,,,,,,,,,,,,52,-1158,Valid,noise,-45,1,2.0482288999919547,0,4.0,14.851084299996728,True,5,21,A,2023-09-16_12h13.58.976,exp3,2022.2.2,
,,,,,,,,,,,,,,,,,,,,,,,,53,-2274,Valid,signal,-45,2,2.221122300004936,0,2.0,3.5292239999980666,True,1,21,A,2023-09-16_12h13.58.976,exp3,2022.2.2,
,,,,,,,,,,,,,,,,,,,,,,,,54,-557,Valid,signal,-45,2,1.9380989999917801,0,4.0,3.246115000001737,True,1,21,A,2023-09-16_12h13.58.976,exp3,2022.2.2,
,,,,,,,,,,,,,,,,,,,,,,,,55,-557,Valid,signal,45,2,1.6045080999901984,0,4.0,2.9129269999975804,True,1,21,A,2023-09-16_12h13.58.976,exp3,2022.2.2,
,,,,,,,,,,,,,,,,,,,,,,,,56,2274,Valid,noise,-45,1,1.5047808999952395,0,4.0,2.8129738999996334,True,1,21,A,2023-09-16_12h13.58.976,exp3,2022.2.2,
,,,,,,,,,,,,,,,,,,,,,,,,57,557,Valid,signal,45,2,1.6053560000000289,0,4.0,2.913289200005238,True,1,21,A,2023-09-16_12h13.58.976,exp3,2022.2.2,
,,,,,,,,,,,,,,,,,,,,,,,,58,-557,Valid,signal,-45,2,2.8379599999898346,0,4.0,4.146100500001921,True,1,21,A,2023-09-16_12h13.58.976,exp3,2022.2.2,
,,,,,,,,,,,,,,,,,,,,,,,,59,2274,Valid,signal,-45,2,1.688426900000195,0,4.0,2.9965339999907883,True,1,21,A,2023-09-16_12h13.58.976,exp3,2022.2.2,
,,,,,,,,,,,,,,,,,,,,,,,,60,-557,Invalid,noise,45,1,1.0213765999942552,0,4.0,2.3295126000011805,True,1,21,A,2023-09-16_12h13.58.976,exp3,2022.2.2,
,,,,,,,,,,,,,,,,,,,,,,,,61,-1716,Invalid,signal,45,2,2.2875616000092123,0,3.0,3.595984799991129,True,1,21,A,2023-09-16_12h13.58.976,exp3,2022.2.2,
,,,,,,,,,,,,,,,,,,,,,,,,62,557,Valid,noise,45,1,0.838518100004876,0,3.0,2.146509899990633,True,1,21,A,2023-09-16_12h13.58.976,exp3,2022.2.2,
,,,,,,,,,,,,,,,,,,,,,,,,63,-557,Invalid,signal,-45,2,3.6548152000032132,0,4.0,4.963063900009729,True,1,21,A,2023-09-16_12h13.58.976,exp3,2022.2.2,
,,,,,,,,,,,,,,,,,,,,,,,,64,2274,Valid,noise,45,1,1.2711720000079367,0,4.0,2.579622699995525,True,1,21,A,2023-09-16_12h13.58.976,exp3,2022.2.2,
,,,,,,,,,,,,,,,,,,,,,,,,65,-2274,Valid,noise,45,1,0.7206758999964222,0,4.0,2.0289116999920225,True,1,21,A,2023-09-16_12h13.58.976,exp3,2022.2.2,
,,,,,,,,,,,,,,,,,,,,,,,,66,-1158,Valid,noise,-45,1,0.82125239999732,0,4.0,2.1294132999901194,True,1,21,A,2023-09-16_12h13.58.976,exp3,2022.2.2,
,,,,,,,,,,,,,,,,,,,,,,,,67,-1158,Valid,noise,45,1,0.4383765999955358,0,4.0,1.7464561999950092,True,1,21,A,2023-09-16_12h13.58.976,exp3,2022.2.2,
,,,,,,,,,,,,,,,,,,,,,,,,68,-1716,Valid,noise,45,1,1.9376749999937601,0,3.0,3.2459260000032373,True,1,21,A,2023-09-16_12h13.58.976,exp3,2022.2.2,
,,,,,,,,,,,,,,,,,,,,,,,,69,2274,Valid,signal,-45,1,2.306709000011324,1,3.0,7.381158200005302,True,2,21,A,2023-09-16_12h13.58.976,exp3,2022.2.2,
,,,,,,,,,,,,,,,,,,,,,,,,70,-1716,Valid,signal,45,2,1.8046918000036385,0,3.0,5.196950599987758,True,2,21,A,2023-09-16_12h13.58.976,exp3,2022.2.2,
,,,,,,,,,,,,,,,,,,,,,,,,71,557,Invalid,noise,45,1,1.188004199997522,0,4.0,2.496269700000994,True,1,21,A,2023-09-16_12h13.58.976,exp3,2022.2.2,
,,,,,,,,,,,,,,,,,,,,,,,,72,-1716,Invalid,noise,45,1,1.7371232000004966,0,4.0,9.665154000002076,True,4,21,A,2023-09-16_12h13.58.976,exp3,2022.2.2,
,,,,,,,,,,,,,,,,,,,,,,,,73,2274,Invalid,noise,45,1,2.887733900002786,0,3.0,4.196220199999516,True,1,21,A,2023-09-16_12h13.58.976,exp3,2022.2.2,
,,,,,,,,,,,,,,,,,,,,,,,,74,-557,Valid,noise,45,1,0.9710266999900341,0,3.0,2.2792409999965457,True,1,21,A,2023-09-16_12h13.58.976,exp3,2022.2.2,
,,,,,,,,,,,,,,,,,,,,,,,,75,-2274,Valid,signal,45,2,1.4048119000071893,0,3.0,2.7131284000060987,True,1,21,A,2023-09-16_12h13.58.976,exp3,2022.2.2,
,,,,,,,,,,,,,,,,,,,,,,,,76,-557,Valid,noise,45,1,0.8208587000117404,0,3.0,2.1288314999983413,True,1,21,A,2023-09-16_12h13.58.976,exp3,2022.2.2,
,,,,,,,,,,,,,,,,,,,,,,,,77,557,Invalid,noise,-45,1,1.5714788000041153,0,4.0,2.8796470999950543,True,1,21,A,2023-09-16_12h13.58.976,exp3,2022.2.2,
,,,,,,,,,,,,,,,,,,,,,,,,78,-557,Invalid,signal,45,2,1.7377707999985432,0,3.0,3.04611009999644,True,1,21,A,2023-09-16_12h13.58.976,exp3,2022.2.2,
,,,,,,,,,,,,,,,,,,,,,,,,79,-1158,Valid,signal,-45,2,1.28783809999004,0,4.0,2.596288100001402,True,1,21,A,2023-09-16_12h13.58.976,exp3,2022.2.2,
,,,,,,,,,,,,,,,,,,,,,,,,80,-1158,Valid,noise,45,1,1.237884899994242,0,4.0,2.546026800002437,True,1,21,A,2023-09-16_12h13.58.976,exp3,2022.2.2,
,,,,,,,,,,,,,,,,,,,,,,,,81,2274,Valid,noise,45,1,2.504866699993727,0,4.0,3.8130762000073446,True,1,21,A,2023-09-16_12h13.58.976,exp3,2022.2.2,
,,,,,,,,,,,,,,,,,,,,,,,,82,1158,Valid,noise,-45,1,0.6546272000123281,0,4.0,1.9626396999956341,True,1,21,A,2023-09-16_12h13.58.976,exp3,2022.2.2,
,,,,,,,,,,,,,,,,,,,,,,,,83,557,Valid,noise,45,1,0.7214363999955822,0,4.0,2.02964220001013,True,1,21,A,2023-09-16_12h13.58.976,exp3,2022.2.2,
,,,,,,,,,,,,,,,,,,,,,,,,84,1716,Valid,noise,45,1,0.5548083000030601,0,4.0,1.8626832000009017,True,1,21,A,2023-09-16_12h13.58.976,exp3,2022.2.2,
,,,,,,,,,,,,,,,,,,,,,,,,85,1716,Valid,signal,45,2,1.253804100007983,0,4.0,2.561995299998671,True,1,21,A,2023-09-16_12h13.58.976,exp3,2022.2.2,
,,,,,,,,,,,,,,,,,,,,,,,,86,557,Valid,noise,-45,1,0.7709024999930989,0,4.0,2.0790309999865713,True,1,21,A,2023-09-16_12h13.58.976,exp3,2022.2.2,
,,,,,,,,,,,,,,,,,,,,,,,,87,1158,Valid,noise,-45,1,0.8047341000055894,0,4.0,2.1128520000056596,True,1,21,A,2023-09-16_12h13.58.976,exp3,2022.2.2,
,,,,,,,,,,,,,,,,,,,,,,,,88,-1716,Invalid,signal,-45,2,1.4377558999985922,0,2.0,2.7458849999966333,True,1,21,A,2023-09-16_12h13.58.976,exp3,2022.2.2,
,,,,,,,,,,,,,,,,,,,,,,,,89,-1158,Valid,signal,45,2,2.0216625000030035,0,4.0,3.329872599992086,True,1,21,A,2023-09-16_12h13.58.976,exp3,2022.2.2,
,,,,,,,,,,,,,,,,,,,,,,,,90,2274,Valid,noise,-45,1,0.7383415000076639,0,4.0,2.0463014999986626,True,1,21,A,2023-09-16_12h13.58.976,exp3,2022.2.2,
,,,,,,,,,,,,,,,,,,,,,,,,91,-1716,Valid,signal,-45,2,0.5542429000051925,0,3.0,1.8622136000049068,True,1,21,A,2023-09-16_12h13.58.976,exp3,2022.2.2,
,,,,,,,,,,,,,,,,,,,,,,,,92,-1158,Valid,signal,45,2,1.6209821000084048,0,4.0,2.929079899986391,True,1,21,A,2023-09-16_12h13.58.976,exp3,2022.2.2,
,,,,,,,,,,,,,,,,,,,,,,,,93,-557,Valid,noise,-45,1,1.4715033999964362,0,4.0,2.779714899996179,True,1,21,A,2023-09-16_12h13.58.976,exp3,2022.2.2,
,,,,,,,,,,,,,,,,,,,,,,,,94,2274,Valid,noise,-45,1,0.6039154000027338,0,4.0,1.9120870000042487,True,1,21,A,2023-09-16_12h13.58.976,exp3,2022.2.2,
,,,,,,,,,,,,,,,,,,,,,,,,95,-557,Valid,signal,-45,2,1.3175297999987379,0,4.0,5.1972702000057325,True,2,21,A,2023-09-16_12h13.58.976,exp3,2022.2.2,
,,,,,,,,,,,,,,,,,,,,,,,,96,-557,Valid,signal,45,2,0.5046465000050375,0,4.0,1.812570299996878,True,1,21,A,2023-09-16_12h13.58.976,exp3,2022.2.2,
,,,,,,,,,,,,,,,,,,,,,,,,97,-2274,Valid,signal,-45,2,4.322602000000188,0,2.0,5.6307533000072,True,1,21,A,2023-09-16_12h13.58.976,exp3,2022.2.2,
,,,,,,,,,,,,,,,,,,,,,,,,98,2274,Invalid,signal,-45,1,1.8506537999928696,1,2.0,5.497024999989662,True,2,21,A,2023-09-16_12h13.58.976,exp3,2022.2.2,
,,,,,,,,,,,,,,,,,,,,,,,,99,-1158,Valid,signal,-45,2,0.4542343999928562,0,3.0,1.7621469999867259,True,1,21,A,2023-09-16_12h13.58.976,exp3,2022.2.2,
,,,,,,,,,,,,,,,,,,,,,,,,100,1158,Valid,signal,45,2,1.2044734999944922,0,4.0,2.512474499992095,True,1,21,A,2023-09-16_12h13.58.976,exp3,2022.2.2,
,,,,,,,,,,,,,,,,,,,,,,,,101,-1158,Invalid,noise,-45,1,1.6758852000057232,0,4.0,11.399417100008577,True,5,21,A,2023-09-16_12h13.58.976,exp3,2022.2.2,
,,,,,,,,,,,,,,,,,,,,,,,,102,1716,Valid,noise,-45,1,1.688395400007721,0,4.0,2.9964360000012675,True,1,21,A,2023-09-16_12h13.58.976,exp3,2022.2.2,
,,,,,,,,,,,,,,,,,,,,,,,,103,-1716,Valid,noise,45,1,0.9545097000082023,0,4.0,2.2625818999949843,True,1,21,A,2023-09-16_12h13.58.976,exp3,2022.2.2,
,,,,,,,,,,,,,,,,,,,,,,,,104,557,Valid,noise,45,1,1.59150039999804,0,3.0,6.248119700001553,True,3,21,A,2023-09-16_12h13.58.976,exp3,2022.2.2,
,,,,,,,,,,,,,,,,,,,,,,,,105,-557,Valid,noise,45,1,0.5531806999933906,0,3.0,1.8612984999926994,True,1,21,A,2023-09-16_12h13.58.976,exp3,2022.2.2,
,,,,,,,,,,,,,,,,,,,,,,,,106,-557,Valid,signal,45,2,2.5637160999904154,0,4.0,23.37136439999449,True,9,21,A,2023-09-16_12h13.58.976,exp3,2022.2.2,
,,,,,,,,,,,,,,,,,,,,,,,,107,-1158,Valid,signal,45,2,2.905141899987939,0,4.0,4.213382899994031,True,1,21,A,2023-09-16_12h13.58.976,exp3,2022.2.2,
,,,,,,,,,,,,,,,,,,,,,,,,108,1158,Valid,noise,-45,1,1.1036812999955146,0,3.0,2.411923999999999,True,1,21,A,2023-09-16_12h13.58.976,exp3,2022.2.2,
,,,,,,,,,,,,,,,,,,,,,,,,109,557,Valid,noise,45,1,1.1048045999923488,0,4.0,2.4130371999926865,True,1,21,A,2023-09-16_12h13.58.976,exp3,2022.2.2,
,,,,,,,,,,,,,,,,,,,,,,,,110,-2274,Valid,signal,-45,2,1.8717040000046836,0,2.0,3.1795812000054866,True,1,21,A,2023-09-16_12h13.58.976,exp3,2022.2.2,
,,,,,,,,,,,,,,,,,,,,,,,,111,-1158,Valid,noise,-45,1,1.9046544000011636,0,3.0,3.2127649000030942,True,1,21,A,2023-09-16_12h13.58.976,exp3,2022.2.2,
,,,,,,,,,,,,,,,,,,,,,,,,112,1716,Valid,noise,-45,1,0.871888299996499,0,4.0,2.179708000010578,True,1,21,A,2023-09-16_12h13.58.976,exp3,2022.2.2,
,,,,,,,,,,,,,,,,,,,,,,,,113,-1716,Valid,noise,45,1,0.7206365000020014,0,4.0,2.0286101999954553,True,1,21,A,2023-09-16_12h13.58.976,exp3,2022.2.2,
,,,,,,,,,,,,,,,,,,,,,,,,114,2274,Valid,signal,-45,2,2.1550220000062836,0,1.0,3.4631730999972206,True,1,21,A,2023-09-16_12h13.58.976,exp3,2022.2.2,
,,,,,,,,,,,,,,,,,,,,,,,,115,1158,Valid,signal,-45,2,1.6086470000009285,0,4.0,4.846577900010743,True,2,21,A,2023-09-16_12h13.58.976,exp3,2022.2.2,
,,,,,,,,,,,,,,,,,,,,,,,,116,2274,Valid,signal,-45,1,4.656299599999329,1,2.0,26.938261000002967,True,9,21,A,2023-09-16_12h13.58.976,exp3,2022.2.2,
,,,,,,,,,,,,,,,,,,,,,,,,117,-2274,Valid,noise,45,1,1.7043466999894008,0,4.0,3.012674599987804,True,1,21,A,2023-09-16_12h13.58.976,exp3,2022.2.2,
,,,,,,,,,,,,,,,,,,,,,,,,118,-1716,Valid,noise,45,1,0.9883368000009796,0,3.0,2.296399700004258,True,1,21,A,2023-09-16_12h13.58.976,exp3,2022.2.2,
,,,,,,,,,,,,,,,,,,,,,,,,119,2274,Valid,signal,45,1,1.720773499997449,1,4.0,3.029218999989098,True,1,21,A,2023-09-16_12h13.58.976,exp3,2022.2.2,
,,,,,,,,,,,,,,,,,,,,,,,,120,-1158,Valid,noise,-45,1,1.3385725999978604,0,3.0,2.6466660000005504,True,1,21,A,2023-09-16_12h13.58.976,exp3,2022.2.2,
,,,,,,,,,,,,,,,,,,,,,,,,121,-1716,Valid,signal,45,2,1.104249100011657,0,3.0,2.4123452000058023,True,1,21,A,2023-09-16_12h13.58.976,exp3,2022.2.2,
,,,,,,,,,,,,,,,,,,,,,,,,122,-1158,Invalid,signal,45,2,1.7381287000025623,0,3.0,3.046202199999243,True,1,21,A,2023-09-16_12h13.58.976,exp3,2022.2.2,
,,,,,,,,,,,,,,,,,,,,,,,,123,1716,Valid,signal,-45,2,2.1878379999980098,0,2.0,3.49619459999667,True,1,21,A,2023-09-16_12h13.58.976,exp3,2022.2.2,
,,,,,,,,,,,,,,,,,,,,,,,,124,2274,Invalid,signal,-45,2,1.5221121000067797,0,3.0,2.8302496999967843,True,1,21,A,2023-09-16_12h13.58.976,exp3,2022.2.2,
,,,,,,,,,,,,,,,,,,,,,,,,125,1716,Invalid,signal,45,2,2.104271999996854,0,4.0,3.4122997999947984,True,1,21,A,2023-09-16_12h13.58.976,exp3,2022.2.2,
,,,,,,,,,,,,,,,,,,,,,,,,126,1158,Valid,noise,-45,1,2.855185199994594,0,4.0,4.163302699991618,True,1,21,A,2023-09-16_12h13.58.976,exp3,2022.2.2,
,,,,,,,,,,,,,,,,,,,,,,,,127,2274,Valid,signal,45,2,1.3542186999984551,0,3.0,2.6625379000033718,True,1,21,A,2023-09-16_12h13.58.976,exp3,2022.2.2,
,,,,,,,,,,,,,,,,,,,,,,,,128,2274,Valid,noise,45,1,0.7714061000006041,0,3.0,2.079510299998219,True,1,21,A,2023-09-16_12h13.58.976,exp3,2022.2.2,
,,,,,,,,,,,,,,,,,,,,,,,,129,-2274,Valid,noise,-45,1,1.238345699995989,0,4.0,2.546409999995376,True,1,21,A,2023-09-16_12h13.58.976,exp3,2022.2.2,
,,,,,,,,,,,,,,,,,,,,,,,,130,557,Valid,noise,-45,1,0.6375253999867709,0,4.0,1.9455528999969829,True,1,21,A,2023-09-16_12h13.58.976,exp3,2022.2.2,
,,,,,,,,,,,,,,,,,,,,,,,,131,-2274,Invalid,signal,45,2,1.3546360000036657,0,3.0,2.66271579999011,True,1,21,A,2023-09-16_12h13.58.976,exp3,2022.2.2,
,,,,,,,,,,,,,,,,,,,,,,,,132,557,Valid,signal,-45,2,1.254302800007281,0,2.0,2.5624266999948304,True,1,21,A,2023-09-16_12h13.58.976,exp3,2022.2.2,
,,,,,,,,,,,,,,,,,,,,,,,,133,-557,Invalid,noise,45,1,0.7206245999987004,0,2.0,2.028835799996159,True,1,21,A,2023-09-16_12h13.58.976,exp3,2022.2.2,
,,,,,,,,,,,,,,,,,,,,,,,,134,1716,Valid,signal,45,2,1.1711566999874776,0,3.0,2.479241099994397,True,1,21,A,2023-09-16_12h13.58.976,exp3,2022.2.2,
,,,,,,,,,,,,,,,,,,,,,,,,135,1716,Valid,signal,-45,2,0.9377875000063796,0,4.0,2.246032800001558,True,1,21,A,2023-09-16_12h13.58.976,exp3,2022.2.2,
,,,,,,,,,,,,,,,,,,,,,,,,136,-2274,Valid,signal,-45,1,1.1043484999972861,1,3.0,2.412660000001779,True,1,21,A,2023-09-16_12h13.58.976,exp3,2022.2.2,
,,,,,,,,,,,,,,,,,,,,,,,,137,557,Invalid,signal,45,2,1.0878211999952327,0,3.0,2.39624869999534,True,1,21,A,2023-09-16_12h13.58.976,exp3,2022.2.2,
,,,,,,,,,,,,,,,,,,,,,,,,138,1158,Invalid,noise,-45,1,0.7877091999980621,0,4.0,2.0958728000114206,True,1,21,A,2023-09-16_12h13.58.976,exp3,2022.2.2,
,,,,,,,,,,,,,,,,,,,,,,,,139,557,Valid,signal,45,2,2.602043099992443,0,2.0,5.447476000001188,True,2,21,A,2023-09-16_12h13.58.976,exp3,2022.2.2,
,,,,,,,,,,,,,,,,,,,,,,,,140,-1158,Valid,signal,-45,2,1.570819600005052,0,4.0,2.879206500001601,True,1,21,A,2023-09-16_12h13.58.976,exp3,2022.2.2,
,,,,,,,,,,,,,,,,,,,,,,,,141,-2274,Valid,noise,45,1,1.1045286000007764,0,4.0,2.4126749000133714,True,1,21,A,2023-09-16_12h13.58.976,exp3,2022.2.2,
,,,,,,,,,,,,,,,,,,,,,,,,142,1158,Valid,noise,45,1,1.1377997000090545,0,4.0,2.446072400009143,True,1,21,A,2023-09-16_12h13.58.976,exp3,2022.2.2,
,,,,,,,,,,,,,,,,,,,,,,,,143,1716,Valid,noise,-45,1,0.5874641999980668,0,4.0,1.895780899998499,True,1,21,A,2023-09-16_12h13.58.976,exp3,2022.2.2,
,,,,,,,,,,,,,,,,,,,,,,,,144,1158,Valid,noise,45,1,1.7219771999953082,0,3.0,3.0300921000016388,True,1,21,A,2023-09-16_12h13.58.976,exp3,2022.2.2,
,,,,,,,,,,,,,,,,,,,,,,,,145,1716,Invalid,signal,-45,2,1.3874399000051199,0,3.0,2.695458400005009,True,1,21,A,2023-09-16_12h13.58.976,exp3,2022.2.2,
,,,,,,,,,,,,,,,,,,,,,,,,146,-2274,Valid,noise,45,1,0.9044346000009682,0,4.0,2.212739900001907,True,1,21,A,2023-09-16_12h13.58.976,exp3,2022.2.2,
,,,,,,,,,,,,,,,,,,,,,,,,147,1716,Invalid,noise,-45,1,0.8213482999999542,0,4.0,2.1293302999984007,True,1,21,A,2023-09-16_12h13.58.976,exp3,2022.2.2,
,,,,,,,,,,,,,,,,,,,,,,,,148,1716,Valid,signal,-45,2,1.137679699997534,0,3.0,2.445959100004984,True,1,21,A,2023-09-16_12h13.58.976,exp3,2022.2.2,
,,,,,,,,,,,,,,,,,,,,,,,,149,1158,Valid,signal,-45,2,1.354563100001542,0,4.0,2.66266670000914,True,1,21,A,2023-09-16_12h13.58.976,exp3,2022.2.2,
,,,,,,,,,,,,,,,,,,,,,,,,150,-1716,Valid,signal,45,2,0.5875288999959594,0,4.0,1.8956698999973014,True,1,21,A,2023-09-16_12h13.58.976,exp3,2022.2.2,
,,,,,,,,,,,,,,,,,,,,,,,,151,-1716,Valid,signal,-45,2,0.9386098999966634,0,4.0,2.2464192000043113,True,1,21,A,2023-09-16_12h13.58.976,exp3,2022.2.2,
,,,,,,,,,,,,,,,,,,,,,,,,152,2274,Valid,noise,45,1,1.0874992000026396,0,3.0,2.395604799996363,True,1,21,A,2023-09-16_12h13.58.976,exp3,2022.2.2,
,,,,,,,,,,,,,,,,,,,,,,,,153,-2274,Invalid,noise,-45,1,1.0544672999967588,0,3.0,2.3625670000037644,True,1,21,A,2023-09-16_12h13.58.976,exp3,2022.2.2,
,,,,,,,,,,,,,,,,,,,,,,,,154,557,Valid,signal,-45,2,1.7383621000044513,0,3.0,3.0464942999969935,True,1,21,A,2023-09-16_12h13.58.976,exp3,2022.2.2,
,,,,,,,,,,,,,,,,,,,,,,,,155,2274,Valid,signal,-45,2,3.1883743000071263,0,2.0,4.4964327000052435,True,1,21,A,2023-09-16_12h13.58.976,exp3,2022.2.2,
,,,,,,,,,,,,,,,,,,,,,,,,156,1158,Valid,signal,45,2,1.8717723000008846,0,3.0,3.179845500009833,True,1,21,A,2023-09-16_12h13.58.976,exp3,2022.2.2,
,,,,,,,,,,,,,,,,,,,,,,,,157,-1716,Valid,signal,45,2,1.4040393000032054,0,3.0,2.712480299989693,True,1,21,A,2023-09-16_12h13.58.976,exp3,2022.2.2,
,,,,,,,,,,,,,,,,,,,,,,,,158,-1158,Valid,signal,45,2,1.2711150999966776,0,4.0,2.579376099994988,True,1,21,A,2023-09-16_12h13.58.976,exp3,2022.2.2,
,,,,,,,,,,,,,,,,,,,,,,,,159,-1716,Valid,noise,45,1,2.0046690000017406,0,4.0,3.3127336999896215,True,1,21,A,2023-09-16_12h13.58.976,exp3,2022.2.2,
,,,,,,,,,,,,,,,,,,,,,,,,160,1158,Valid,signal,45,2,0.9046461999969324,0,3.0,2.2129649999988033,True,1,21,A,2023-09-16_12h13.58.976,exp3,2022.2.2,
,,,,,,,,,,,,,,,,,,,,,,,,161,-1158,Valid,noise,-45,1,1.2375111000001198,0,4.0,2.545785499998601,True,1,21,A,2023-09-16_12h13.58.976,exp3,2022.2.2,
,,,,,,,,,,,,,,,,,,,,,,,,162,-557,Valid,noise,-45,1,0.9883723999955691,0,3.0,2.2964262000023155,True,1,21,A,2023-09-16_12h13.58.976,exp3,2022.2.2,
,,,,,,,,,,,,,,,,,,,,,,,,163,-1716,Valid,signal,45,2,4.172383199998876,0,3.0,5.480465499989805,True,1,21,A,2023-09-16_12h13.58.976,exp3,2022.2.2,
,,,,,,,,,,,,,,,,,,,,,,,,164,-1716,Valid,signal,-45,2,1.289322299999185,0,4.0,5.963707199989585,True,2,21,A,2023-09-16_12h13.58.976,exp3,2022.2.2,
,,,,,,,,,,,,,,,,,,,,,,,,165,1158,Valid,noise,45,1,0.8542897000006633,0,3.0,2.162805300002219,True,1,21,A,2023-09-16_12h13.58.976,exp3,2022.2.2,
,,,,,,,,,,,,,,,,,,,,,,,,166,557,Valid,signal,45,2,1.5209502000070643,0,4.0,2.8291621999960626,True,1,21,A,2023-09-16_12h13.58.976,exp3,2022.2.2,
,,,,,,,,,,,,,,,,,,,,,,,,167,557,Valid,signal,-45,2,0.8545977000030689,0,4.0,2.1627305999863893,True,1,21,A,2023-09-16_12h13.58.976,exp3,2022.2.2,
,,,,,,,,,,,,,,,,,,,,,,,,168,1716,Valid,signal,45,2,0.9538821000023745,0,4.0,2.2621387999970466,True,1,21,A,2023-09-16_12h13.58.976,exp3,2022.2.2,
,,,,,,,,,,,,,,,,,,,,,,,,169,557,Valid,noise,-45,1,0.6713939999899594,0,4.0,1.9795531000127085,True,1,21,A,2023-09-16_12h13.58.976,exp3,2022.2.2,
,,,,,,,,,,,,,,,,,,,,,,,,170,-1158,Valid,noise,-45,1,0.7711527000064962,0,3.0,2.079318100004457,True,1,21,A,2023-09-16_12h13.58.976,exp3,2022.2.2,
,,,,,,,,,,,,,,,,,,,,,,,,171,2274,Valid,noise,45,1,0.5706465999974171,0,3.0,1.8789937999972608,True,1,21,A,2023-09-16_12h13.58.976,exp3,2022.2.2,
,,,,,,,,,,,,,,,,,,,,,,,,172,-1716,Valid,noise,-45,1,0.4547099000046728,0,3.0,1.7626872999971965,True,1,21,A,2023-09-16_12h13.58.976,exp3,2022.2.2,
,,,,,,,,,,,,,,,,,,,,,,,,173,-557,Valid,signal,45,2,0.3203007999982219,0,3.0,1.6283313000021735,True,1,21,A,2023-09-16_12h13.58.976,exp3,2022.2.2,
,,,,,,,,,,,,,,,,,,,,,,,,174,-1158,Valid,noise,45,1,0.6550153999996837,0,4.0,1.9629693000024417,True,1,21,A,2023-09-16_12h13.58.976,exp3,2022.2.2,
,,,,,,,,,,,,,,,,,,,,,,,,175,1716,Valid,noise,45,1,0.6376050999970175,0,4.0,1.9456351999979233,True,1,21,A,2023-09-16_12h13.58.976,exp3,2022.2.2,
,,,,,,,,,,,,,,,,,,,,,,,,176,2274,Invalid,noise,-45,1,0.7540179000061471,0,4.0,2.0620706000045175,True,1,21,A,2023-09-16_12h13.58.976,exp3,2022.2.2,
,,,,,,,,,,,,,,,,,,,,,,,,2,2274,Valid,signal,45,2,3.531573500004015,0,4.0,4.840107700001681,True,1,21,A,2023-09-16_12h13.58.976,exp3,2022.2.2,
,,,,,,,,,,,,,,,,,,,,,,,,4,-1158,Invalid,noise,45,1,0.9393120999884559,0,3.0,4.130316999988281,True,2,21,A,2023-09-16_12h13.58.976,exp3,2022.2.2,
,,,,,,,,,,,,,,,,,,,,,,,,6,2274,Invalid,noise,-45,1,1.0372972000041045,0,3.0,4.196306400001049,True,2,21,A,2023-09-16_12h13.58.976,exp3,2022.2.2,
,,,,,,,,,,,,,,,,,,,,,,,,8,557,Invalid,noise,45,1,0.8380482999928063,0,4.0,2.146570299999439,True,1,21,A,2023-09-16_12h13.58.976,exp3,2022.2.2,
,,,,,,,,,,,,,,,,,,,,,,,,10,557,Valid,signal,-45,2,0.7374684999958845,0,4.0,2.045782600005623,True,1,21,A,2023-09-16_12h13.58.976,exp3,2022.2.2,
,,,,,,,,,,,,,,,,,,,,,,,,12,557,Valid,signal,-45,2,0.9538568999996642,0,4.0,2.26218869999866,True,1,21,A,2023-09-16_12h13.58.976,exp3,2022.2.2,
,,,,,,,,,,,,,,,,,,,,,,,,14,-1158,Valid,signal,-45,2,1.0370073999947635,0,4.0,2.345641700012493,True,1,21,A,2023-09-16_12h13.58.976,exp3,2022.2.2,
,,,,,,,,,,,,,,,,,,,,,,,,16,-557,Valid,signal,45,2,1.4317450999951689,0,3.0,4.680040100007318,True,2,21,A,2023-09-16_12h13.58.976,exp3,2022.2.2,
,,,,,,,,,,,,,,,,,,,,,,,,18,-2274,Valid,signal,45,2,2.0550303000054555,0,2.0,3.363577299998724,True,1,21,A,2023-09-16_12h13.58.976,exp3,2022.2.2,
,,,,,,,,,,,,,,,,,,,,,,,,20,-1158,Valid,signal,-45,2,1.2881231999926968,0,3.0,2.5962774000072386,True,1,21,A,2023-09-16_12h13.58.976,exp3,2022.2.2,
,,,,,,,,,,,,,,,,,,,,,,,,22,-1158,Valid,signal,-45,2,1.9868627000105334,0,3.0,3.2954518999904394,True,1,21,A,2023-09-16_12h13.58.976,exp3,2022.2.2,
,,,,,,,,,,,,,,,,,,,,,,,,24,1158,Valid,noise,-45,1,0.8876485999935539,0,3.0,2.196271799999522,True,1,21,A,2023-09-16_12h13.58.976,exp3,2022.2.2,
,,,,,,,,,,,,,,,,,,,,,,,,26,-1158,Valid,noise,-45,1,1.1377403999940725,0,4.0,2.446123500005342,True,1,21,A,2023-09-16_12h13.58.976,exp3,2022.2.2,
,,,,,,,,,,,,,,,,,,,,,,,,28,557,Valid,noise,45,1,0.8704947999940487,0,4.0,2.178902999992715,True,1,21,A,2023-09-16_12h13.58.976,exp3,2022.2.2,
,,,,,,,,,,,,,,,,,,,,,,,,30,1158,Valid,noise,-45,1,1.1545817000005627,0,3.0,2.4630096000037156,True,1,21,A,2023-09-16_12h13.58.976,exp3,2022.2.2,
,,,,,,,,,,,,,,,,,,,,,,,,32,-2274,Valid,signal,45,1,8.836893800005782,1,1.0,16.11861430000863,True,4,21,A,2023-09-16_12h13.58.976,exp3,2022.2.2,
,,,,,,,,,,,,,,,,,,,,,,,,34,-557,Invalid,signal,-45,2,2.6708014000032563,0,4.0,3.9794913999940036,True,1,21,A,2023-09-16_12h13.58.976,exp3,2022.2.2,
,,,,,,,,,,,,,,,,,,,,,,,,36,2274,Valid,signal,-45,2,1.220531500002835,0,2.0,2.528959899995243,True,1,21,A,2023-09-16_12h13.58.976,exp3,2022.2.2,
,,,,,,,,,,,,,,,,,,,,,,,,38,557,Invalid,signal,-45,2,2.322182200005045,0,4.0,3.6306779000005918,True,1,21,A,2023-09-16_12h13.58.976,exp3,2022.2.2,
,,,,,,,,,,,,,,,,,,,,,,,,40,2274,Valid,signal,45,2,3.5239355000085197,0,4.0,8.830902800007607,True,3,21,A,2023-09-16_12h13.58.976,exp3,2022.2.2,
,,,,,,,,,,,,,,,,,,,,,,,,42,-2274,Valid,noise,-45,1,1.888189000004786,0,3.0,3.196672399993986,True,1,21,A,2023-09-16_12h13.58.976,exp3,2022.2.2,
,,,,,,,,,,,,,,,,,,,,,,,,44,2274,Valid,noise,-45,1,3.154723500003456,0,2.0,4.463203399995109,True,1,21,A,2023-09-16_12h13.58.976,exp3,2022.2.2,
,,,,,,,,,,,,,,,,,,,,,,,,46,-1716,Valid,noise,45,1,0.9374888000020292,0,3.0,2.2461608000012347,True,1,21,A,2023-09-16_12h13.58.976,exp3,2022.2.2,
,,,,,,,,,,,,,,,,,,,,,,,,48,1158,Valid,signal,45,2,3.521715700000641,0,4.0,4.830233699991368,True,1,21,A,2023-09-16_12h13.58.976,exp3,2022.2.2,
,,,,,,,,,,,,,,,,,,,,,,,,50,2274,Valid,noise,-45,1,1.8813818999915384,0,3.0,5.297640300006606,True,2,21,A,2023-09-16_12h13.58.976,exp3,2022.2.2,
,,,,,,,,,,,,,,,,,,,,,,,,52,557,Valid,signal,45,2,1.0701735000038752,0,4.0,2.3786319000064395,True,1,21,A,2023-09-16_12h13.58.976,exp3,2022.2.2,
,,,,,,,,,,,,,,,,,,,,,,,,54,-2274,Valid,signal,45,2,1.7544851999991806,0,3.0,3.0630663000047207,True,1,21,A,2023-09-16_12h13.58.976,exp3,2022.2.2,
,,,,,,,,,,,,,,,,,,,,,,,,56,-2274,Invalid,noise,-45,1,1.6872072000114713,0,4.0,2.9957206999970367,True,1,21,A,2023-09-16_12h13.58.976,exp3,2022.2.2,
,,,,,,,,,,,,,,,,,,,,,,,,58,557,Valid,noise,-45,1,2.040969800000312,0,3.0,5.380971799997496,True,2,21,A,2023-09-16_12h13.58.976,exp3,2022.2.2,
,,,,,,,,,,,,,,,,,,,,,,,,60,1716,Valid,signal,-45,2,1.187396199995419,0,3.0,2.496076900002663,True,1,21,A,2023-09-16_12h13.58.976,exp3,2022.2.2,
,,,,,,,,,,,,,,,,,,,,,,,,62,-1158,Valid,noise,-45,1,1.0544004999974277,0,4.0,2.3628630000021076,True,1,21,A,2023-09-16_12h13.58.976,exp3,2022.2.2,
,,,,,,,,,,,,,,,,,,,,,,,,64,-1716,Invalid,noise,-45,1,1.4381082000036258,0,3.0,2.7466430999920703,True,1,21,A,2023-09-16_12h13.58.976,exp3,2022.2.2,
,,,,,,,,,,,,,,,,,,,,,,,,66,-2274,Invalid,signal,45,1,1.2868068999960087,1,4.0,2.595417800010182,True,1,21,A,2023-09-16_12h13.58.976,exp3,2022.2.2,
,,,,,,,,,,,,,,,,,,,,,,,,68,-1716,Valid,noise,-45,1,1.8884278000041377,0,3.0,3.1967416999978013,True,1,21,A,2023-09-16_12h13.58.976,exp3,2022.2.2,
,,,,,,,,,,,,,,,,,,,,,,,,70,-1716,Valid,noise,45,1,0.7045026999985566,0,3.0,2.0125238000036916,True,1,21,A,2023-09-16_12h13.58.976,exp3,2022.2.2,
,,,,,,,,,,,,,,,,,,,,,,,,72,2274,Valid,signal,45,1,1.2037265000108164,1,3.0,2.512128800008213,True,1,21,A,2023-09-16_12h13.58.976,exp3,2022.2.2,
,,,,,,,,,,,,,,,,,,,,,,,,74,2274,Valid,noise,45,1,1.138304000007338,0,4.0,2.446597100002691,True,1,21,A,2023-09-16_12h13.58.976,exp3,2022.2.2,
,,,,,,,,,,,,,,,,,,,,,,,,76,2274,Valid,noise,-45,1,1.0705708999885246,0,4.0,2.378971399986767,True,1,21,A,2023-09-16_12h13.58.976,exp3,2022.2.2,
,,,,,,,,,,,,,,,,,,,,,,,,78,-557,Valid,noise,45,1,0.8532658999902196,0,3.0,2.162241100013489,True,1,21,A,2023-09-16_12h13.58.976,exp3,2022.2.2,
,,,,,,,,,,,,,,,,,,,,,,,,80,-1716,Invalid,signal,45,2,3.1796588999859523,0,3.0,6.497582700001658,True,2,21,A,2023-09-16_12h13.58.976,exp3,2022.2.2,
,,,,,,,,,,,,,,,,,,,,,,,,82,-2274,Valid,signal,-45,1,1.037711400000262,1,3.0,2.3460629000037443,True,1,21,A,2023-09-16_12h13.58.976,exp3,2022.2.2,
,,,,,,,,,,,,,,,,,,,,,,,,84,1158,Valid,noise,-45,1,0.6704792999953497,0,3.0,1.9790128000022378,True,1,21,A,2023-09-16_12h13.58.976,exp3,2022.2.2,
,,,,,,,,,,,,,,,,,,,,,,,,86,-1158,Valid,signal,-45,2,1.0208642999932636,0,3.0,2.329470600001514,True,1,21,A,2023-09-16_12h13.58.976,exp3,2022.2.2,
,,,,,,,,,,,,,,,,,,,,,,,,88,2274,Valid,noise,-45,1,0.9369860000006156,0,3.0,2.2455965999979526,True,1,21,A,2023-09-16_12h13.58.976,exp3,2022.2.2,
,,,,,,,,,,,,,,,,,,,,,,,,90,557,Valid,noise,45,1,0.8877303000044776,0,4.0,2.1962238999985857,True,1,21,A,2023-09-16_12h13.58.976,exp3,2022.2.2,
,,,,,,,,,,,,,,,,,,,,,,,,92,557,Valid,noise,45,1,0.6200467999879038,0,3.0,1.9288333000004059,True,1,21,A,2023-09-16_12h13.58.976,exp3,2022.2.2,
,,,,,,,,,,,,,,,,,,,,,,,,94,557,Valid,signal,-45,2,5.422989700004109,0,2.0,6.731415799993556,True,1,21,A,2023-09-16_12h13.58.976,exp3,2022.2.2,
,,,,,,,,,,,,,,,,,,,,,,,,96,1158,Invalid,signal,-45,2,0.8548669000010705,0,3.0,2.163260100001935,True,1,21,A,2023-09-16_12h13.58.976,exp3,2022.2.2,
,,,,,,,,,,,,,,,,,,,,,,,,98,-557,Invalid,signal,45,2,1.0364078999991762,0,4.0,2.345132199989166,True,1,21,A,2023-09-16_12h13.58.976,exp3,2022.2.2,
,,,,,,,,,,,,,,,,,,,,,,,,100,-2274,Invalid,signal,45,2,1.1203205000056187,0,3.0,2.4291852000023937,True,1,21,A,2023-09-16_12h13.58.976,exp3,2022.2.2,
,,,,,,,,,,,,,,,,,,,,,,,,102,-2274,Valid,signal,-45,2,1.6546640000015032,0,1.0,2.963204699990456,True,1,21,A,2023-09-16_12h13.58.976,exp3,2022.2.2,
,,,,,,,,,,,,,,,,,,,,,,,,104,-1158,Valid,signal,45,2,2.7876473999931477,0,3.0,4.096215799989295,True,1,21,A,2023-09-16_12h13.58.976,exp3,2022.2.2,
,,,,,,,,,,,,,,,,,,,,,,,,106,2274,Valid,signal,-45,2,6.890168799989624,0,1.0,8.198723999987124,True,1,21,A,2023-09-16_12h13.58.976,exp3,2022.2.2,
,,,,,,,,,,,,,,,,,,,,,,,,108,-1716,Valid,noise,-45,1,0.8538820000103442,0,3.0,2.1625474999891594,True,1,21,A,2023-09-16_12h13.58.976,exp3,2022.2.2,
,,,,,,,,,,,,,,,,,,,,,,,,110,1158,Valid,signal,45,2,2.638035800002399,0,4.0,3.9466089000052307,True,1,21,A,2023-09-16_12h13.58.976,exp3,2022.2.2,
,,,,,,,,,,,,,,,,,,,,,,,,112,1716,Invalid,signal,-45,2,1.4880043000011938,0,2.0,2.7964517999935197,True,1,21,A,2023-09-16_12h13.58.976,exp3,2022.2.2,
,,,,,,,,,,,,,,,,,,,,,,,,114,-1716,Invalid,signal,-45,2,1.3711776999989524,0,3.0,2.679362199996831,True,1,21,A,2023-09-16_12h13.58.976,exp3,2022.2.2,
,,,,,,,,,,,,,,,,,,,,,,,,116,2274,Invalid,signal,-45,2,1.8041473000048427,0,4.0,3.112608099996578,True,1,21,A,2023-09-16_12h13.58.976,exp3,2022.2.2,
,,,,,,,,,,,,,,,,,,,,,,,,118,-1158,Valid,noise,45,1,0.8707680999941658,0,4.0,2.1792265999974916,True,1,21,A,2023-09-16_12h13.58.976,exp3,2022.2.2,
,,,,,,,,,,,,,,,,,,,,,,,,120,557,Valid,signal,45,2,0.9539041999960318,0,3.0,2.2625009000039427,True,1,21,A,2023-09-16_12h13.58.976,exp3,2022.2.2,
,,,,,,,,,,,,,,,,,,,,,,,,122,1716,Valid,signal,45,2,0.8543910999869695,0,4.0,2.1627579999912996,True,1,21,A,2023-09-16_12h13.58.976,exp3,2022.2.2,
,,,,,,,,,,,,,,,,,,,,,,,,124,-1716,Valid,noise,-45,1,0.771304499998223,0,4.0,2.0796236000023782,True,1,21,A,2023-09-16_12h13.58.976,exp3,2022.2.2,
,,,,,,,,,,,,,,,,,,,,,,,,126,1158,Valid,signal,45,2,0.7699941000028048,0,3.0,2.07870460000413,True,1,21,A,2023-09-16_12h13.58.976,exp3,2022.2.2,
,,,,,,,,,,,,,,,,,,,,,,,,128,-557,Valid,signal,-45,2,5.522721300003468,0,2.0,6.831088100007037,True,1,21,A,2023-09-16_12h13.58.976,exp3,2022.2.2,
,,,,,,,,,,,,,,,,,,,,,,,,130,557,Valid,noise,45,1,0.7873335000040242,0,3.0,2.095962099992903,True,1,21,A,2023-09-16_12h13.58.976,exp3,2022.2.2,
,,,,,,,,,,,,,,,,,,,,,,,,132,557,Valid,noise,45,1,1.3540834000014002,0,4.0,2.6626360999944154,True,1,21,A,2023-09-16_12h13.58.976,exp3,2022.2.2,
,,,,,,,,,,,,,,,,,,,,,,,,134,2274,Invalid,signal,45,2,2.8550134999968577,0,2.0,4.163427799998317,True,1,21,A,2023-09-16_12h13.58.976,exp3,2022.2.2,
,,,,,,,,,,,,,,,,,,,,,,,,136,-1158,Invalid,signal,-45,2,1.2877668000000995,0,3.0,2.5961913999926765,True,1,21,A,2023-09-16_12h13.58.976,exp3,2022.2.2,
,,,,,,,,,,,,,,,,,,,,,,,,138,-2274,Valid,noise,45,1,1.1190138999954797,0,4.0,4.095536000007996,True,2,21,A,2023-09-16_12h13.58.976,exp3,2022.2.2,
,,,,,,,,,,,,,,,,,,,,,,,,140,-1158,Valid,noise,-45,1,11.291293900008895,0,4.0,12.600129200000083,True,1,21,A,2023-09-16_12h13.58.976,exp3,2022.2.2,
,,,,,,,,,,,,,,,,,,,,,,,,142,-1158,Valid,noise,45,1,1.0208770000026561,0,4.0,2.329526999994414,True,1,21,A,2023-09-16_12h13.58.976,exp3,2022.2.2,
,,,,,,,,,,,,,,,,,,,,,,,,144,1716,Valid,signal,-45,2,0.9703797999973176,0,4.0,2.2790016000071773,True,1,21,A,2023-09-16_12h13.58.976,exp3,2022.2.2,
,,,,,,,,,,,,,,,,,,,,,,,,146,-557,Valid,noise,45,1,0.8280372000008356,0,3.0,3.646437800009153,True,2,21,A,2023-09-16_12h13.58.976,exp3,2022.2.2,
,,,,,,,,,,,,,,,,,,,,,,,,148,2274,Valid,signal,45,2,2.271129499989911,0,4.0,3.580039199994644,True,1,21,A,2023-09-16_12h13.58.976,exp3,2022.2.2,
,,,,,,,,,,,,,,,,,,,,,,,,150,-557,Valid,noise,45,1,1.1039816000120481,0,3.0,2.412433299992699,True,1,21,A,2023-09-16_12h13.58.976,exp3,2022.2.2,
,,,,,,,,,,,,,,,,,,,,,,,,152,-2274,Valid,noise,45,1,1.0208603999926709,0,4.0,2.3295486999995774,True,1,21,A,2023-09-16_12h13.58.976,exp3,2022.2.2,
,,,,,,,,,,,,,,,,,,,,,,,,154,-1716,Valid,signal,45,2,1.4217931000021053,0,3.0,2.730186499989941,True,1,21,A,2023-09-16_12h13.58.976,exp3,2022.2.2,
,,,,,,,,,,,,,,,,,,,,,,,,156,1716,Valid,noise,-45,1,0.8704471000091871,0,4.0,2.1789629999984754,True,1,21,A,2023-09-16_12h13.58.976,exp3,2022.2.2,
,,,,,,,,,,,,,,,,,,,,,,,,158,557,Valid,noise,45,1,1.6941578999976628,0,4.0,8.114593799997238,True,4,21,A,2023-09-16_12h13.58.976,exp3,2022.2.2,
,,,,,,,,,,,,,,,,,,,,,,,,160,557,Valid,noise,45,1,1.051462100003846,0,4.0,6.4806985000032,True,3,21,A,2023-09-16_12h13.58.976,exp3,2022.2.2,
,,,,,,,,,,,,,,,,,,,,,,,,162,1716,Valid,signal,45,2,0.7368797000090126,0,4.0,2.0455671999952756,True,1,21,A,2023-09-16_12h13.58.976,exp3,2022.2.2,
,,,,,,,,,,,,,,,,,,,,,,,,164,-1158,Valid,noise,-45,1,0.8703097999969032,0,3.0,2.179241000005277,True,1,21,A,2023-09-16_12h13.58.976,exp3,2022.2.2,
,,,,,,,,,,,,,,,,,,,,,,,,166,-2274,Valid,noise,45,1,0.6037795000011101,0,3.0,1.912723699992057,True,1,21,A,2023-09-16_12h13.58.976,exp3,2022.2.2,
,,,,,,,,,,,,,,,,,,,,,,,,168,1716,Valid,noise,-45,1,0.937183100002585,0,4.0,2.2457442000013543,True,1,21,A,2023-09-16_12h13.58.976,exp3,2022.2.2,
,,,,,,,,,,,,,,,,,,,,,,,,170,-2274,Valid,noise,45,1,0.9205567000026349,0,4.0,2.2292463000048883,True,1,21,A,2023-09-16_12h13.58.976,exp3,2022.2.2,
,,,,,,,,,,,,,,,,,,,,,,,,172,1158,Valid,signal,-45,2,0.8042407000029925,0,3.0,2.1127987000072608,True,1,21,A,2023-09-16_12h13.58.976,exp3,2022.2.2,
,,,,,,,,,,,,,,,,,,,,,,,,174,-1158,Valid,noise,-45,1,1.8879717999952845,0,4.0,3.1962307000067085,True,1,21,A,2023-09-16_12h13.58.976,exp3,2022.2.2,
,,,,,,,,,,,,,,,,,,,,,,,,176,1716,Valid,signal,-45,2,40.469658300004085,0,2.0,41.778166000003694,True,1,21,A,2023-09-16_12h13.58.976,exp3,2022.2.2,
,,,,,,,,,,,,,,,,,,,,,,,,178,-2274,Invalid,noise,45,1,2.2877152000000933,0,3.0,3.59618199999386,True,1,21,A,2023-09-16_12h13.58.976,exp3,2022.2.2,
,,,,,,,,,,,,,,,,,,,,,,,,180,1716,Valid,signal,45,2,1.9372447000059765,0,2.0,3.245983000000706,True,1,21,A,2023-09-16_12h13.58.976,exp3,2022.2.2,
,,,,,,,,,,,,,,,,,,,,,,,,182,1716,Valid,noise,-45,1,1.0380830999929458,0,4.0,2.3466388000088045,True,1,21,A,2023-09-16_12h13.58.976,exp3,2022.2.2,
,,,,,,,,,,,,,,,,,,,,,,,,184,1716,Invalid,noise,-45,1,0.7370975999947404,0,3.0,2.0455646000045817,True,1,21,A,2023-09-16_12h13.58.976,exp3,2022.2.2,
,,,,,,,,,,,,,,,,,,,,,,,,186,-1716,Valid,noise,-45,1,0.7870911999925738,0,3.0,2.0953737999952864,True,1,21,A,2023-09-16_12h13.58.976,exp3,2022.2.2,
,,,,,,,,,,,,,,,,,,,,,,,,188,2274,Valid,noise,45,1,1.0879204000084428,0,4.0,2.3964273000019602,True,1,21,A,2023-09-16_12h13.58.976,exp3,2022.2.2,
,,,,,,,,,,,,,,,,,,,,,,,,190,1716,Valid,noise,-45,1,0.8705099000071641,0,3.0,2.1789431999932276,True,1,21,A,2023-09-16_12h13.58.976,exp3,2022.2.2,
,,,,,,,,,,,,,,,,,,,,,,,,192,557,Invalid,signal,-45,2,1.7895353000058094,0,3.0,5.030941599994549,True,2,21,A,2023-09-16_12h13.58.976,exp3,2022.2.2,
,,,,,,,,,,,,,,,,,,,,,,,,194,2274,Valid,signal,45,1,1.3533379000000423,1,3.0,2.6620181999896886,True,1,21,A,2023-09-16_12h13.58.976,exp3,2022.2.2,
,,,,,,,,,,,,,,,,,,,,,,,,196,-557,Invalid,noise,-45,1,1.3703100999991875,0,4.0,4.797122199990554,True,2,21,A,2023-09-16_12h13.58.976,exp3,2022.2.2,
,,,,,,,,,,,,,,,,,,,,,,,,198,2274,Valid,signal,45,2,1.254245499992976,0,3.0,2.562920500000473,True,1,21,A,2023-09-16_12h13.58.976,exp3,2022.2.2,
,,,,,,,,,,,,,,,,,,,,,,,,200,-1158,Valid,noise,-45,1,0.9213395999977365,0,4.0,2.2298571999999695,True,1,21,A,2023-09-16_12h13.58.976,exp3,2022.2.2,
,,,,,,,,,,,,,,,,,,,,,,,,202,-557,Valid,signal,-45,2,1.5536002000008011,0,3.0,2.8621125999925425,True,1,21,A,2023-09-16_12h13.58.976,exp3,2022.2.2,
,,,,,,,,,,,,,,,,,,,,,,,,204,-1716,Valid,signal,-45,2,1.4044985000073211,0,2.0,2.7131672000105027,True,1,21,A,2023-09-16_12h13.58.976,exp3,2022.2.2,
